"RT","img_1","img_2","isSameProffesion","img1proffesion","img2proffesion","img1Gender","img2Gender","keyPressed","participant","time","normlised_keyPress","age","gender","handedness","isFamiliar_img1","isFamiliar_img2","vividness_img1","vividness_img2","reject_trial","pair"
5030,"P_M_Gordon_Brown.png","P_M_nigel_farage.png","TRUE","pictures/stimuli/P","pictures/stimuli/P","M","M","2","55cff4a834e9060012e57407","07/06/2022, 17:29:16",-1.25899659227995,"25","Female","right",1,1,0,0,TRUE,"P_M_Gordon_Brown.png P_M_nigel_farage.png"
3980,"E_F_Jennifer_Saunders.png","E_M_Russell_Howard.png","TRUE","pictures/stimuli/E","pictures/stimuli/E","F","M","3","55cff4a834e9060012e57407","07/06/2022, 17:29:16",-0.676978702904792,"25","Female","right",0,1,0,0,TRUE,"E_F_Jennifer_Saunders.png E_M_Russell_Howard.png"
4070,"E_F_Jennifer_Saunders.png","P_M_Gordon_Brown.png","FALSE","pictures/stimuli/E","pictures/stimuli/P","F","M","5","55cff4a834e9060012e57407","07/06/2022, 17:29:16",0.48705707584553,"25","Female","right",0,1,0,0,TRUE,"E_F_Jennifer_Saunders.png P_M_Gordon_Brown.png"
4393,"P_M_keir_starmer.png","P_M_Tony_Blair.png","TRUE","pictures/stimuli/P","pictures/stimuli/P","M","M","4","55cff4a834e9060012e57407","07/06/2022, 17:29:16",-0.0949608135296314,"25","Female","right",0,1,0,0,TRUE,"P_M_keir_starmer.png P_M_Tony_Blair.png"
3599,"E_M_Michael_McIntyr.png","E_M_Russell_Howard.png","TRUE","pictures/stimuli/E","pictures/stimuli/E","M","M","1","55cff4a834e9060012e57407","07/06/2022, 17:29:16",-1.84101448165511,"25","Female","right",1,1,0,0,TRUE,"E_M_Michael_McIntyr.png E_M_Russell_Howard.png"
4062,"E_F_Dawn_Roma_French.png","E_F_Sarah_Millican.png","TRUE","pictures/stimuli/E","pictures/stimuli/E","F","F","3","55cff4a834e9060012e57407","07/06/2022, 17:29:16",-0.676978702904792,"25","Female","right",1,0,0,0,TRUE,"E_F_Dawn_Roma_French.png E_F_Sarah_Millican.png"
3724,"E_F_Jennifer_Saunders.png","P_M_Tony_Blair.png","FALSE","pictures/stimuli/E","pictures/stimuli/P","F","M","5","55cff4a834e9060012e57407","07/06/2022, 17:29:16",0.48705707584553,"25","Female","right",0,1,0,0,TRUE,"E_F_Jennifer_Saunders.png P_M_Tony_Blair.png"
3894,"E_M_Jimmy_Carr.png","P_M_jeremy_corbyn.png","FALSE","pictures/stimuli/E","pictures/stimuli/P","M","M","4","55cff4a834e9060012e57407","07/06/2022, 17:29:16",-0.0949608135296314,"25","Female","right",1,1,0,0,TRUE,"E_M_Jimmy_Carr.png P_M_jeremy_corbyn.png"
3113,"E_F_Sarah_Millican.png","E_M_Michael_McIntyr.png","TRUE","pictures/stimuli/E","pictures/stimuli/E","F","M","2","55cff4a834e9060012e57407","07/06/2022, 17:29:16",-1.25899659227995,"25","Female","right",0,1,0,0,TRUE,"E_F_Sarah_Millican.png E_M_Michael_McIntyr.png"
2491,"E_F_Sarah_Millican.png","P_F_Theresa_May.png","FALSE","pictures/stimuli/E","pictures/stimuli/P","F","F","5","55cff4a834e9060012e57407","07/06/2022, 17:29:16",0.48705707584553,"25","Female","right",0,1,0,0,TRUE,"E_F_Sarah_Millican.png P_F_Theresa_May.png"
6709,"P_M_Michael_Gove.png","P_M_Sajid_Javid.png","TRUE","pictures/stimuli/P","pictures/stimuli/P","M","M","4","55cff4a834e9060012e57407","07/06/2022, 17:29:16",-0.0949608135296314,"25","Female","right",0,0,0,0,TRUE,"P_M_Michael_Gove.png P_M_Sajid_Javid.png"
4333,"P_M_jeremy_corbyn.png","P_M_Michael_Gove.png","TRUE","pictures/stimuli/P","pictures/stimuli/P","M","M","6","55cff4a834e9060012e57407","07/06/2022, 17:29:16",1.06907496522069,"25","Female","right",1,0,0,0,TRUE,"P_M_jeremy_corbyn.png P_M_Michael_Gove.png"
4735,"E_F_Julie_Walters.png","P_M_Tony_Blair.png","FALSE","pictures/stimuli/E","pictures/stimuli/P","F","M","5","55cff4a834e9060012e57407","07/06/2022, 17:29:16",0.48705707584553,"25","Female","right",0,1,0,0,TRUE,"E_F_Julie_Walters.png P_M_Tony_Blair.png"
4016,"E_M_Ewan_McGregor.png","P_M_jeremy_corbyn.png","FALSE","pictures/stimuli/E","pictures/stimuli/P","M","M","4","55cff4a834e9060012e57407","07/06/2022, 17:29:16",-0.0949608135296314,"25","Female","right",0,1,0,0,TRUE,"E_M_Ewan_McGregor.png P_M_jeremy_corbyn.png"
3687,"P_F_Theresa_May.png","P_M_keir_starmer.png","TRUE","pictures/stimuli/P","pictures/stimuli/P","F","M","3","55cff4a834e9060012e57407","07/06/2022, 17:29:16",-0.676978702904792,"25","Female","right",1,0,0,0,TRUE,"P_F_Theresa_May.png P_M_keir_starmer.png"
2725,"E_F_Dawn_Roma_French.png","P_M_keir_starmer.png","FALSE","pictures/stimuli/E","pictures/stimuli/P","F","M","5","55cff4a834e9060012e57407","07/06/2022, 17:29:16",0.48705707584553,"25","Female","right",1,0,0,0,TRUE,"E_F_Dawn_Roma_French.png P_M_keir_starmer.png"
3623,"E_M_Russell_Howard.png","P_M_Michael_Gove.png","FALSE","pictures/stimuli/E","pictures/stimuli/P","M","M","6","55cff4a834e9060012e57407","07/06/2022, 17:29:16",1.06907496522069,"25","Female","right",1,0,0,0,TRUE,"E_M_Russell_Howard.png P_M_Michael_Gove.png"
2692,"E_M_Russell_Howard.png","P_M_keir_starmer.png","FALSE","pictures/stimuli/E","pictures/stimuli/P","M","M","6","55cff4a834e9060012e57407","07/06/2022, 17:29:16",1.06907496522069,"25","Female","right",1,0,0,0,TRUE,"E_M_Russell_Howard.png P_M_keir_starmer.png"
3656,"P_M_jeremy_corbyn.png","P_M_Sajid_Javid.png","TRUE","pictures/stimuli/P","pictures/stimuli/P","M","M","3","55cff4a834e9060012e57407","07/06/2022, 17:29:16",-0.676978702904792,"25","Female","right",1,0,0,0,TRUE,"P_M_jeremy_corbyn.png P_M_Sajid_Javid.png"
4434,"E_M_Peter_Kay.png","P_M_Michael_Gove.png","FALSE","pictures/stimuli/E","pictures/stimuli/P","M","M","4","55cff4a834e9060012e57407","07/06/2022, 17:29:16",-0.0949608135296314,"25","Female","right",1,0,0,0,TRUE,"E_M_Peter_Kay.png P_M_Michael_Gove.png"
2630,"E_M_Jimmy_Carr.png","E_M_Russell_Howard.png","TRUE","pictures/stimuli/E","pictures/stimuli/E","M","M","2","55cff4a834e9060012e57407","07/06/2022, 17:29:16",-1.25899659227995,"25","Female","right",1,1,0,0,TRUE,"E_M_Jimmy_Carr.png E_M_Russell_Howard.png"
4222,"E_M_Russell_Howard.png","P_M_Sajid_Javid.png","FALSE","pictures/stimuli/E","pictures/stimuli/P","M","M","4","55cff4a834e9060012e57407","07/06/2022, 17:29:16",-0.0949608135296314,"25","Female","right",1,0,0,0,TRUE,"E_M_Russell_Howard.png P_M_Sajid_Javid.png"
3114,"E_M_Jimmy_Carr.png","E_M_Simon_Pegg.png","TRUE","pictures/stimuli/E","pictures/stimuli/E","M","M","1","55cff4a834e9060012e57407","07/06/2022, 17:29:16",-1.84101448165511,"25","Female","right",1,1,0,0,TRUE,"E_M_Jimmy_Carr.png E_M_Simon_Pegg.png"
2996,"P_F_Theresa_May.png","P_M_Gordon_Brown.png","TRUE","pictures/stimuli/P","pictures/stimuli/P","F","M","1","55cff4a834e9060012e57407","07/06/2022, 17:29:16",-1.84101448165511,"25","Female","right",1,1,0,0,TRUE,"P_F_Theresa_May.png P_M_Gordon_Brown.png"
2843,"E_F_Julie_Walters.png","P_F_Theresa_May.png","FALSE","pictures/stimuli/E","pictures/stimuli/P","F","F","3","55cff4a834e9060012e57407","07/06/2022, 17:29:16",-0.676978702904792,"25","Female","right",0,1,0,0,TRUE,"E_F_Julie_Walters.png P_F_Theresa_May.png"
2784,"E_F_Julie_Walters.png","P_M_keir_starmer.png","FALSE","pictures/stimuli/E","pictures/stimuli/P","F","M","3","55cff4a834e9060012e57407","07/06/2022, 17:29:16",-0.676978702904792,"25","Female","right",0,0,0,0,TRUE,"E_F_Julie_Walters.png P_M_keir_starmer.png"
4544,"E_M_Simon_Pegg.png","P_M_Michael_Gove.png","FALSE","pictures/stimuli/E","pictures/stimuli/P","M","M","6","55cff4a834e9060012e57407","07/06/2022, 17:29:16",1.06907496522069,"25","Female","right",1,0,0,0,TRUE,"E_M_Simon_Pegg.png P_M_Michael_Gove.png"
2990,"E_M_Simon_Pegg.png","P_M_jeremy_corbyn.png","FALSE","pictures/stimuli/E","pictures/stimuli/P","M","M","3","55cff4a834e9060012e57407","07/06/2022, 17:29:16",-0.676978702904792,"25","Female","right",1,1,0,0,TRUE,"E_M_Simon_Pegg.png P_M_jeremy_corbyn.png"
3956,"E_F_Sarah_Millican.png","P_F_nicola_sturge.png","FALSE","pictures/stimuli/E","pictures/stimuli/P","F","F","3","55cff4a834e9060012e57407","07/06/2022, 17:29:16",-0.676978702904792,"25","Female","right",0,1,0,0,TRUE,"E_F_Sarah_Millican.png P_F_nicola_sturge.png"
3797,"P_M_nigel_farage.png","P_M_Sajid_Javid.png","TRUE","pictures/stimuli/P","pictures/stimuli/P","M","M","6","55cff4a834e9060012e57407","07/06/2022, 17:29:16",1.06907496522069,"25","Female","right",1,0,0,0,TRUE,"P_M_nigel_farage.png P_M_Sajid_Javid.png"
2826,"E_M_Jimmy_Carr.png","P_M_nigel_farage.png","FALSE","pictures/stimuli/E","pictures/stimuli/P","M","M","6","55cff4a834e9060012e57407","07/06/2022, 17:29:16",1.06907496522069,"25","Female","right",1,1,0,0,TRUE,"E_M_Jimmy_Carr.png P_M_nigel_farage.png"
3964,"E_F_Dawn_Roma_French.png","P_M_jeremy_corbyn.png","FALSE","pictures/stimuli/E","pictures/stimuli/P","F","M","4","55cff4a834e9060012e57407","07/06/2022, 17:29:16",-0.0949608135296314,"25","Female","right",1,1,0,0,TRUE,"E_F_Dawn_Roma_French.png P_M_jeremy_corbyn.png"
4507,"E_M_Ewan_McGregor.png","P_M_Tony_Blair.png","FALSE","pictures/stimuli/E","pictures/stimuli/P","M","M","6","55cff4a834e9060012e57407","07/06/2022, 17:29:16",1.06907496522069,"25","Female","right",0,1,0,0,TRUE,"E_M_Ewan_McGregor.png P_M_Tony_Blair.png"
3473,"P_M_david_camer.png","P_M_Sajid_Javid.png","TRUE","pictures/stimuli/P","pictures/stimuli/P","M","M","5","55cff4a834e9060012e57407","07/06/2022, 17:29:16",0.48705707584553,"25","Female","right",1,0,0,0,TRUE,"P_M_david_camer.png P_M_Sajid_Javid.png"
2380,"P_F_nicola_sturge.png","P_M_keir_starmer.png","TRUE","pictures/stimuli/P","pictures/stimuli/P","F","M","5","55cff4a834e9060012e57407","07/06/2022, 17:29:16",0.48705707584553,"25","Female","right",1,0,0,0,TRUE,"P_F_nicola_sturge.png P_M_keir_starmer.png"
4081,"P_F_nicola_sturge.png","P_M_nigel_farage.png","TRUE","pictures/stimuli/P","pictures/stimuli/P","F","M","6","55cff4a834e9060012e57407","07/06/2022, 17:29:16",1.06907496522069,"25","Female","right",1,1,0,0,TRUE,"P_F_nicola_sturge.png P_M_nigel_farage.png"
3789,"E_F_Jennifer_Saunders.png","E_F_Sarah_Millican.png","TRUE","pictures/stimuli/E","pictures/stimuli/E","F","F","3","55cff4a834e9060012e57407","07/06/2022, 17:29:16",-0.676978702904792,"25","Female","right",0,0,0,0,TRUE,"E_F_Jennifer_Saunders.png E_F_Sarah_Millican.png"
3428,"E_F_Sarah_Millican.png","E_M_Jimmy_Carr.png","TRUE","pictures/stimuli/E","pictures/stimuli/E","F","M","3","55cff4a834e9060012e57407","07/06/2022, 17:29:16",-0.676978702904792,"25","Female","right",0,1,0,0,TRUE,"E_F_Sarah_Millican.png E_M_Jimmy_Carr.png"
2672,"E_M_Ewan_McGregor.png","E_M_Simon_Pegg.png","TRUE","pictures/stimuli/E","pictures/stimuli/E","M","M","5","55cff4a834e9060012e57407","07/06/2022, 17:29:16",0.48705707584553,"25","Female","right",0,1,0,0,TRUE,"E_M_Ewan_McGregor.png E_M_Simon_Pegg.png"
2930,"E_M_Peter_Kay.png","P_M_keir_starmer.png","FALSE","pictures/stimuli/E","pictures/stimuli/P","M","M","5","55cff4a834e9060012e57407","07/06/2022, 17:29:16",0.48705707584553,"25","Female","right",1,0,0,0,TRUE,"E_M_Peter_Kay.png P_M_keir_starmer.png"
2168,"E_M_Jimmy_Carr.png","P_M_Gordon_Brown.png","FALSE","pictures/stimuli/E","pictures/stimuli/P","M","M","6","55cff4a834e9060012e57407","07/06/2022, 17:29:16",1.06907496522069,"25","Female","right",1,1,0,0,TRUE,"E_M_Jimmy_Carr.png P_M_Gordon_Brown.png"
2782,"P_M_david_camer.png","P_M_Gordon_Brown.png","TRUE","pictures/stimuli/P","pictures/stimuli/P","M","M","1","55cff4a834e9060012e57407","07/06/2022, 17:29:16",-1.84101448165511,"25","Female","right",1,1,0,0,TRUE,"P_M_david_camer.png P_M_Gordon_Brown.png"
2219,"P_M_david_camer.png","P_M_Tony_Blair.png","TRUE","pictures/stimuli/P","pictures/stimuli/P","M","M","1","55cff4a834e9060012e57407","07/06/2022, 17:29:16",-1.84101448165511,"25","Female","right",1,1,0,0,TRUE,"P_M_david_camer.png P_M_Tony_Blair.png"
3451,"E_M_Simon_Pegg.png","P_F_Theresa_May.png","FALSE","pictures/stimuli/E","pictures/stimuli/P","M","F","6","55cff4a834e9060012e57407","07/06/2022, 17:29:16",1.06907496522069,"25","Female","right",1,1,0,0,TRUE,"E_M_Simon_Pegg.png P_F_Theresa_May.png"
2716,"P_M_Gordon_Brown.png","P_M_keir_starmer.png","TRUE","pictures/stimuli/P","pictures/stimuli/P","M","M","5","55cff4a834e9060012e57407","07/06/2022, 17:29:16",0.48705707584553,"25","Female","right",1,0,0,0,TRUE,"P_M_Gordon_Brown.png P_M_keir_starmer.png"
3340,"E_M_Russell_Howard.png","P_F_Theresa_May.png","FALSE","pictures/stimuli/E","pictures/stimuli/P","M","F","6","55cff4a834e9060012e57407","07/06/2022, 17:29:16",1.06907496522069,"25","Female","right",1,1,0,0,TRUE,"E_M_Russell_Howard.png P_F_Theresa_May.png"
2695,"E_F_Dawn_Roma_French.png","E_M_Ewan_McGregor.png","TRUE","pictures/stimuli/E","pictures/stimuli/E","F","M","6","55cff4a834e9060012e57407","07/06/2022, 17:29:16",1.06907496522069,"25","Female","right",1,0,0,0,TRUE,"E_F_Dawn_Roma_French.png E_M_Ewan_McGregor.png"
2775,"P_F_nicola_sturge.png","P_F_Theresa_May.png","TRUE","pictures/stimuli/P","pictures/stimuli/P","F","F","5","55cff4a834e9060012e57407","07/06/2022, 17:29:16",0.48705707584553,"25","Female","right",1,1,0,0,TRUE,"P_F_nicola_sturge.png P_F_Theresa_May.png"
2446,"P_M_david_camer.png","P_M_Michael_Gove.png","TRUE","pictures/stimuli/P","pictures/stimuli/P","M","M","6","55cff4a834e9060012e57407","07/06/2022, 17:29:16",1.06907496522069,"25","Female","right",1,0,0,0,TRUE,"P_M_david_camer.png P_M_Michael_Gove.png"
2784,"E_F_Dawn_Roma_French.png","E_M_Michael_McIntyr.png","TRUE","pictures/stimuli/E","pictures/stimuli/E","F","M","1","55cff4a834e9060012e57407","07/06/2022, 17:29:16",-1.84101448165511,"25","Female","right",1,1,0,0,TRUE,"E_F_Dawn_Roma_French.png E_M_Michael_McIntyr.png"
2539,"P_F_nicola_sturge.png","P_M_Gordon_Brown.png","TRUE","pictures/stimuli/P","pictures/stimuli/P","F","M","5","55cff4a834e9060012e57407","07/06/2022, 17:29:16",0.48705707584553,"25","Female","right",1,1,0,0,TRUE,"P_F_nicola_sturge.png P_M_Gordon_Brown.png"
3135,"E_M_Ewan_McGregor.png","P_M_nigel_farage.png","FALSE","pictures/stimuli/E","pictures/stimuli/P","M","M","5","55cff4a834e9060012e57407","07/06/2022, 17:29:16",0.48705707584553,"25","Female","right",0,1,0,0,TRUE,"E_M_Ewan_McGregor.png P_M_nigel_farage.png"
2556,"E_M_Jimmy_Carr.png","P_M_Sajid_Javid.png","FALSE","pictures/stimuli/E","pictures/stimuli/P","M","M","5","55cff4a834e9060012e57407","07/06/2022, 17:29:16",0.48705707584553,"25","Female","right",1,0,0,0,TRUE,"E_M_Jimmy_Carr.png P_M_Sajid_Javid.png"
4542,"E_F_Julie_Walters.png","P_M_Gordon_Brown.png","FALSE","pictures/stimuli/E","pictures/stimuli/P","F","M","4","55cff4a834e9060012e57407","07/06/2022, 17:29:16",-0.0949608135296314,"25","Female","right",0,1,0,0,TRUE,"E_F_Julie_Walters.png P_M_Gordon_Brown.png"
5841,"E_F_Sarah_Millican.png","P_M_nigel_farage.png","FALSE","pictures/stimuli/E","pictures/stimuli/P","F","M","6","55cff4a834e9060012e57407","07/06/2022, 17:29:16",1.06907496522069,"25","Female","right",0,1,0,0,TRUE,"E_F_Sarah_Millican.png P_M_nigel_farage.png"
3736,"P_M_Michael_Gove.png","P_M_Tony_Blair.png","TRUE","pictures/stimuli/P","pictures/stimuli/P","M","M","2","55cff4a834e9060012e57407","07/06/2022, 17:29:16",-1.25899659227995,"25","Female","right",0,1,0,0,TRUE,"P_M_Michael_Gove.png P_M_Tony_Blair.png"
3325,"E_F_Sarah_Millican.png","E_M_Peter_Kay.png","TRUE","pictures/stimuli/E","pictures/stimuli/E","F","M","1","55cff4a834e9060012e57407","07/06/2022, 17:29:16",-1.84101448165511,"25","Female","right",0,1,0,0,TRUE,"E_F_Sarah_Millican.png E_M_Peter_Kay.png"
3949,"E_M_Peter_Kay.png","P_F_nicola_sturge.png","FALSE","pictures/stimuli/E","pictures/stimuli/P","M","F","4","55cff4a834e9060012e57407","07/06/2022, 17:29:16",-0.0949608135296314,"25","Female","right",1,1,0,0,TRUE,"E_M_Peter_Kay.png P_F_nicola_sturge.png"
3406,"E_M_Ewan_McGregor.png","P_M_david_camer.png","FALSE","pictures/stimuli/E","pictures/stimuli/P","M","M","2","55cff4a834e9060012e57407","07/06/2022, 17:29:16",-1.25899659227995,"25","Female","right",0,1,0,0,TRUE,"E_M_Ewan_McGregor.png P_M_david_camer.png"
2577,"P_M_Michael_Gove.png","P_M_nigel_farage.png","TRUE","pictures/stimuli/P","pictures/stimuli/P","M","M","1","55cff4a834e9060012e57407","07/06/2022, 17:29:16",-1.84101448165511,"25","Female","right",0,1,0,0,TRUE,"P_M_Michael_Gove.png P_M_nigel_farage.png"
3208,"E_F_Dawn_Roma_French.png","P_M_Gordon_Brown.png","FALSE","pictures/stimuli/E","pictures/stimuli/P","F","M","6","55cff4a834e9060012e57407","07/06/2022, 17:29:16",1.06907496522069,"25","Female","right",1,1,0,0,TRUE,"E_F_Dawn_Roma_French.png P_M_Gordon_Brown.png"
2578,"E_M_Russell_Howard.png","P_M_nigel_farage.png","FALSE","pictures/stimuli/E","pictures/stimuli/P","M","M","6","55cff4a834e9060012e57407","07/06/2022, 17:29:16",1.06907496522069,"25","Female","right",1,1,0,0,TRUE,"E_M_Russell_Howard.png P_M_nigel_farage.png"
2079,"E_M_Russell_Howard.png","P_M_Tony_Blair.png","FALSE","pictures/stimuli/E","pictures/stimuli/P","M","M","6","55cff4a834e9060012e57407","07/06/2022, 17:29:16",1.06907496522069,"25","Female","right",1,1,0,0,TRUE,"E_M_Russell_Howard.png P_M_Tony_Blair.png"
4462,"E_F_Jennifer_Saunders.png","P_M_Sajid_Javid.png","FALSE","pictures/stimuli/E","pictures/stimuli/P","F","M","4","55cff4a834e9060012e57407","07/06/2022, 17:29:16",-0.0949608135296314,"25","Female","right",0,0,0,0,TRUE,"E_F_Jennifer_Saunders.png P_M_Sajid_Javid.png"
2138,"E_M_Michael_McIntyr.png","P_F_Theresa_May.png","FALSE","pictures/stimuli/E","pictures/stimuli/P","M","F","6","55cff4a834e9060012e57407","07/06/2022, 17:29:16",1.06907496522069,"25","Female","right",1,1,0,0,TRUE,"E_M_Michael_McIntyr.png P_F_Theresa_May.png"
2335,"E_F_Sarah_Millican.png","P_M_Tony_Blair.png","FALSE","pictures/stimuli/E","pictures/stimuli/P","F","M","6","55cff4a834e9060012e57407","07/06/2022, 17:29:16",1.06907496522069,"25","Female","right",0,1,0,0,TRUE,"E_F_Sarah_Millican.png P_M_Tony_Blair.png"
4368,"P_F_nicola_sturge.png","P_M_jeremy_corbyn.png","TRUE","pictures/stimuli/P","pictures/stimuli/P","F","M","1","55cff4a834e9060012e57407","07/06/2022, 17:29:16",-1.84101448165511,"25","Female","right",1,1,0,0,TRUE,"P_F_nicola_sturge.png P_M_jeremy_corbyn.png"
3992,"E_M_Ewan_McGregor.png","P_M_Gordon_Brown.png","FALSE","pictures/stimuli/E","pictures/stimuli/P","M","M","4","55cff4a834e9060012e57407","07/06/2022, 17:29:16",-0.0949608135296314,"25","Female","right",0,1,0,0,TRUE,"E_M_Ewan_McGregor.png P_M_Gordon_Brown.png"
2418,"E_M_Simon_Pegg.png","P_M_Gordon_Brown.png","FALSE","pictures/stimuli/E","pictures/stimuli/P","M","M","6","55cff4a834e9060012e57407","07/06/2022, 17:29:16",1.06907496522069,"25","Female","right",1,1,0,0,TRUE,"E_M_Simon_Pegg.png P_M_Gordon_Brown.png"
2986,"E_F_Dawn_Roma_French.png","E_F_Julie_Walters.png","TRUE","pictures/stimuli/E","pictures/stimuli/E","F","F","4","55cff4a834e9060012e57407","07/06/2022, 17:29:16",-0.0949608135296314,"25","Female","right",1,0,0,0,TRUE,"E_F_Dawn_Roma_French.png E_F_Julie_Walters.png"
3120,"P_M_Gordon_Brown.png","P_M_Tony_Blair.png","TRUE","pictures/stimuli/P","pictures/stimuli/P","M","M","1","55cff4a834e9060012e57407","07/06/2022, 17:29:16",-1.84101448165511,"25","Female","right",1,1,0,0,TRUE,"P_M_Gordon_Brown.png P_M_Tony_Blair.png"
2371,"E_F_Dawn_Roma_French.png","E_M_Peter_Kay.png","TRUE","pictures/stimuli/E","pictures/stimuli/E","F","M","1","55cff4a834e9060012e57407","07/06/2022, 17:29:16",-1.84101448165511,"25","Female","right",1,1,0,0,TRUE,"E_F_Dawn_Roma_French.png E_M_Peter_Kay.png"
2674,"P_M_david_camer.png","P_M_keir_starmer.png","TRUE","pictures/stimuli/P","pictures/stimuli/P","M","M","4","55cff4a834e9060012e57407","07/06/2022, 17:29:16",-0.0949608135296314,"25","Female","right",1,0,0,0,TRUE,"P_M_david_camer.png P_M_keir_starmer.png"
2759,"E_F_Dawn_Roma_French.png","P_M_nigel_farage.png","FALSE","pictures/stimuli/E","pictures/stimuli/P","F","M","6","55cff4a834e9060012e57407","07/06/2022, 17:29:16",1.06907496522069,"25","Female","right",1,1,0,0,TRUE,"E_F_Dawn_Roma_French.png P_M_nigel_farage.png"
4212,"E_F_Julie_Walters.png","P_M_jeremy_corbyn.png","FALSE","pictures/stimuli/E","pictures/stimuli/P","F","M","5","55cff4a834e9060012e57407","07/06/2022, 17:29:16",0.48705707584553,"25","Female","right",0,1,0,0,TRUE,"E_F_Julie_Walters.png P_M_jeremy_corbyn.png"
2475,"E_M_Simon_Pegg.png","P_M_david_camer.png","FALSE","pictures/stimuli/E","pictures/stimuli/P","M","M","6","55cff4a834e9060012e57407","07/06/2022, 17:29:16",1.06907496522069,"25","Female","right",1,1,0,0,TRUE,"E_M_Simon_Pegg.png P_M_david_camer.png"
2716,"E_F_Jennifer_Saunders.png","E_M_Michael_McIntyr.png","TRUE","pictures/stimuli/E","pictures/stimuli/E","F","M","5","55cff4a834e9060012e57407","07/06/2022, 17:29:16",0.48705707584553,"25","Female","right",0,1,0,0,TRUE,"E_F_Jennifer_Saunders.png E_M_Michael_McIntyr.png"
2688,"E_M_Ewan_McGregor.png","E_M_Russell_Howard.png","TRUE","pictures/stimuli/E","pictures/stimuli/E","M","M","5","55cff4a834e9060012e57407","07/06/2022, 17:29:16",0.48705707584553,"25","Female","right",0,1,0,0,TRUE,"E_M_Ewan_McGregor.png E_M_Russell_Howard.png"
2490,"E_F_Sarah_Millican.png","E_M_Simon_Pegg.png","TRUE","pictures/stimuli/E","pictures/stimuli/E","F","M","2","55cff4a834e9060012e57407","07/06/2022, 17:29:16",-1.25899659227995,"25","Female","right",0,1,0,0,TRUE,"E_F_Sarah_Millican.png E_M_Simon_Pegg.png"
2614,"P_F_Theresa_May.png","P_M_Sajid_Javid.png","TRUE","pictures/stimuli/P","pictures/stimuli/P","F","M","4","55cff4a834e9060012e57407","07/06/2022, 17:29:16",-0.0949608135296314,"25","Female","right",1,0,0,0,TRUE,"P_F_Theresa_May.png P_M_Sajid_Javid.png"
3451,"E_M_Ewan_McGregor.png","P_M_keir_starmer.png","FALSE","pictures/stimuli/E","pictures/stimuli/P","M","M","5","55cff4a834e9060012e57407","07/06/2022, 17:29:16",0.48705707584553,"25","Female","right",0,0,0,0,TRUE,"E_M_Ewan_McGregor.png P_M_keir_starmer.png"
2401,"E_M_Russell_Howard.png","P_M_jeremy_corbyn.png","FALSE","pictures/stimuli/E","pictures/stimuli/P","M","M","3","55cff4a834e9060012e57407","07/06/2022, 17:29:16",-0.676978702904792,"25","Female","right",1,1,0,0,TRUE,"E_M_Russell_Howard.png P_M_jeremy_corbyn.png"
2643,"E_M_Jimmy_Carr.png","P_M_Michael_Gove.png","FALSE","pictures/stimuli/E","pictures/stimuli/P","M","M","5","55cff4a834e9060012e57407","07/06/2022, 17:29:16",0.48705707584553,"25","Female","right",1,0,0,0,TRUE,"E_M_Jimmy_Carr.png P_M_Michael_Gove.png"
3376,"E_F_Sarah_Millican.png","P_M_jeremy_corbyn.png","FALSE","pictures/stimuli/E","pictures/stimuli/P","F","M","4","55cff4a834e9060012e57407","07/06/2022, 17:29:16",-0.0949608135296314,"25","Female","right",0,1,0,0,TRUE,"E_F_Sarah_Millican.png P_M_jeremy_corbyn.png"
2855,"E_F_Jennifer_Saunders.png","P_M_keir_starmer.png","FALSE","pictures/stimuli/E","pictures/stimuli/P","F","M","2","55cff4a834e9060012e57407","07/06/2022, 17:29:16",-1.25899659227995,"25","Female","right",0,0,0,0,TRUE,"E_F_Jennifer_Saunders.png P_M_keir_starmer.png"
1953,"E_M_Michael_McIntyr.png","P_M_nigel_farage.png","FALSE","pictures/stimuli/E","pictures/stimuli/P","M","M","6","55cff4a834e9060012e57407","07/06/2022, 17:29:16",1.06907496522069,"25","Female","right",1,1,0,0,TRUE,"E_M_Michael_McIntyr.png P_M_nigel_farage.png"
2117,"E_M_Peter_Kay.png","P_M_nigel_farage.png","FALSE","pictures/stimuli/E","pictures/stimuli/P","M","M","6","55cff4a834e9060012e57407","07/06/2022, 17:29:16",1.06907496522069,"25","Female","right",1,1,0,0,TRUE,"E_M_Peter_Kay.png P_M_nigel_farage.png"
3434,"P_F_nicola_sturge.png","P_M_david_camer.png","TRUE","pictures/stimuli/P","pictures/stimuli/P","F","M","5","55cff4a834e9060012e57407","07/06/2022, 17:29:16",0.48705707584553,"25","Female","right",1,1,0,0,TRUE,"P_F_nicola_sturge.png P_M_david_camer.png"
2907,"E_F_Jennifer_Saunders.png","E_M_Jimmy_Carr.png","TRUE","pictures/stimuli/E","pictures/stimuli/E","F","M","6","55cff4a834e9060012e57407","07/06/2022, 17:29:16",1.06907496522069,"25","Female","right",0,1,0,0,TRUE,"E_F_Jennifer_Saunders.png E_M_Jimmy_Carr.png"
3243,"E_M_Jimmy_Carr.png","P_F_nicola_sturge.png","FALSE","pictures/stimuli/E","pictures/stimuli/P","M","F","5","55cff4a834e9060012e57407","07/06/2022, 17:29:16",0.48705707584553,"25","Female","right",1,1,0,0,TRUE,"E_M_Jimmy_Carr.png P_F_nicola_sturge.png"
2753,"P_F_nicola_sturge.png","P_M_Sajid_Javid.png","TRUE","pictures/stimuli/P","pictures/stimuli/P","F","M","3","55cff4a834e9060012e57407","07/06/2022, 17:29:16",-0.676978702904792,"25","Female","right",1,0,0,0,TRUE,"P_F_nicola_sturge.png P_M_Sajid_Javid.png"
2188,"E_F_Dawn_Roma_French.png","P_M_Tony_Blair.png","FALSE","pictures/stimuli/E","pictures/stimuli/P","F","M","6","55cff4a834e9060012e57407","07/06/2022, 17:29:16",1.06907496522069,"25","Female","right",1,1,0,0,TRUE,"E_F_Dawn_Roma_French.png P_M_Tony_Blair.png"
3281,"E_F_Julie_Walters.png","P_M_nigel_farage.png","FALSE","pictures/stimuli/E","pictures/stimuli/P","F","M","2","55cff4a834e9060012e57407","07/06/2022, 17:29:16",-1.25899659227995,"25","Female","right",0,1,0,0,TRUE,"E_F_Julie_Walters.png P_M_nigel_farage.png"
2152,"E_M_Russell_Howard.png","P_M_Gordon_Brown.png","FALSE","pictures/stimuli/E","pictures/stimuli/P","M","M","6","55cff4a834e9060012e57407","07/06/2022, 17:29:16",1.06907496522069,"25","Female","right",1,1,0,0,TRUE,"E_M_Russell_Howard.png P_M_Gordon_Brown.png"
2137,"E_F_Jennifer_Saunders.png","P_F_nicola_sturge.png","FALSE","pictures/stimuli/E","pictures/stimuli/P","F","F","5","55cff4a834e9060012e57407","07/06/2022, 17:29:16",0.48705707584553,"25","Female","right",0,1,0,0,TRUE,"E_F_Jennifer_Saunders.png P_F_nicola_sturge.png"
2892,"E_F_Jennifer_Saunders.png","P_M_nigel_farage.png","FALSE","pictures/stimuli/E","pictures/stimuli/P","F","M","2","55cff4a834e9060012e57407","07/06/2022, 17:29:16",-1.25899659227995,"25","Female","right",0,1,0,0,TRUE,"E_F_Jennifer_Saunders.png P_M_nigel_farage.png"
3171,"P_M_Gordon_Brown.png","P_M_Michael_Gove.png","TRUE","pictures/stimuli/P","pictures/stimuli/P","M","M","1","55cff4a834e9060012e57407","07/06/2022, 17:29:16",-1.84101448165511,"25","Female","right",1,0,0,0,TRUE,"P_M_Gordon_Brown.png P_M_Michael_Gove.png"
3157,"P_M_jeremy_corbyn.png","P_M_keir_starmer.png","TRUE","pictures/stimuli/P","pictures/stimuli/P","M","M","6","55cff4a834e9060012e57407","07/06/2022, 17:29:16",1.06907496522069,"25","Female","right",1,0,0,0,TRUE,"P_M_jeremy_corbyn.png P_M_keir_starmer.png"
2283,"P_M_jeremy_corbyn.png","P_M_nigel_farage.png","TRUE","pictures/stimuli/P","pictures/stimuli/P","M","M","6","55cff4a834e9060012e57407","07/06/2022, 17:29:16",1.06907496522069,"25","Female","right",1,1,0,0,TRUE,"P_M_jeremy_corbyn.png P_M_nigel_farage.png"
3031,"E_M_Russell_Howard.png","P_F_nicola_sturge.png","FALSE","pictures/stimuli/E","pictures/stimuli/P","M","F","3","55cff4a834e9060012e57407","07/06/2022, 17:29:16",-0.676978702904792,"25","Female","right",1,1,0,0,TRUE,"E_M_Russell_Howard.png P_F_nicola_sturge.png"
2628,"P_M_jeremy_corbyn.png","P_M_Tony_Blair.png","TRUE","pictures/stimuli/P","pictures/stimuli/P","M","M","5","55cff4a834e9060012e57407","07/06/2022, 17:29:16",0.48705707584553,"25","Female","right",1,1,0,0,TRUE,"P_M_jeremy_corbyn.png P_M_Tony_Blair.png"
2731,"P_M_Sajid_Javid.png","P_M_Tony_Blair.png","TRUE","pictures/stimuli/P","pictures/stimuli/P","M","M","4","55cff4a834e9060012e57407","07/06/2022, 17:29:16",-0.0949608135296314,"25","Female","right",0,1,0,0,TRUE,"P_M_Sajid_Javid.png P_M_Tony_Blair.png"
2899,"E_F_Julie_Walters.png","P_M_david_camer.png","FALSE","pictures/stimuli/E","pictures/stimuli/P","F","M","3","55cff4a834e9060012e57407","07/06/2022, 17:29:16",-0.676978702904792,"25","Female","right",0,1,0,0,TRUE,"E_F_Julie_Walters.png P_M_david_camer.png"
4109,"E_M_Simon_Pegg.png","P_F_nicola_sturge.png","FALSE","pictures/stimuli/E","pictures/stimuli/P","M","F","3","55cff4a834e9060012e57407","07/06/2022, 17:29:16",-0.676978702904792,"25","Female","right",1,1,0,0,TRUE,"E_M_Simon_Pegg.png P_F_nicola_sturge.png"
3024,"E_M_Peter_Kay.png","P_M_Gordon_Brown.png","FALSE","pictures/stimuli/E","pictures/stimuli/P","M","M","5","55cff4a834e9060012e57407","07/06/2022, 17:29:16",0.48705707584553,"25","Female","right",1,1,0,0,TRUE,"E_M_Peter_Kay.png P_M_Gordon_Brown.png"
2606,"P_M_Gordon_Brown.png","P_M_jeremy_corbyn.png","TRUE","pictures/stimuli/P","pictures/stimuli/P","M","M","6","55cff4a834e9060012e57407","07/06/2022, 17:29:16",1.06907496522069,"25","Female","right",1,1,0,0,TRUE,"P_M_Gordon_Brown.png P_M_jeremy_corbyn.png"
3259,"E_F_Jennifer_Saunders.png","P_M_jeremy_corbyn.png","FALSE","pictures/stimuli/E","pictures/stimuli/P","F","M","6","55cff4a834e9060012e57407","07/06/2022, 17:29:16",1.06907496522069,"25","Female","right",0,1,0,0,TRUE,"E_F_Jennifer_Saunders.png P_M_jeremy_corbyn.png"
4410,"P_M_nigel_farage.png","P_M_Tony_Blair.png","TRUE","pictures/stimuli/P","pictures/stimuli/P","M","M","2","55cff4a834e9060012e57407","07/06/2022, 17:29:16",-1.25899659227995,"25","Female","right",1,1,0,0,TRUE,"P_M_nigel_farage.png P_M_Tony_Blair.png"
2707,"E_M_Michael_McIntyr.png","P_M_Tony_Blair.png","FALSE","pictures/stimuli/E","pictures/stimuli/P","M","M","5","55cff4a834e9060012e57407","07/06/2022, 17:29:16",0.48705707584553,"25","Female","right",1,1,0,0,TRUE,"E_M_Michael_McIntyr.png P_M_Tony_Blair.png"
3192,"E_F_Dawn_Roma_French.png","P_F_nicola_sturge.png","FALSE","pictures/stimuli/E","pictures/stimuli/P","F","F","3","55cff4a834e9060012e57407","07/06/2022, 17:29:16",-0.676978702904792,"25","Female","right",1,1,0,0,TRUE,"E_F_Dawn_Roma_French.png P_F_nicola_sturge.png"
2680,"E_F_Jennifer_Saunders.png","E_F_Julie_Walters.png","TRUE","pictures/stimuli/E","pictures/stimuli/E","F","F","4","55cff4a834e9060012e57407","07/06/2022, 17:29:16",-0.0949608135296314,"25","Female","right",0,0,0,0,TRUE,"E_F_Jennifer_Saunders.png E_F_Julie_Walters.png"
3721,"E_F_Sarah_Millican.png","E_M_Ewan_McGregor.png","TRUE","pictures/stimuli/E","pictures/stimuli/E","F","M","5","55cff4a834e9060012e57407","07/06/2022, 17:29:16",0.48705707584553,"25","Female","right",0,0,0,0,TRUE,"E_F_Sarah_Millican.png E_M_Ewan_McGregor.png"
3420,"E_M_Simon_Pegg.png","P_M_keir_starmer.png","FALSE","pictures/stimuli/E","pictures/stimuli/P","M","M","5","55cff4a834e9060012e57407","07/06/2022, 17:29:16",0.48705707584553,"25","Female","right",1,0,0,0,TRUE,"E_M_Simon_Pegg.png P_M_keir_starmer.png"
4797,"P_M_david_camer.png","P_M_jeremy_corbyn.png","TRUE","pictures/stimuli/P","pictures/stimuli/P","M","M","5","55cff4a834e9060012e57407","07/06/2022, 17:29:16",0.48705707584553,"25","Female","right",1,1,0,0,TRUE,"P_M_david_camer.png P_M_jeremy_corbyn.png"
3010,"E_F_Dawn_Roma_French.png","P_F_Theresa_May.png","FALSE","pictures/stimuli/E","pictures/stimuli/P","F","F","6","55cff4a834e9060012e57407","07/06/2022, 17:29:16",1.06907496522069,"25","Female","right",1,1,0,0,TRUE,"E_F_Dawn_Roma_French.png P_F_Theresa_May.png"
2474,"E_M_Jimmy_Carr.png","E_M_Peter_Kay.png","TRUE","pictures/stimuli/E","pictures/stimuli/E","M","M","1","55cff4a834e9060012e57407","07/06/2022, 17:29:16",-1.84101448165511,"25","Female","right",1,1,0,0,TRUE,"E_M_Jimmy_Carr.png E_M_Peter_Kay.png"
3963,"E_F_Sarah_Millican.png","P_M_Sajid_Javid.png","FALSE","pictures/stimuli/E","pictures/stimuli/P","F","M","4","55cff4a834e9060012e57407","07/06/2022, 17:29:16",-0.0949608135296314,"25","Female","right",0,0,0,0,TRUE,"E_F_Sarah_Millican.png P_M_Sajid_Javid.png"
3926,"E_F_Jennifer_Saunders.png","P_M_david_camer.png","FALSE","pictures/stimuli/E","pictures/stimuli/P","F","M","3","55cff4a834e9060012e57407","07/06/2022, 17:29:16",-0.676978702904792,"25","Female","right",0,1,0,0,TRUE,"E_F_Jennifer_Saunders.png P_M_david_camer.png"
2893,"E_M_Michael_McIntyr.png","P_F_nicola_sturge.png","FALSE","pictures/stimuli/E","pictures/stimuli/P","M","F","5","55cff4a834e9060012e57407","07/06/2022, 17:29:16",0.48705707584553,"25","Female","right",1,1,0,0,TRUE,"E_M_Michael_McIntyr.png P_F_nicola_sturge.png"
2752,"P_F_Theresa_May.png","P_M_Michael_Gove.png","TRUE","pictures/stimuli/P","pictures/stimuli/P","F","M","2","55cff4a834e9060012e57407","07/06/2022, 17:29:16",-1.25899659227995,"25","Female","right",1,0,0,0,TRUE,"P_F_Theresa_May.png P_M_Michael_Gove.png"
3339,"E_F_Sarah_Millican.png","P_M_Michael_Gove.png","FALSE","pictures/stimuli/E","pictures/stimuli/P","F","M","6","55cff4a834e9060012e57407","07/06/2022, 17:29:16",1.06907496522069,"25","Female","right",0,0,0,0,TRUE,"E_F_Sarah_Millican.png P_M_Michael_Gove.png"
3457,"E_F_Julie_Walters.png","P_M_Michael_Gove.png","FALSE","pictures/stimuli/E","pictures/stimuli/P","F","M","5","55cff4a834e9060012e57407","07/06/2022, 17:29:16",0.48705707584553,"25","Female","right",0,0,0,0,TRUE,"E_F_Julie_Walters.png P_M_Michael_Gove.png"
2452,"P_F_nicola_sturge.png","P_M_Michael_Gove.png","TRUE","pictures/stimuli/P","pictures/stimuli/P","F","M","6","55cff4a834e9060012e57407","07/06/2022, 17:29:16",1.06907496522069,"25","Female","right",1,0,0,0,TRUE,"P_F_nicola_sturge.png P_M_Michael_Gove.png"
2078,"E_M_Michael_McIntyr.png","P_M_Gordon_Brown.png","FALSE","pictures/stimuli/E","pictures/stimuli/P","M","M","6","55cff4a834e9060012e57407","07/06/2022, 17:29:16",1.06907496522069,"25","Female","right",1,1,0,0,TRUE,"E_M_Michael_McIntyr.png P_M_Gordon_Brown.png"
2335,"E_M_Ewan_McGregor.png","P_F_nicola_sturge.png","FALSE","pictures/stimuli/E","pictures/stimuli/P","M","F","6","55cff4a834e9060012e57407","07/06/2022, 17:29:16",1.06907496522069,"25","Female","right",0,1,0,0,TRUE,"E_M_Ewan_McGregor.png P_F_nicola_sturge.png"
2759,"E_M_Michael_McIntyr.png","P_M_Michael_Gove.png","FALSE","pictures/stimuli/E","pictures/stimuli/P","M","M","6","55cff4a834e9060012e57407","07/06/2022, 17:29:16",1.06907496522069,"25","Female","right",1,0,0,0,TRUE,"E_M_Michael_McIntyr.png P_M_Michael_Gove.png"
2239,"E_M_Peter_Kay.png","E_M_Russell_Howard.png","TRUE","pictures/stimuli/E","pictures/stimuli/E","M","M","2","55cff4a834e9060012e57407","07/06/2022, 17:29:16",-1.25899659227995,"25","Female","right",1,1,0,0,TRUE,"E_M_Peter_Kay.png E_M_Russell_Howard.png"
2335,"E_F_Dawn_Roma_French.png","P_M_Michael_Gove.png","FALSE","pictures/stimuli/E","pictures/stimuli/P","F","M","6","55cff4a834e9060012e57407","07/06/2022, 17:29:16",1.06907496522069,"25","Female","right",1,0,0,0,TRUE,"E_F_Dawn_Roma_French.png P_M_Michael_Gove.png"
4123,"E_M_Ewan_McGregor.png","P_M_Michael_Gove.png","FALSE","pictures/stimuli/E","pictures/stimuli/P","M","M","2","55cff4a834e9060012e57407","07/06/2022, 17:29:16",-1.25899659227995,"25","Female","right",0,0,0,0,TRUE,"E_M_Ewan_McGregor.png P_M_Michael_Gove.png"
2152,"P_M_keir_starmer.png","P_M_Michael_Gove.png","TRUE","pictures/stimuli/P","pictures/stimuli/P","M","M","2","55cff4a834e9060012e57407","07/06/2022, 17:29:16",-1.25899659227995,"25","Female","right",0,0,0,0,TRUE,"P_M_keir_starmer.png P_M_Michael_Gove.png"
3053,"E_F_Dawn_Roma_French.png","P_M_Sajid_Javid.png","FALSE","pictures/stimuli/E","pictures/stimuli/P","F","M","3","55cff4a834e9060012e57407","07/06/2022, 17:29:16",-0.676978702904792,"25","Female","right",1,0,0,0,TRUE,"E_F_Dawn_Roma_French.png P_M_Sajid_Javid.png"
2393,"E_M_Ewan_McGregor.png","E_M_Michael_McIntyr.png","TRUE","pictures/stimuli/E","pictures/stimuli/E","M","M","5","55cff4a834e9060012e57407","07/06/2022, 17:29:16",0.48705707584553,"25","Female","right",0,1,0,0,TRUE,"E_M_Ewan_McGregor.png E_M_Michael_McIntyr.png"
4204,"E_F_Dawn_Roma_French.png","E_F_Jennifer_Saunders.png","TRUE","pictures/stimuli/E","pictures/stimuli/E","F","F","4","55cff4a834e9060012e57407","07/06/2022, 17:29:16",-0.0949608135296314,"25","Female","right",1,0,0,0,TRUE,"E_F_Dawn_Roma_French.png E_F_Jennifer_Saunders.png"
3589,"E_F_Julie_Walters.png","P_M_Sajid_Javid.png","FALSE","pictures/stimuli/E","pictures/stimuli/P","F","M","5","55cff4a834e9060012e57407","07/06/2022, 17:29:16",0.48705707584553,"25","Female","right",0,0,0,0,TRUE,"E_F_Julie_Walters.png P_M_Sajid_Javid.png"
2584,"P_M_david_camer.png","P_M_nigel_farage.png","TRUE","pictures/stimuli/P","pictures/stimuli/P","M","M","2","55cff4a834e9060012e57407","07/06/2022, 17:29:16",-1.25899659227995,"25","Female","right",1,1,0,0,TRUE,"P_M_david_camer.png P_M_nigel_farage.png"
3323,"E_M_Simon_Pegg.png","P_M_Sajid_Javid.png","FALSE","pictures/stimuli/E","pictures/stimuli/P","M","M","3","55cff4a834e9060012e57407","07/06/2022, 17:29:16",-0.676978702904792,"25","Female","right",1,0,0,0,TRUE,"E_M_Simon_Pegg.png P_M_Sajid_Javid.png"
4805,"E_F_Julie_Walters.png","E_M_Simon_Pegg.png","TRUE","pictures/stimuli/E","pictures/stimuli/E","F","M","5","55cff4a834e9060012e57407","07/06/2022, 17:29:16",0.48705707584553,"25","Female","right",0,1,0,0,TRUE,"E_F_Julie_Walters.png E_M_Simon_Pegg.png"
3206,"E_M_Michael_McIntyr.png","P_M_Sajid_Javid.png","FALSE","pictures/stimuli/E","pictures/stimuli/P","M","M","4","55cff4a834e9060012e57407","07/06/2022, 17:29:16",-0.0949608135296314,"25","Female","right",1,0,0,0,TRUE,"E_M_Michael_McIntyr.png P_M_Sajid_Javid.png"
4923,"E_F_Dawn_Roma_French.png","P_M_david_camer.png","FALSE","pictures/stimuli/E","pictures/stimuli/P","F","M","6","55cff4a834e9060012e57407","07/06/2022, 17:29:16",1.06907496522069,"25","Female","right",1,1,0,0,TRUE,"E_F_Dawn_Roma_French.png P_M_david_camer.png"
3544,"E_F_Dawn_Roma_French.png","E_M_Russell_Howard.png","TRUE","pictures/stimuli/E","pictures/stimuli/E","F","M","1","55cff4a834e9060012e57407","07/06/2022, 17:29:16",-1.84101448165511,"25","Female","right",1,1,0,0,TRUE,"E_F_Dawn_Roma_French.png E_M_Russell_Howard.png"
2900,"P_M_keir_starmer.png","P_M_Sajid_Javid.png","TRUE","pictures/stimuli/P","pictures/stimuli/P","M","M","5","55cff4a834e9060012e57407","07/06/2022, 17:29:16",0.48705707584553,"25","Female","right",0,0,0,0,TRUE,"P_M_keir_starmer.png P_M_Sajid_Javid.png"
2232,"E_M_Jimmy_Carr.png","P_M_Tony_Blair.png","FALSE","pictures/stimuli/E","pictures/stimuli/P","M","M","6","55cff4a834e9060012e57407","07/06/2022, 17:29:16",1.06907496522069,"25","Female","right",1,1,0,0,TRUE,"E_M_Jimmy_Carr.png P_M_Tony_Blair.png"
3067,"E_M_Peter_Kay.png","P_F_Theresa_May.png","FALSE","pictures/stimuli/E","pictures/stimuli/P","M","F","6","55cff4a834e9060012e57407","07/06/2022, 17:29:16",1.06907496522069,"25","Female","right",1,1,0,0,TRUE,"E_M_Peter_Kay.png P_F_Theresa_May.png"
2070,"E_M_Michael_McIntyr.png","E_M_Peter_Kay.png","TRUE","pictures/stimuli/E","pictures/stimuli/E","M","M","1","55cff4a834e9060012e57407","07/06/2022, 17:29:16",-1.84101448165511,"25","Female","right",1,1,0,0,TRUE,"E_M_Michael_McIntyr.png E_M_Peter_Kay.png"
2437,"E_M_Jimmy_Carr.png","P_F_Theresa_May.png","FALSE","pictures/stimuli/E","pictures/stimuli/P","M","F","6","55cff4a834e9060012e57407","07/06/2022, 17:29:16",1.06907496522069,"25","Female","right",1,1,0,0,TRUE,"E_M_Jimmy_Carr.png P_F_Theresa_May.png"
3068,"P_M_keir_starmer.png","P_M_nigel_farage.png","TRUE","pictures/stimuli/P","pictures/stimuli/P","M","M","2","55cff4a834e9060012e57407","07/06/2022, 17:29:16",-1.25899659227995,"25","Female","right",0,1,0,0,TRUE,"P_M_keir_starmer.png P_M_nigel_farage.png"
3103,"E_M_Peter_Kay.png","P_M_Tony_Blair.png","FALSE","pictures/stimuli/E","pictures/stimuli/P","M","M","5","55cff4a834e9060012e57407","07/06/2022, 17:29:16",0.48705707584553,"25","Female","right",1,1,0,0,TRUE,"E_M_Peter_Kay.png P_M_Tony_Blair.png"
2049,"E_F_Sarah_Millican.png","P_M_Gordon_Brown.png","FALSE","pictures/stimuli/E","pictures/stimuli/P","F","M","6","55cff4a834e9060012e57407","07/06/2022, 17:29:16",1.06907496522069,"25","Female","right",0,1,0,0,TRUE,"E_F_Sarah_Millican.png P_M_Gordon_Brown.png"
2484,"E_F_Julie_Walters.png","E_M_Michael_McIntyr.png","TRUE","pictures/stimuli/E","pictures/stimuli/E","F","M","5","55cff4a834e9060012e57407","07/06/2022, 17:29:16",0.48705707584553,"25","Female","right",0,1,0,0,TRUE,"E_F_Julie_Walters.png E_M_Michael_McIntyr.png"
3629,"E_M_Michael_McIntyr.png","P_M_keir_starmer.png","FALSE","pictures/stimuli/E","pictures/stimuli/P","M","M","5","55cff4a834e9060012e57407","07/06/2022, 17:29:16",0.48705707584553,"25","Female","right",1,0,0,0,TRUE,"E_M_Michael_McIntyr.png P_M_keir_starmer.png"
2687,"E_F_Jennifer_Saunders.png","E_M_Peter_Kay.png","TRUE","pictures/stimuli/E","pictures/stimuli/E","F","M","4","55cff4a834e9060012e57407","07/06/2022, 17:29:16",-0.0949608135296314,"25","Female","right",0,1,0,0,TRUE,"E_F_Jennifer_Saunders.png E_M_Peter_Kay.png"
2349,"P_F_Theresa_May.png","P_M_nigel_farage.png","TRUE","pictures/stimuli/P","pictures/stimuli/P","F","M","1","55cff4a834e9060012e57407","07/06/2022, 17:29:16",-1.84101448165511,"25","Female","right",1,1,0,0,TRUE,"P_F_Theresa_May.png P_M_nigel_farage.png"
2921,"E_M_Ewan_McGregor.png","E_M_Peter_Kay.png","TRUE","pictures/stimuli/E","pictures/stimuli/E","M","M","5","55cff4a834e9060012e57407","07/06/2022, 17:29:16",0.48705707584553,"25","Female","right",0,1,0,0,TRUE,"E_M_Ewan_McGregor.png E_M_Peter_Kay.png"
2752,"E_M_Simon_Pegg.png","P_M_Tony_Blair.png","FALSE","pictures/stimuli/E","pictures/stimuli/P","M","M","6","55cff4a834e9060012e57407","07/06/2022, 17:29:16",1.06907496522069,"25","Female","right",1,1,0,0,TRUE,"E_M_Simon_Pegg.png P_M_Tony_Blair.png"
2745,"E_F_Julie_Walters.png","E_M_Ewan_McGregor.png","TRUE","pictures/stimuli/E","pictures/stimuli/E","F","M","4","55cff4a834e9060012e57407","07/06/2022, 17:29:16",-0.0949608135296314,"25","Female","right",0,0,0,0,TRUE,"E_F_Julie_Walters.png E_M_Ewan_McGregor.png"
4291,"P_F_nicola_sturge.png","P_M_Tony_Blair.png","TRUE","pictures/stimuli/P","pictures/stimuli/P","F","M","5","55cff4a834e9060012e57407","07/06/2022, 17:29:16",0.48705707584553,"25","Female","right",1,1,0,0,TRUE,"P_F_nicola_sturge.png P_M_Tony_Blair.png"
1959,"E_F_Jennifer_Saunders.png","P_F_Theresa_May.png","FALSE","pictures/stimuli/E","pictures/stimuli/P","F","F","4","55cff4a834e9060012e57407","07/06/2022, 17:29:16",-0.0949608135296314,"25","Female","right",0,1,0,0,TRUE,"E_F_Jennifer_Saunders.png P_F_Theresa_May.png"
2180,"E_F_Sarah_Millican.png","E_M_Russell_Howard.png","TRUE","pictures/stimuli/E","pictures/stimuli/E","F","M","2","55cff4a834e9060012e57407","07/06/2022, 17:29:16",-1.25899659227995,"25","Female","right",0,1,0,0,TRUE,"E_F_Sarah_Millican.png E_M_Russell_Howard.png"
3067,"E_F_Dawn_Roma_French.png","E_M_Simon_Pegg.png","TRUE","pictures/stimuli/E","pictures/stimuli/E","F","M","2","55cff4a834e9060012e57407","07/06/2022, 17:29:16",-1.25899659227995,"25","Female","right",1,1,0,0,TRUE,"E_F_Dawn_Roma_French.png E_M_Simon_Pegg.png"
2753,"E_F_Julie_Walters.png","P_F_nicola_sturge.png","FALSE","pictures/stimuli/E","pictures/stimuli/P","F","F","5","55cff4a834e9060012e57407","07/06/2022, 17:29:16",0.48705707584553,"25","Female","right",0,1,0,0,TRUE,"E_F_Julie_Walters.png P_F_nicola_sturge.png"
2432,"E_F_Julie_Walters.png","E_M_Jimmy_Carr.png","TRUE","pictures/stimuli/E","pictures/stimuli/E","F","M","5","55cff4a834e9060012e57407","07/06/2022, 17:29:16",0.48705707584553,"25","Female","right",0,1,0,0,TRUE,"E_F_Julie_Walters.png E_M_Jimmy_Carr.png"
2085,"E_M_Jimmy_Carr.png","P_M_david_camer.png","FALSE","pictures/stimuli/E","pictures/stimuli/P","M","M","6","55cff4a834e9060012e57407","07/06/2022, 17:29:16",1.06907496522069,"25","Female","right",1,1,0,0,TRUE,"E_M_Jimmy_Carr.png P_M_david_camer.png"
2431,"E_M_Michael_McIntyr.png","E_M_Simon_Pegg.png","TRUE","pictures/stimuli/E","pictures/stimuli/E","M","M","1","55cff4a834e9060012e57407","07/06/2022, 17:29:16",-1.84101448165511,"25","Female","right",1,1,0,0,TRUE,"E_M_Michael_McIntyr.png E_M_Simon_Pegg.png"
2838,"E_M_Ewan_McGregor.png","P_F_Theresa_May.png","FALSE","pictures/stimuli/E","pictures/stimuli/P","M","F","2","55cff4a834e9060012e57407","07/06/2022, 17:29:16",-1.25899659227995,"25","Female","right",0,1,0,0,TRUE,"E_M_Ewan_McGregor.png P_F_Theresa_May.png"
1505,"E_M_Simon_Pegg.png","P_M_nigel_farage.png","FALSE","pictures/stimuli/E","pictures/stimuli/P","M","M","6","55cff4a834e9060012e57407","07/06/2022, 17:29:16",1.06907496522069,"25","Female","right",1,1,0,0,TRUE,"E_M_Simon_Pegg.png P_M_nigel_farage.png"
2115,"E_M_Peter_Kay.png","P_M_jeremy_corbyn.png","FALSE","pictures/stimuli/E","pictures/stimuli/P","M","M","3","55cff4a834e9060012e57407","07/06/2022, 17:29:16",-0.676978702904792,"25","Female","right",1,1,0,0,TRUE,"E_M_Peter_Kay.png P_M_jeremy_corbyn.png"
2393,"E_F_Julie_Walters.png","E_M_Russell_Howard.png","TRUE","pictures/stimuli/E","pictures/stimuli/E","F","M","5","55cff4a834e9060012e57407","07/06/2022, 17:29:16",0.48705707584553,"25","Female","right",0,1,0,0,TRUE,"E_F_Julie_Walters.png E_M_Russell_Howard.png"
1792,"E_F_Sarah_Millican.png","P_M_david_camer.png","FALSE","pictures/stimuli/E","pictures/stimuli/P","F","M","6","55cff4a834e9060012e57407","07/06/2022, 17:29:16",1.06907496522069,"25","Female","right",0,1,0,0,TRUE,"E_F_Sarah_Millican.png P_M_david_camer.png"
3024,"E_F_Julie_Walters.png","E_F_Sarah_Millican.png","TRUE","pictures/stimuli/E","pictures/stimuli/E","F","F","6","55cff4a834e9060012e57407","07/06/2022, 17:29:16",1.06907496522069,"25","Female","right",0,0,0,0,TRUE,"E_F_Julie_Walters.png E_F_Sarah_Millican.png"
1968,"E_M_Peter_Kay.png","P_M_Sajid_Javid.png","FALSE","pictures/stimuli/E","pictures/stimuli/P","M","M","3","55cff4a834e9060012e57407","07/06/2022, 17:29:16",-0.676978702904792,"25","Female","right",1,0,0,0,TRUE,"E_M_Peter_Kay.png P_M_Sajid_Javid.png"
2723,"E_M_Peter_Kay.png","E_M_Simon_Pegg.png","TRUE","pictures/stimuli/E","pictures/stimuli/E","M","M","2","55cff4a834e9060012e57407","07/06/2022, 17:29:16",-1.25899659227995,"25","Female","right",1,1,0,0,TRUE,"E_M_Peter_Kay.png E_M_Simon_Pegg.png"
1821,"E_M_Michael_McIntyr.png","P_M_david_camer.png","FALSE","pictures/stimuli/E","pictures/stimuli/P","M","M","6","55cff4a834e9060012e57407","07/06/2022, 17:29:16",1.06907496522069,"25","Female","right",1,1,0,0,TRUE,"E_M_Michael_McIntyr.png P_M_david_camer.png"
2945,"P_F_Theresa_May.png","P_M_jeremy_corbyn.png","TRUE","pictures/stimuli/P","pictures/stimuli/P","F","M","6","55cff4a834e9060012e57407","07/06/2022, 17:29:16",1.06907496522069,"25","Female","right",1,1,0,0,TRUE,"P_F_Theresa_May.png P_M_jeremy_corbyn.png"
2641,"E_M_Michael_McIntyr.png","P_M_jeremy_corbyn.png","FALSE","pictures/stimuli/E","pictures/stimuli/P","M","M","3","55cff4a834e9060012e57407","07/06/2022, 17:29:16",-0.676978702904792,"25","Female","right",1,1,0,0,TRUE,"E_M_Michael_McIntyr.png P_M_jeremy_corbyn.png"
4593,"E_M_Jimmy_Carr.png","E_M_Michael_McIntyr.png","TRUE","pictures/stimuli/E","pictures/stimuli/E","M","M","1","55cff4a834e9060012e57407","07/06/2022, 17:29:16",-1.84101448165511,"25","Female","right",1,1,0,0,TRUE,"E_M_Jimmy_Carr.png E_M_Michael_McIntyr.png"
1918,"E_M_Peter_Kay.png","P_M_david_camer.png","FALSE","pictures/stimuli/E","pictures/stimuli/P","M","M","6","55cff4a834e9060012e57407","07/06/2022, 17:29:16",1.06907496522069,"25","Female","right",1,1,0,0,TRUE,"E_M_Peter_Kay.png P_M_david_camer.png"
1850,"P_F_Theresa_May.png","P_M_david_camer.png","TRUE","pictures/stimuli/P","pictures/stimuli/P","F","M","1","55cff4a834e9060012e57407","07/06/2022, 17:29:16",-1.84101448165511,"25","Female","right",1,1,0,0,TRUE,"P_F_Theresa_May.png P_M_david_camer.png"
1887,"E_F_Jennifer_Saunders.png","E_M_Simon_Pegg.png","TRUE","pictures/stimuli/E","pictures/stimuli/E","F","M","5","55cff4a834e9060012e57407","07/06/2022, 17:29:16",0.48705707584553,"25","Female","right",0,1,0,0,TRUE,"E_F_Jennifer_Saunders.png E_M_Simon_Pegg.png"
1851,"E_F_Jennifer_Saunders.png","P_M_Michael_Gove.png","FALSE","pictures/stimuli/E","pictures/stimuli/P","F","M","6","55cff4a834e9060012e57407","07/06/2022, 17:29:16",1.06907496522069,"25","Female","right",0,0,0,0,TRUE,"E_F_Jennifer_Saunders.png P_M_Michael_Gove.png"
2225,"E_M_Ewan_McGregor.png","E_M_Jimmy_Carr.png","TRUE","pictures/stimuli/E","pictures/stimuli/E","M","M","6","55cff4a834e9060012e57407","07/06/2022, 17:29:16",1.06907496522069,"25","Female","right",0,1,0,0,TRUE,"E_M_Ewan_McGregor.png E_M_Jimmy_Carr.png"
2745,"E_F_Dawn_Roma_French.png","E_M_Jimmy_Carr.png","TRUE","pictures/stimuli/E","pictures/stimuli/E","F","M","2","55cff4a834e9060012e57407","07/06/2022, 17:29:16",-1.25899659227995,"25","Female","right",1,1,0,0,TRUE,"E_F_Dawn_Roma_French.png E_M_Jimmy_Carr.png"
1786,"E_M_Ewan_McGregor.png","P_M_Sajid_Javid.png","FALSE","pictures/stimuli/E","pictures/stimuli/P","M","M","5","55cff4a834e9060012e57407","07/06/2022, 17:29:16",0.48705707584553,"25","Female","right",0,0,0,0,TRUE,"E_M_Ewan_McGregor.png P_M_Sajid_Javid.png"
2004,"E_F_Julie_Walters.png","E_M_Peter_Kay.png","TRUE","pictures/stimuli/E","pictures/stimuli/E","F","M","5","55cff4a834e9060012e57407","07/06/2022, 17:29:16",0.48705707584553,"25","Female","right",0,1,0,0,TRUE,"E_F_Julie_Walters.png E_M_Peter_Kay.png"
2114,"E_F_Sarah_Millican.png","P_M_keir_starmer.png","FALSE","pictures/stimuli/E","pictures/stimuli/P","F","M","6","55cff4a834e9060012e57407","07/06/2022, 17:29:16",1.06907496522069,"25","Female","right",0,0,0,0,TRUE,"E_F_Sarah_Millican.png P_M_keir_starmer.png"
1674,"P_F_Theresa_May.png","P_M_Tony_Blair.png","TRUE","pictures/stimuli/P","pictures/stimuli/P","F","M","1","55cff4a834e9060012e57407","07/06/2022, 17:29:16",-1.84101448165511,"25","Female","right",1,1,0,0,TRUE,"P_F_Theresa_May.png P_M_Tony_Blair.png"
2629,"E_F_Jennifer_Saunders.png","E_M_Ewan_McGregor.png","TRUE","pictures/stimuli/E","pictures/stimuli/E","F","M","5","55cff4a834e9060012e57407","07/06/2022, 17:29:16",0.48705707584553,"25","Female","right",0,0,0,0,TRUE,"E_F_Jennifer_Saunders.png E_M_Ewan_McGregor.png"
2446,"E_M_Russell_Howard.png","E_M_Simon_Pegg.png","TRUE","pictures/stimuli/E","pictures/stimuli/E","M","M","1","55cff4a834e9060012e57407","07/06/2022, 17:29:16",-1.84101448165511,"25","Female","right",1,1,0,0,TRUE,"E_M_Russell_Howard.png E_M_Simon_Pegg.png"
2117,"E_M_Jimmy_Carr.png","P_M_keir_starmer.png","FALSE","pictures/stimuli/E","pictures/stimuli/P","M","M","5","55cff4a834e9060012e57407","07/06/2022, 17:29:16",0.48705707584553,"25","Female","right",1,0,0,0,TRUE,"E_M_Jimmy_Carr.png P_M_keir_starmer.png"
1878,"E_M_Russell_Howard.png","P_M_david_camer.png","FALSE","pictures/stimuli/E","pictures/stimuli/P","M","M","6","55cff4a834e9060012e57407","07/06/2022, 17:29:16",1.06907496522069,"25","Female","right",1,1,0,0,TRUE,"E_M_Russell_Howard.png P_M_david_camer.png"
9668,"P_M_Gordon_Brown.png","P_M_Sajid_Javid.png","TRUE","pictures/stimuli/P","pictures/stimuli/P","M","M","5","55cff4a834e9060012e57407","07/06/2022, 17:29:16",0.48705707584553,"25","Female","right",1,0,0,0,TRUE,"P_M_Gordon_Brown.png P_M_Sajid_Javid.png"
19561,"E_M_Ewan_McGregor.png","E_M_Simon_Pegg.png","TRUE","pictures/stimuli/E","pictures/stimuli/E","M","M","4","56b12c0e9f1826000cbcc76c","07/06/2022, 17:37:42",-0.271559891202565,"33","Female","right",1,1,0,0,FALSE,"E_M_Ewan_McGregor.png E_M_Simon_Pegg.png"
4981,"E_F_Jennifer_Saunders.png","P_F_Theresa_May.png","FALSE","pictures/stimuli/E","pictures/stimuli/P","F","F","2","56b12c0e9f1826000cbcc76c","07/06/2022, 17:37:42",-1.47147568953948,"33","Female","right",1,1,0,0,FALSE,"E_F_Jennifer_Saunders.png P_F_Theresa_May.png"
9493,"E_F_Julie_Walters.png","P_M_Michael_Gove.png","FALSE","pictures/stimuli/E","pictures/stimuli/P","F","M","4","56b12c0e9f1826000cbcc76c","07/06/2022, 17:37:42",-0.271559891202565,"33","Female","right",1,0,0,0,TRUE,"E_F_Julie_Walters.png P_M_Michael_Gove.png"
6340,"E_M_Peter_Kay.png","P_M_Sajid_Javid.png","FALSE","pictures/stimuli/E","pictures/stimuli/P","M","M","6","56b12c0e9f1826000cbcc76c","07/06/2022, 17:37:42",0.928355907134349,"33","Female","right",1,1,0,0,FALSE,"E_M_Peter_Kay.png P_M_Sajid_Javid.png"
9349,"P_M_Michael_Gove.png","P_M_Sajid_Javid.png","TRUE","pictures/stimuli/P","pictures/stimuli/P","M","M","6","56b12c0e9f1826000cbcc76c","07/06/2022, 17:37:42",0.928355907134349,"33","Female","right",0,1,0,0,TRUE,"P_M_Michael_Gove.png P_M_Sajid_Javid.png"
3507,"E_F_Sarah_Millican.png","P_M_jeremy_corbyn.png","FALSE","pictures/stimuli/E","pictures/stimuli/P","F","M","6","56b12c0e9f1826000cbcc76c","07/06/2022, 17:37:42",0.928355907134349,"33","Female","right",1,1,0,0,FALSE,"E_F_Sarah_Millican.png P_M_jeremy_corbyn.png"
10604,"E_F_Jennifer_Saunders.png","E_M_Michael_McIntyr.png","TRUE","pictures/stimuli/E","pictures/stimuli/E","F","M","6","56b12c0e9f1826000cbcc76c","07/06/2022, 17:37:42",0.928355907134349,"33","Female","right",1,1,0,0,FALSE,"E_F_Jennifer_Saunders.png E_M_Michael_McIntyr.png"
5123,"E_M_Jimmy_Carr.png","E_M_Russell_Howard.png","TRUE","pictures/stimuli/E","pictures/stimuli/E","M","M","6","56b12c0e9f1826000cbcc76c","07/06/2022, 17:37:42",0.928355907134349,"33","Female","right",1,1,0,0,FALSE,"E_M_Jimmy_Carr.png E_M_Russell_Howard.png"
2826,"E_M_Simon_Pegg.png","P_M_jeremy_corbyn.png","FALSE","pictures/stimuli/E","pictures/stimuli/P","M","M","6","56b12c0e9f1826000cbcc76c","07/06/2022, 17:37:42",0.928355907134349,"33","Female","right",1,1,0,0,FALSE,"E_M_Simon_Pegg.png P_M_jeremy_corbyn.png"
3733,"E_M_Russell_Howard.png","P_M_jeremy_corbyn.png","FALSE","pictures/stimuli/E","pictures/stimuli/P","M","M","5","56b12c0e9f1826000cbcc76c","07/06/2022, 17:37:42",0.328398007965892,"33","Female","right",1,1,0,0,FALSE,"E_M_Russell_Howard.png P_M_jeremy_corbyn.png"
3026,"E_F_Jennifer_Saunders.png","E_F_Julie_Walters.png","TRUE","pictures/stimuli/E","pictures/stimuli/E","F","F","2","56b12c0e9f1826000cbcc76c","07/06/2022, 17:37:42",-1.47147568953948,"33","Female","right",1,1,0,0,FALSE,"E_F_Jennifer_Saunders.png E_F_Julie_Walters.png"
10695,"E_M_Simon_Pegg.png","P_F_Theresa_May.png","FALSE","pictures/stimuli/E","pictures/stimuli/P","M","F","4","56b12c0e9f1826000cbcc76c","07/06/2022, 17:37:42",-0.271559891202565,"33","Female","right",1,1,0,0,FALSE,"E_M_Simon_Pegg.png P_F_Theresa_May.png"
3713,"P_M_jeremy_corbyn.png","P_M_Sajid_Javid.png","TRUE","pictures/stimuli/P","pictures/stimuli/P","M","M","6","56b12c0e9f1826000cbcc76c","07/06/2022, 17:37:42",0.928355907134349,"33","Female","right",1,1,0,0,FALSE,"P_M_jeremy_corbyn.png P_M_Sajid_Javid.png"
5368,"E_F_Sarah_Millican.png","E_M_Jimmy_Carr.png","TRUE","pictures/stimuli/E","pictures/stimuli/E","F","M","6","56b12c0e9f1826000cbcc76c","07/06/2022, 17:37:42",0.928355907134349,"33","Female","right",1,1,0,0,FALSE,"E_F_Sarah_Millican.png E_M_Jimmy_Carr.png"
9315,"E_F_Dawn_Roma_French.png","P_F_nicola_sturge.png","FALSE","pictures/stimuli/E","pictures/stimuli/P","F","F","5","56b12c0e9f1826000cbcc76c","07/06/2022, 17:37:42",0.328398007965892,"33","Female","right",1,1,0,0,FALSE,"E_F_Dawn_Roma_French.png P_F_nicola_sturge.png"
9211,"E_M_Simon_Pegg.png","P_M_nigel_farage.png","FALSE","pictures/stimuli/E","pictures/stimuli/P","M","M","5","56b12c0e9f1826000cbcc76c","07/06/2022, 17:37:42",0.328398007965892,"33","Female","right",1,1,0,0,FALSE,"E_M_Simon_Pegg.png P_M_nigel_farage.png"
2574,"E_M_Peter_Kay.png","P_F_Theresa_May.png","FALSE","pictures/stimuli/E","pictures/stimuli/P","M","F","6","56b12c0e9f1826000cbcc76c","07/06/2022, 17:37:42",0.928355907134349,"33","Female","right",1,1,0,0,FALSE,"E_M_Peter_Kay.png P_F_Theresa_May.png"
2734,"E_M_Simon_Pegg.png","P_F_nicola_sturge.png","FALSE","pictures/stimuli/E","pictures/stimuli/P","M","F","6","56b12c0e9f1826000cbcc76c","07/06/2022, 17:37:42",0.928355907134349,"33","Female","right",1,1,0,0,FALSE,"E_M_Simon_Pegg.png P_F_nicola_sturge.png"
3429,"E_F_Sarah_Millican.png","P_F_nicola_sturge.png","FALSE","pictures/stimuli/E","pictures/stimuli/P","F","F","6","56b12c0e9f1826000cbcc76c","07/06/2022, 17:37:42",0.928355907134349,"33","Female","right",1,1,0,0,FALSE,"E_F_Sarah_Millican.png P_F_nicola_sturge.png"
16397,"E_F_Julie_Walters.png","E_M_Peter_Kay.png","TRUE","pictures/stimuli/E","pictures/stimuli/E","F","M","6","56b12c0e9f1826000cbcc76c","07/06/2022, 17:37:42",0.928355907134349,"33","Female","right",1,1,0,0,FALSE,"E_F_Julie_Walters.png E_M_Peter_Kay.png"
15909,"P_M_nigel_farage.png","P_M_Sajid_Javid.png","TRUE","pictures/stimuli/P","pictures/stimuli/P","M","M","6","56b12c0e9f1826000cbcc76c","07/06/2022, 17:37:42",0.928355907134349,"33","Female","right",1,1,0,0,FALSE,"P_M_nigel_farage.png P_M_Sajid_Javid.png"
2692,"E_F_Dawn_Roma_French.png","E_M_Simon_Pegg.png","TRUE","pictures/stimuli/E","pictures/stimuli/E","F","M","6","56b12c0e9f1826000cbcc76c","07/06/2022, 17:37:42",0.928355907134349,"33","Female","right",1,1,0,0,FALSE,"E_F_Dawn_Roma_French.png E_M_Simon_Pegg.png"
8275,"E_M_Russell_Howard.png","P_M_nigel_farage.png","FALSE","pictures/stimuli/E","pictures/stimuli/P","M","M","6","56b12c0e9f1826000cbcc76c","07/06/2022, 17:37:42",0.928355907134349,"33","Female","right",1,1,0,0,FALSE,"E_M_Russell_Howard.png P_M_nigel_farage.png"
3659,"P_F_nicola_sturge.png","P_M_david_camer.png","TRUE","pictures/stimuli/P","pictures/stimuli/P","F","M","6","56b12c0e9f1826000cbcc76c","07/06/2022, 17:37:42",0.928355907134349,"33","Female","right",1,1,0,0,FALSE,"P_F_nicola_sturge.png P_M_david_camer.png"
22004,"E_F_Jennifer_Saunders.png","E_M_Peter_Kay.png","TRUE","pictures/stimuli/E","pictures/stimuli/E","F","M","6","56b12c0e9f1826000cbcc76c","07/06/2022, 17:37:42",0.928355907134349,"33","Female","right",1,1,0,0,FALSE,"E_F_Jennifer_Saunders.png E_M_Peter_Kay.png"
2698,"E_M_Ewan_McGregor.png","E_M_Michael_McIntyr.png","TRUE","pictures/stimuli/E","pictures/stimuli/E","M","M","5","56b12c0e9f1826000cbcc76c","07/06/2022, 17:37:42",0.328398007965892,"33","Female","right",1,1,0,0,FALSE,"E_M_Ewan_McGregor.png E_M_Michael_McIntyr.png"
8527,"E_M_Ewan_McGregor.png","P_F_Theresa_May.png","FALSE","pictures/stimuli/E","pictures/stimuli/P","M","F","6","56b12c0e9f1826000cbcc76c","07/06/2022, 17:37:42",0.928355907134349,"33","Female","right",1,1,0,0,FALSE,"E_M_Ewan_McGregor.png P_F_Theresa_May.png"
4014,"E_F_Jennifer_Saunders.png","P_M_Gordon_Brown.png","FALSE","pictures/stimuli/E","pictures/stimuli/P","F","M","6","56b12c0e9f1826000cbcc76c","07/06/2022, 17:37:42",0.928355907134349,"33","Female","right",1,1,0,0,FALSE,"E_F_Jennifer_Saunders.png P_M_Gordon_Brown.png"
3483,"E_F_Dawn_Roma_French.png","E_M_Ewan_McGregor.png","TRUE","pictures/stimuli/E","pictures/stimuli/E","F","M","6","56b12c0e9f1826000cbcc76c","07/06/2022, 17:37:42",0.928355907134349,"33","Female","right",1,1,0,0,FALSE,"E_F_Dawn_Roma_French.png E_M_Ewan_McGregor.png"
2439,"E_F_Sarah_Millican.png","P_M_Gordon_Brown.png","FALSE","pictures/stimuli/E","pictures/stimuli/P","F","M","6","56b12c0e9f1826000cbcc76c","07/06/2022, 17:37:42",0.928355907134349,"33","Female","right",1,1,0,0,FALSE,"E_F_Sarah_Millican.png P_M_Gordon_Brown.png"
3264,"E_M_Jimmy_Carr.png","E_M_Peter_Kay.png","TRUE","pictures/stimuli/E","pictures/stimuli/E","M","M","2","56b12c0e9f1826000cbcc76c","07/06/2022, 17:37:42",-1.47147568953948,"33","Female","right",1,1,0,0,FALSE,"E_M_Jimmy_Carr.png E_M_Peter_Kay.png"
3825,"E_M_Jimmy_Carr.png","P_M_Gordon_Brown.png","FALSE","pictures/stimuli/E","pictures/stimuli/P","M","M","2","56b12c0e9f1826000cbcc76c","07/06/2022, 17:37:42",-1.47147568953948,"33","Female","right",1,1,0,0,FALSE,"E_M_Jimmy_Carr.png P_M_Gordon_Brown.png"
4342,"E_F_Dawn_Roma_French.png","P_M_Sajid_Javid.png","FALSE","pictures/stimuli/E","pictures/stimuli/P","F","M","6","56b12c0e9f1826000cbcc76c","07/06/2022, 17:37:42",0.928355907134349,"33","Female","right",1,1,0,0,FALSE,"E_F_Dawn_Roma_French.png P_M_Sajid_Javid.png"
24324,"P_M_Gordon_Brown.png","P_M_jeremy_corbyn.png","TRUE","pictures/stimuli/P","pictures/stimuli/P","M","M","2","56b12c0e9f1826000cbcc76c","07/06/2022, 17:37:42",-1.47147568953948,"33","Female","right",1,1,0,0,FALSE,"P_M_Gordon_Brown.png P_M_jeremy_corbyn.png"
34465,"E_M_Jimmy_Carr.png","P_F_Theresa_May.png","FALSE","pictures/stimuli/E","pictures/stimuli/P","M","F","6","56b12c0e9f1826000cbcc76c","07/06/2022, 17:37:42",0.928355907134349,"33","Female","right",1,1,0,0,TRUE,"E_M_Jimmy_Carr.png P_F_Theresa_May.png"
7427,"E_F_Julie_Walters.png","P_M_keir_starmer.png","FALSE","pictures/stimuli/E","pictures/stimuli/P","F","M","3","56b12c0e9f1826000cbcc76c","07/06/2022, 17:37:42",-0.871517790371022,"33","Female","right",1,1,0,0,FALSE,"E_F_Julie_Walters.png P_M_keir_starmer.png"
3595,"E_F_Dawn_Roma_French.png","P_M_Tony_Blair.png","FALSE","pictures/stimuli/E","pictures/stimuli/P","F","M","6","56b12c0e9f1826000cbcc76c","07/06/2022, 17:37:42",0.928355907134349,"33","Female","right",1,1,0,0,FALSE,"E_F_Dawn_Roma_French.png P_M_Tony_Blair.png"
2285,"E_F_Dawn_Roma_French.png","P_M_nigel_farage.png","FALSE","pictures/stimuli/E","pictures/stimuli/P","F","M","6","56b12c0e9f1826000cbcc76c","07/06/2022, 17:37:42",0.928355907134349,"33","Female","right",1,1,0,0,FALSE,"E_F_Dawn_Roma_French.png P_M_nigel_farage.png"
2637,"E_F_Sarah_Millican.png","P_M_Michael_Gove.png","FALSE","pictures/stimuli/E","pictures/stimuli/P","F","M","6","56b12c0e9f1826000cbcc76c","07/06/2022, 17:37:42",0.928355907134349,"33","Female","right",1,0,0,0,TRUE,"E_F_Sarah_Millican.png P_M_Michael_Gove.png"
27587,"P_M_jeremy_corbyn.png","P_M_nigel_farage.png","TRUE","pictures/stimuli/P","pictures/stimuli/P","M","M","2","56b12c0e9f1826000cbcc76c","07/06/2022, 17:37:42",-1.47147568953948,"33","Female","right",1,1,0,0,FALSE,"P_M_jeremy_corbyn.png P_M_nigel_farage.png"
5243,"P_F_nicola_sturge.png","P_M_keir_starmer.png","TRUE","pictures/stimuli/P","pictures/stimuli/P","F","M","3","56b12c0e9f1826000cbcc76c","07/06/2022, 17:37:42",-0.871517790371022,"33","Female","right",1,1,0,0,FALSE,"P_F_nicola_sturge.png P_M_keir_starmer.png"
4053,"P_F_Theresa_May.png","P_M_david_camer.png","TRUE","pictures/stimuli/P","pictures/stimuli/P","F","M","5","56b12c0e9f1826000cbcc76c","07/06/2022, 17:37:42",0.328398007965892,"33","Female","right",1,1,0,0,FALSE,"P_F_Theresa_May.png P_M_david_camer.png"
10063,"E_M_Jimmy_Carr.png","P_M_keir_starmer.png","FALSE","pictures/stimuli/E","pictures/stimuli/P","M","M","2","56b12c0e9f1826000cbcc76c","07/06/2022, 17:37:42",-1.47147568953948,"33","Female","right",1,1,0,0,FALSE,"E_M_Jimmy_Carr.png P_M_keir_starmer.png"
4572,"P_F_nicola_sturge.png","P_M_Gordon_Brown.png","TRUE","pictures/stimuli/P","pictures/stimuli/P","F","M","3","56b12c0e9f1826000cbcc76c","07/06/2022, 17:37:42",-0.871517790371022,"33","Female","right",1,1,0,0,FALSE,"P_F_nicola_sturge.png P_M_Gordon_Brown.png"
6476,"E_M_Ewan_McGregor.png","P_M_Gordon_Brown.png","FALSE","pictures/stimuli/E","pictures/stimuli/P","M","M","3","56b12c0e9f1826000cbcc76c","07/06/2022, 17:37:42",-0.871517790371022,"33","Female","right",1,1,0,0,FALSE,"E_M_Ewan_McGregor.png P_M_Gordon_Brown.png"
2731,"P_F_nicola_sturge.png","P_M_Sajid_Javid.png","TRUE","pictures/stimuli/P","pictures/stimuli/P","F","M","6","56b12c0e9f1826000cbcc76c","07/06/2022, 17:37:42",0.928355907134349,"33","Female","right",1,1,0,0,FALSE,"P_F_nicola_sturge.png P_M_Sajid_Javid.png"
8925,"E_F_Sarah_Millican.png","E_M_Michael_McIntyr.png","TRUE","pictures/stimuli/E","pictures/stimuli/E","F","M","6","56b12c0e9f1826000cbcc76c","07/06/2022, 17:37:42",0.928355907134349,"33","Female","right",1,1,0,0,FALSE,"E_F_Sarah_Millican.png E_M_Michael_McIntyr.png"
4172,"E_F_Julie_Walters.png","P_M_david_camer.png","FALSE","pictures/stimuli/E","pictures/stimuli/P","F","M","4","56b12c0e9f1826000cbcc76c","07/06/2022, 17:37:42",-0.271559891202565,"33","Female","right",1,1,0,0,FALSE,"E_F_Julie_Walters.png P_M_david_camer.png"
14941,"P_M_keir_starmer.png","P_M_nigel_farage.png","TRUE","pictures/stimuli/P","pictures/stimuli/P","M","M","3","56b12c0e9f1826000cbcc76c","07/06/2022, 17:37:42",-0.871517790371022,"33","Female","right",1,1,0,0,FALSE,"P_M_keir_starmer.png P_M_nigel_farage.png"
47930,"E_F_Jennifer_Saunders.png","P_F_nicola_sturge.png","FALSE","pictures/stimuli/E","pictures/stimuli/P","F","F","5","56b12c0e9f1826000cbcc76c","07/06/2022, 17:37:42",0.328398007965892,"33","Female","right",1,1,0,0,TRUE,"E_F_Jennifer_Saunders.png P_F_nicola_sturge.png"
2975,"P_M_jeremy_corbyn.png","P_M_Tony_Blair.png","TRUE","pictures/stimuli/P","pictures/stimuli/P","M","M","2","56b12c0e9f1826000cbcc76c","07/06/2022, 17:37:42",-1.47147568953948,"33","Female","right",1,1,0,0,FALSE,"P_M_jeremy_corbyn.png P_M_Tony_Blair.png"
8134,"P_M_david_camer.png","P_M_Michael_Gove.png","TRUE","pictures/stimuli/P","pictures/stimuli/P","M","M","3","56b12c0e9f1826000cbcc76c","07/06/2022, 17:37:42",-0.871517790371022,"33","Female","right",1,0,0,0,TRUE,"P_M_david_camer.png P_M_Michael_Gove.png"
17336,"E_F_Jennifer_Saunders.png","P_M_Sajid_Javid.png","FALSE","pictures/stimuli/E","pictures/stimuli/P","F","M","6","56b12c0e9f1826000cbcc76c","07/06/2022, 17:37:42",0.928355907134349,"33","Female","right",1,1,0,0,FALSE,"E_F_Jennifer_Saunders.png P_M_Sajid_Javid.png"
21794,"E_M_Russell_Howard.png","P_M_Michael_Gove.png","FALSE","pictures/stimuli/E","pictures/stimuli/P","M","M","3","56b12c0e9f1826000cbcc76c","07/06/2022, 17:37:42",-0.871517790371022,"33","Female","right",1,0,0,0,TRUE,"E_M_Russell_Howard.png P_M_Michael_Gove.png"
9234,"E_M_Simon_Pegg.png","P_M_Gordon_Brown.png","FALSE","pictures/stimuli/E","pictures/stimuli/P","M","M","5","56b12c0e9f1826000cbcc76c","07/06/2022, 17:37:42",0.328398007965892,"33","Female","right",1,1,0,0,FALSE,"E_M_Simon_Pegg.png P_M_Gordon_Brown.png"
11231,"E_F_Jennifer_Saunders.png","P_M_david_camer.png","FALSE","pictures/stimuli/E","pictures/stimuli/P","F","M","5","56b12c0e9f1826000cbcc76c","07/06/2022, 17:37:42",0.328398007965892,"33","Female","right",1,1,0,0,FALSE,"E_F_Jennifer_Saunders.png P_M_david_camer.png"
4145,"E_M_Ewan_McGregor.png","P_F_nicola_sturge.png","FALSE","pictures/stimuli/E","pictures/stimuli/P","M","F","5","56b12c0e9f1826000cbcc76c","07/06/2022, 17:37:42",0.328398007965892,"33","Female","right",1,1,0,0,FALSE,"E_M_Ewan_McGregor.png P_F_nicola_sturge.png"
3839,"P_F_nicola_sturge.png","P_M_nigel_farage.png","TRUE","pictures/stimuli/P","pictures/stimuli/P","F","M","3","56b12c0e9f1826000cbcc76c","07/06/2022, 17:37:42",-0.871517790371022,"33","Female","right",1,1,0,0,FALSE,"P_F_nicola_sturge.png P_M_nigel_farage.png"
6753,"E_F_Dawn_Roma_French.png","E_M_Russell_Howard.png","TRUE","pictures/stimuli/E","pictures/stimuli/E","F","M","3","56b12c0e9f1826000cbcc76c","07/06/2022, 17:37:42",-0.871517790371022,"33","Female","right",1,1,0,0,FALSE,"E_F_Dawn_Roma_French.png E_M_Russell_Howard.png"
3978,"P_F_Theresa_May.png","P_M_Sajid_Javid.png","TRUE","pictures/stimuli/P","pictures/stimuli/P","F","M","3","56b12c0e9f1826000cbcc76c","07/06/2022, 17:37:42",-0.871517790371022,"33","Female","right",1,1,0,0,FALSE,"P_F_Theresa_May.png P_M_Sajid_Javid.png"
3270,"P_M_nigel_farage.png","P_M_Tony_Blair.png","TRUE","pictures/stimuli/P","pictures/stimuli/P","M","M","3","56b12c0e9f1826000cbcc76c","07/06/2022, 17:37:42",-0.871517790371022,"33","Female","right",1,1,0,0,FALSE,"P_M_nigel_farage.png P_M_Tony_Blair.png"
4942,"E_F_Julie_Walters.png","E_M_Michael_McIntyr.png","TRUE","pictures/stimuli/E","pictures/stimuli/E","F","M","5","56b12c0e9f1826000cbcc76c","07/06/2022, 17:37:42",0.328398007965892,"33","Female","right",1,1,0,0,FALSE,"E_F_Julie_Walters.png E_M_Michael_McIntyr.png"
21133,"E_F_Sarah_Millican.png","P_M_Sajid_Javid.png","FALSE","pictures/stimuli/E","pictures/stimuli/P","F","M","6","56b12c0e9f1826000cbcc76c","07/06/2022, 17:37:42",0.928355907134349,"33","Female","right",1,1,0,0,FALSE,"E_F_Sarah_Millican.png P_M_Sajid_Javid.png"
4216,"E_M_Peter_Kay.png","P_M_jeremy_corbyn.png","FALSE","pictures/stimuli/E","pictures/stimuli/P","M","M","6","56b12c0e9f1826000cbcc76c","07/06/2022, 17:37:42",0.928355907134349,"33","Female","right",1,1,0,0,FALSE,"E_M_Peter_Kay.png P_M_jeremy_corbyn.png"
3273,"E_M_Simon_Pegg.png","P_M_david_camer.png","FALSE","pictures/stimuli/E","pictures/stimuli/P","M","M","6","56b12c0e9f1826000cbcc76c","07/06/2022, 17:37:42",0.928355907134349,"33","Female","right",1,1,0,0,FALSE,"E_M_Simon_Pegg.png P_M_david_camer.png"
11236,"E_F_Jennifer_Saunders.png","P_M_keir_starmer.png","FALSE","pictures/stimuli/E","pictures/stimuli/P","F","M","6","56b12c0e9f1826000cbcc76c","07/06/2022, 17:37:42",0.928355907134349,"33","Female","right",1,1,0,0,FALSE,"E_F_Jennifer_Saunders.png P_M_keir_starmer.png"
2867,"E_F_Dawn_Roma_French.png","P_M_keir_starmer.png","FALSE","pictures/stimuli/E","pictures/stimuli/P","F","M","6","56b12c0e9f1826000cbcc76c","07/06/2022, 17:37:42",0.928355907134349,"33","Female","right",1,1,0,0,FALSE,"E_F_Dawn_Roma_French.png P_M_keir_starmer.png"
4651,"E_M_Russell_Howard.png","E_M_Simon_Pegg.png","TRUE","pictures/stimuli/E","pictures/stimuli/E","M","M","2","56b12c0e9f1826000cbcc76c","07/06/2022, 17:37:42",-1.47147568953948,"33","Female","right",1,1,0,0,FALSE,"E_M_Russell_Howard.png E_M_Simon_Pegg.png"
2721,"E_F_Sarah_Millican.png","P_F_Theresa_May.png","FALSE","pictures/stimuli/E","pictures/stimuli/P","F","F","6","56b12c0e9f1826000cbcc76c","07/06/2022, 17:37:42",0.928355907134349,"33","Female","right",1,1,0,0,FALSE,"E_F_Sarah_Millican.png P_F_Theresa_May.png"
3807,"E_M_Michael_McIntyr.png","P_F_nicola_sturge.png","FALSE","pictures/stimuli/E","pictures/stimuli/P","M","F","6","56b12c0e9f1826000cbcc76c","07/06/2022, 17:37:42",0.928355907134349,"33","Female","right",1,1,0,0,FALSE,"E_M_Michael_McIntyr.png P_F_nicola_sturge.png"
6361,"E_M_Russell_Howard.png","P_M_Tony_Blair.png","FALSE","pictures/stimuli/E","pictures/stimuli/P","M","M","6","56b12c0e9f1826000cbcc76c","07/06/2022, 17:37:42",0.928355907134349,"33","Female","right",1,1,0,0,FALSE,"E_M_Russell_Howard.png P_M_Tony_Blair.png"
3297,"E_M_Jimmy_Carr.png","P_M_Sajid_Javid.png","FALSE","pictures/stimuli/E","pictures/stimuli/P","M","M","6","56b12c0e9f1826000cbcc76c","07/06/2022, 17:37:42",0.928355907134349,"33","Female","right",1,1,0,0,FALSE,"E_M_Jimmy_Carr.png P_M_Sajid_Javid.png"
3599,"E_F_Jennifer_Saunders.png","E_M_Ewan_McGregor.png","TRUE","pictures/stimuli/E","pictures/stimuli/E","F","M","4","56b12c0e9f1826000cbcc76c","07/06/2022, 17:37:42",-0.271559891202565,"33","Female","right",1,1,0,0,FALSE,"E_F_Jennifer_Saunders.png E_M_Ewan_McGregor.png"
2466,"E_F_Sarah_Millican.png","P_M_Tony_Blair.png","FALSE","pictures/stimuli/E","pictures/stimuli/P","F","M","6","56b12c0e9f1826000cbcc76c","07/06/2022, 17:37:42",0.928355907134349,"33","Female","right",1,1,0,0,FALSE,"E_F_Sarah_Millican.png P_M_Tony_Blair.png"
6535,"P_M_Sajid_Javid.png","P_M_Tony_Blair.png","TRUE","pictures/stimuli/P","pictures/stimuli/P","M","M","3","56b12c0e9f1826000cbcc76c","07/06/2022, 17:37:42",-0.871517790371022,"33","Female","right",1,1,0,0,FALSE,"P_M_Sajid_Javid.png P_M_Tony_Blair.png"
14096,"E_F_Sarah_Millican.png","E_M_Peter_Kay.png","TRUE","pictures/stimuli/E","pictures/stimuli/E","F","M","3","56b12c0e9f1826000cbcc76c","07/06/2022, 17:37:42",-0.871517790371022,"33","Female","right",1,1,0,0,FALSE,"E_F_Sarah_Millican.png E_M_Peter_Kay.png"
5315,"E_F_Dawn_Roma_French.png","P_M_Michael_Gove.png","FALSE","pictures/stimuli/E","pictures/stimuli/P","F","M","5","56b12c0e9f1826000cbcc76c","07/06/2022, 17:37:42",0.328398007965892,"33","Female","right",1,0,0,0,TRUE,"E_F_Dawn_Roma_French.png P_M_Michael_Gove.png"
5968,"E_M_Jimmy_Carr.png","P_M_Michael_Gove.png","FALSE","pictures/stimuli/E","pictures/stimuli/P","M","M","5","56b12c0e9f1826000cbcc76c","07/06/2022, 17:37:42",0.328398007965892,"33","Female","right",1,0,0,0,TRUE,"E_M_Jimmy_Carr.png P_M_Michael_Gove.png"
7554,"E_F_Julie_Walters.png","P_F_nicola_sturge.png","FALSE","pictures/stimuli/E","pictures/stimuli/P","F","F","5","56b12c0e9f1826000cbcc76c","07/06/2022, 17:37:42",0.328398007965892,"33","Female","right",1,1,0,0,FALSE,"E_F_Julie_Walters.png P_F_nicola_sturge.png"
18895,"P_M_keir_starmer.png","P_M_Sajid_Javid.png","TRUE","pictures/stimuli/P","pictures/stimuli/P","M","M","2","56b12c0e9f1826000cbcc76c","07/06/2022, 17:37:42",-1.47147568953948,"33","Female","right",1,1,0,0,FALSE,"P_M_keir_starmer.png P_M_Sajid_Javid.png"
3232,"E_M_Michael_McIntyr.png","E_M_Simon_Pegg.png","TRUE","pictures/stimuli/E","pictures/stimuli/E","M","M","2","56b12c0e9f1826000cbcc76c","07/06/2022, 17:37:42",-1.47147568953948,"33","Female","right",1,1,0,0,FALSE,"E_M_Michael_McIntyr.png E_M_Simon_Pegg.png"
5727,"P_F_Theresa_May.png","P_M_jeremy_corbyn.png","TRUE","pictures/stimuli/P","pictures/stimuli/P","F","M","2","56b12c0e9f1826000cbcc76c","07/06/2022, 17:37:42",-1.47147568953948,"33","Female","right",1,1,0,0,FALSE,"P_F_Theresa_May.png P_M_jeremy_corbyn.png"
11076,"E_M_Simon_Pegg.png","P_M_keir_starmer.png","FALSE","pictures/stimuli/E","pictures/stimuli/P","M","M","5","56b12c0e9f1826000cbcc76c","07/06/2022, 17:37:42",0.328398007965892,"33","Female","right",1,1,0,0,FALSE,"E_M_Simon_Pegg.png P_M_keir_starmer.png"
3323,"E_F_Dawn_Roma_French.png","E_M_Peter_Kay.png","TRUE","pictures/stimuli/E","pictures/stimuli/E","F","M","2","56b12c0e9f1826000cbcc76c","07/06/2022, 17:37:42",-1.47147568953948,"33","Female","right",1,1,0,0,FALSE,"E_F_Dawn_Roma_French.png E_M_Peter_Kay.png"
3370,"E_M_Michael_McIntyr.png","P_M_david_camer.png","FALSE","pictures/stimuli/E","pictures/stimuli/P","M","M","6","56b12c0e9f1826000cbcc76c","07/06/2022, 17:37:42",0.928355907134349,"33","Female","right",1,1,0,0,FALSE,"E_M_Michael_McIntyr.png P_M_david_camer.png"
3054,"E_M_Jimmy_Carr.png","E_M_Michael_McIntyr.png","TRUE","pictures/stimuli/E","pictures/stimuli/E","M","M","2","56b12c0e9f1826000cbcc76c","07/06/2022, 17:37:42",-1.47147568953948,"33","Female","right",1,1,0,0,FALSE,"E_M_Jimmy_Carr.png E_M_Michael_McIntyr.png"
8329,"P_M_david_camer.png","P_M_Sajid_Javid.png","TRUE","pictures/stimuli/P","pictures/stimuli/P","M","M","2","56b12c0e9f1826000cbcc76c","07/06/2022, 17:37:42",-1.47147568953948,"33","Female","right",1,1,0,0,FALSE,"P_M_david_camer.png P_M_Sajid_Javid.png"
3454,"E_M_Jimmy_Carr.png","E_M_Simon_Pegg.png","TRUE","pictures/stimuli/E","pictures/stimuli/E","M","M","2","56b12c0e9f1826000cbcc76c","07/06/2022, 17:37:42",-1.47147568953948,"33","Female","right",1,1,0,0,FALSE,"E_M_Jimmy_Carr.png E_M_Simon_Pegg.png"
3931,"E_F_Jennifer_Saunders.png","P_M_Tony_Blair.png","FALSE","pictures/stimuli/E","pictures/stimuli/P","F","M","5","56b12c0e9f1826000cbcc76c","07/06/2022, 17:37:42",0.328398007965892,"33","Female","right",1,1,0,0,FALSE,"E_F_Jennifer_Saunders.png P_M_Tony_Blair.png"
3676,"E_F_Julie_Walters.png","P_M_Tony_Blair.png","FALSE","pictures/stimuli/E","pictures/stimuli/P","F","M","6","56b12c0e9f1826000cbcc76c","07/06/2022, 17:37:42",0.928355907134349,"33","Female","right",1,1,0,0,FALSE,"E_F_Julie_Walters.png P_M_Tony_Blair.png"
3289,"E_M_Ewan_McGregor.png","P_M_Tony_Blair.png","FALSE","pictures/stimuli/E","pictures/stimuli/P","M","M","6","56b12c0e9f1826000cbcc76c","07/06/2022, 17:37:42",0.928355907134349,"33","Female","right",1,1,0,0,FALSE,"E_M_Ewan_McGregor.png P_M_Tony_Blair.png"
2825,"E_F_Julie_Walters.png","P_M_nigel_farage.png","FALSE","pictures/stimuli/E","pictures/stimuli/P","F","M","6","56b12c0e9f1826000cbcc76c","07/06/2022, 17:37:42",0.928355907134349,"33","Female","right",1,1,0,0,FALSE,"E_F_Julie_Walters.png P_M_nigel_farage.png"
10682,"E_M_Michael_McIntyr.png","P_M_keir_starmer.png","FALSE","pictures/stimuli/E","pictures/stimuli/P","M","M","6","56b12c0e9f1826000cbcc76c","07/06/2022, 17:37:42",0.928355907134349,"33","Female","right",1,1,0,0,FALSE,"E_M_Michael_McIntyr.png P_M_keir_starmer.png"
5442,"P_M_david_camer.png","P_M_keir_starmer.png","TRUE","pictures/stimuli/P","pictures/stimuli/P","M","M","2","56b12c0e9f1826000cbcc76c","07/06/2022, 17:37:42",-1.47147568953948,"33","Female","right",1,1,0,0,FALSE,"P_M_david_camer.png P_M_keir_starmer.png"
6198,"E_M_Michael_McIntyr.png","P_F_Theresa_May.png","FALSE","pictures/stimuli/E","pictures/stimuli/P","M","F","6","56b12c0e9f1826000cbcc76c","07/06/2022, 17:37:42",0.928355907134349,"33","Female","right",1,1,0,0,FALSE,"E_M_Michael_McIntyr.png P_F_Theresa_May.png"
4505,"E_M_Ewan_McGregor.png","P_M_Sajid_Javid.png","FALSE","pictures/stimuli/E","pictures/stimuli/P","M","M","5","56b12c0e9f1826000cbcc76c","07/06/2022, 17:37:42",0.328398007965892,"33","Female","right",1,1,0,0,FALSE,"E_M_Ewan_McGregor.png P_M_Sajid_Javid.png"
3873,"E_F_Julie_Walters.png","P_F_Theresa_May.png","FALSE","pictures/stimuli/E","pictures/stimuli/P","F","F","5","56b12c0e9f1826000cbcc76c","07/06/2022, 17:37:42",0.328398007965892,"33","Female","right",1,1,0,0,FALSE,"E_F_Julie_Walters.png P_F_Theresa_May.png"
4507,"P_M_Gordon_Brown.png","P_M_Tony_Blair.png","TRUE","pictures/stimuli/P","pictures/stimuli/P","M","M","2","56b12c0e9f1826000cbcc76c","07/06/2022, 17:37:42",-1.47147568953948,"33","Female","right",1,1,0,0,FALSE,"P_M_Gordon_Brown.png P_M_Tony_Blair.png"
5411,"E_M_Michael_McIntyr.png","P_M_jeremy_corbyn.png","FALSE","pictures/stimuli/E","pictures/stimuli/P","M","M","6","56b12c0e9f1826000cbcc76c","07/06/2022, 17:37:42",0.928355907134349,"33","Female","right",1,1,0,0,FALSE,"E_M_Michael_McIntyr.png P_M_jeremy_corbyn.png"
3441,"P_F_nicola_sturge.png","P_M_jeremy_corbyn.png","TRUE","pictures/stimuli/P","pictures/stimuli/P","F","M","2","56b12c0e9f1826000cbcc76c","07/06/2022, 17:37:42",-1.47147568953948,"33","Female","right",1,1,0,0,FALSE,"P_F_nicola_sturge.png P_M_jeremy_corbyn.png"
3360,"E_F_Sarah_Millican.png","P_M_david_camer.png","FALSE","pictures/stimuli/E","pictures/stimuli/P","F","M","6","56b12c0e9f1826000cbcc76c","07/06/2022, 17:37:42",0.928355907134349,"33","Female","right",1,1,0,0,FALSE,"E_F_Sarah_Millican.png P_M_david_camer.png"
4163,"E_M_Jimmy_Carr.png","P_F_nicola_sturge.png","FALSE","pictures/stimuli/E","pictures/stimuli/P","M","F","6","56b12c0e9f1826000cbcc76c","07/06/2022, 17:37:42",0.928355907134349,"33","Female","right",1,1,0,0,FALSE,"E_M_Jimmy_Carr.png P_F_nicola_sturge.png"
5969,"P_F_nicola_sturge.png","P_M_Michael_Gove.png","TRUE","pictures/stimuli/P","pictures/stimuli/P","F","M","3","56b12c0e9f1826000cbcc76c","07/06/2022, 17:37:42",-0.871517790371022,"33","Female","right",1,0,0,0,TRUE,"P_F_nicola_sturge.png P_M_Michael_Gove.png"
6924,"E_M_Peter_Kay.png","P_M_Michael_Gove.png","FALSE","pictures/stimuli/E","pictures/stimuli/P","M","M","6","56b12c0e9f1826000cbcc76c","07/06/2022, 17:37:42",0.928355907134349,"33","Female","right",1,0,0,0,TRUE,"E_M_Peter_Kay.png P_M_Michael_Gove.png"
5807,"E_M_Russell_Howard.png","P_M_david_camer.png","FALSE","pictures/stimuli/E","pictures/stimuli/P","M","M","6","56b12c0e9f1826000cbcc76c","07/06/2022, 17:37:42",0.928355907134349,"33","Female","right",1,1,0,0,FALSE,"E_M_Russell_Howard.png P_M_david_camer.png"
4814,"E_M_Peter_Kay.png","P_M_nigel_farage.png","FALSE","pictures/stimuli/E","pictures/stimuli/P","M","M","6","56b12c0e9f1826000cbcc76c","07/06/2022, 17:37:42",0.928355907134349,"33","Female","right",1,1,0,0,FALSE,"E_M_Peter_Kay.png P_M_nigel_farage.png"
4636,"E_M_Simon_Pegg.png","P_M_Tony_Blair.png","FALSE","pictures/stimuli/E","pictures/stimuli/P","M","M","6","56b12c0e9f1826000cbcc76c","07/06/2022, 17:37:42",0.928355907134349,"33","Female","right",1,1,0,0,FALSE,"E_M_Simon_Pegg.png P_M_Tony_Blair.png"
3224,"E_F_Dawn_Roma_French.png","P_M_jeremy_corbyn.png","FALSE","pictures/stimuli/E","pictures/stimuli/P","F","M","6","56b12c0e9f1826000cbcc76c","07/06/2022, 17:37:42",0.928355907134349,"33","Female","right",1,1,0,0,FALSE,"E_F_Dawn_Roma_French.png P_M_jeremy_corbyn.png"
4096,"E_F_Dawn_Roma_French.png","E_F_Sarah_Millican.png","TRUE","pictures/stimuli/E","pictures/stimuli/E","F","F","2","56b12c0e9f1826000cbcc76c","07/06/2022, 17:37:42",-1.47147568953948,"33","Female","right",1,1,0,0,FALSE,"E_F_Dawn_Roma_French.png E_F_Sarah_Millican.png"
3600,"E_F_Jennifer_Saunders.png","E_M_Simon_Pegg.png","TRUE","pictures/stimuli/E","pictures/stimuli/E","F","M","3","56b12c0e9f1826000cbcc76c","07/06/2022, 17:37:42",-0.871517790371022,"33","Female","right",1,1,0,0,FALSE,"E_F_Jennifer_Saunders.png E_M_Simon_Pegg.png"
5131,"E_M_Ewan_McGregor.png","E_M_Russell_Howard.png","TRUE","pictures/stimuli/E","pictures/stimuli/E","M","M","4","56b12c0e9f1826000cbcc76c","07/06/2022, 17:37:42",-0.271559891202565,"33","Female","right",1,1,0,0,FALSE,"E_M_Ewan_McGregor.png E_M_Russell_Howard.png"
3857,"E_M_Ewan_McGregor.png","E_M_Peter_Kay.png","TRUE","pictures/stimuli/E","pictures/stimuli/E","M","M","4","56b12c0e9f1826000cbcc76c","07/06/2022, 17:37:42",-0.271559891202565,"33","Female","right",1,1,0,0,FALSE,"E_M_Ewan_McGregor.png E_M_Peter_Kay.png"
3350,"E_M_Simon_Pegg.png","P_M_Sajid_Javid.png","FALSE","pictures/stimuli/E","pictures/stimuli/P","M","M","6","56b12c0e9f1826000cbcc76c","07/06/2022, 17:37:42",0.928355907134349,"33","Female","right",1,1,0,0,FALSE,"E_M_Simon_Pegg.png P_M_Sajid_Javid.png"
5361,"E_M_Michael_McIntyr.png","E_M_Russell_Howard.png","TRUE","pictures/stimuli/E","pictures/stimuli/E","M","M","2","56b12c0e9f1826000cbcc76c","07/06/2022, 17:37:42",-1.47147568953948,"33","Female","right",1,1,0,0,FALSE,"E_M_Michael_McIntyr.png E_M_Russell_Howard.png"
8243,"E_F_Julie_Walters.png","E_F_Sarah_Millican.png","TRUE","pictures/stimuli/E","pictures/stimuli/E","F","F","4","56b12c0e9f1826000cbcc76c","07/06/2022, 17:37:42",-0.271559891202565,"33","Female","right",1,1,0,0,FALSE,"E_F_Julie_Walters.png E_F_Sarah_Millican.png"
34016,"E_M_Russell_Howard.png","P_F_Theresa_May.png","FALSE","pictures/stimuli/E","pictures/stimuli/P","M","F","6","56b12c0e9f1826000cbcc76c","07/06/2022, 17:37:42",0.928355907134349,"33","Female","right",1,1,0,0,TRUE,"E_M_Russell_Howard.png P_F_Theresa_May.png"
6984,"E_F_Jennifer_Saunders.png","P_M_Michael_Gove.png","FALSE","pictures/stimuli/E","pictures/stimuli/P","F","M","5","56b12c0e9f1826000cbcc76c","07/06/2022, 17:37:42",0.328398007965892,"33","Female","right",1,0,0,0,TRUE,"E_F_Jennifer_Saunders.png P_M_Michael_Gove.png"
21719,"P_M_david_camer.png","P_M_jeremy_corbyn.png","TRUE","pictures/stimuli/P","pictures/stimuli/P","M","M","2","56b12c0e9f1826000cbcc76c","07/06/2022, 17:37:42",-1.47147568953948,"33","Female","right",1,1,0,0,FALSE,"P_M_david_camer.png P_M_jeremy_corbyn.png"
60972,"E_F_Dawn_Roma_French.png","E_M_Jimmy_Carr.png","TRUE","pictures/stimuli/E","pictures/stimuli/E","F","M","3","56b12c0e9f1826000cbcc76c","07/06/2022, 17:37:42",-0.871517790371022,"33","Female","right",1,1,0,0,TRUE,"E_F_Dawn_Roma_French.png E_M_Jimmy_Carr.png"
43972,"E_F_Julie_Walters.png","E_M_Jimmy_Carr.png","TRUE","pictures/stimuli/E","pictures/stimuli/E","F","M","4","56b12c0e9f1826000cbcc76c","07/06/2022, 17:37:42",-0.271559891202565,"33","Female","right",1,1,0,0,TRUE,"E_F_Julie_Walters.png E_M_Jimmy_Carr.png"
3090,"P_F_Theresa_May.png","P_M_keir_starmer.png","TRUE","pictures/stimuli/P","pictures/stimuli/P","F","M","2","56b12c0e9f1826000cbcc76c","07/06/2022, 17:37:42",-1.47147568953948,"33","Female","right",1,1,0,0,FALSE,"P_F_Theresa_May.png P_M_keir_starmer.png"
6088,"E_F_Julie_Walters.png","P_M_Sajid_Javid.png","FALSE","pictures/stimuli/E","pictures/stimuli/P","F","M","6","56b12c0e9f1826000cbcc76c","07/06/2022, 17:37:42",0.928355907134349,"33","Female","right",1,1,0,0,FALSE,"E_F_Julie_Walters.png P_M_Sajid_Javid.png"
41625,"E_M_Jimmy_Carr.png","P_M_jeremy_corbyn.png","FALSE","pictures/stimuli/E","pictures/stimuli/P","M","M","6","56b12c0e9f1826000cbcc76c","07/06/2022, 17:37:42",0.928355907134349,"33","Female","right",1,1,0,0,TRUE,"E_M_Jimmy_Carr.png P_M_jeremy_corbyn.png"
4650,"E_F_Jennifer_Saunders.png","E_F_Sarah_Millican.png","TRUE","pictures/stimuli/E","pictures/stimuli/E","F","F","4","56b12c0e9f1826000cbcc76c","07/06/2022, 17:37:42",-0.271559891202565,"33","Female","right",1,1,0,0,FALSE,"E_F_Jennifer_Saunders.png E_F_Sarah_Millican.png"
2673,"E_F_Dawn_Roma_French.png","E_F_Julie_Walters.png","TRUE","pictures/stimuli/E","pictures/stimuli/E","F","F","4","56b12c0e9f1826000cbcc76c","07/06/2022, 17:37:42",-0.271559891202565,"33","Female","right",1,1,0,0,FALSE,"E_F_Dawn_Roma_French.png E_F_Julie_Walters.png"
2712,"E_F_Sarah_Millican.png","E_M_Simon_Pegg.png","TRUE","pictures/stimuli/E","pictures/stimuli/E","F","M","4","56b12c0e9f1826000cbcc76c","07/06/2022, 17:37:42",-0.271559891202565,"33","Female","right",1,1,0,0,FALSE,"E_F_Sarah_Millican.png E_M_Simon_Pegg.png"
2726,"E_M_Simon_Pegg.png","P_M_Michael_Gove.png","FALSE","pictures/stimuli/E","pictures/stimuli/P","M","M","5","56b12c0e9f1826000cbcc76c","07/06/2022, 17:37:42",0.328398007965892,"33","Female","right",1,0,0,0,TRUE,"E_M_Simon_Pegg.png P_M_Michael_Gove.png"
12988,"E_M_Michael_McIntyr.png","P_M_nigel_farage.png","FALSE","pictures/stimuli/E","pictures/stimuli/P","M","M","6","56b12c0e9f1826000cbcc76c","07/06/2022, 17:37:42",0.928355907134349,"33","Female","right",1,1,0,0,FALSE,"E_M_Michael_McIntyr.png P_M_nigel_farage.png"
5095,"E_F_Sarah_Millican.png","E_M_Russell_Howard.png","TRUE","pictures/stimuli/E","pictures/stimuli/E","F","M","4","56b12c0e9f1826000cbcc76c","07/06/2022, 17:37:42",-0.271559891202565,"33","Female","right",1,1,0,0,FALSE,"E_F_Sarah_Millican.png E_M_Russell_Howard.png"
9551,"P_F_nicola_sturge.png","P_M_Tony_Blair.png","TRUE","pictures/stimuli/P","pictures/stimuli/P","F","M","3","56b12c0e9f1826000cbcc76c","07/06/2022, 17:37:42",-0.871517790371022,"33","Female","right",1,1,0,0,FALSE,"P_F_nicola_sturge.png P_M_Tony_Blair.png"
17224,"E_M_Ewan_McGregor.png","P_M_david_camer.png","FALSE","pictures/stimuli/E","pictures/stimuli/P","M","M","5","56b12c0e9f1826000cbcc76c","07/06/2022, 17:37:42",0.328398007965892,"33","Female","right",1,1,0,0,FALSE,"E_M_Ewan_McGregor.png P_M_david_camer.png"
4523,"P_F_Theresa_May.png","P_M_nigel_farage.png","TRUE","pictures/stimuli/P","pictures/stimuli/P","F","M","2","56b12c0e9f1826000cbcc76c","07/06/2022, 17:37:42",-1.47147568953948,"33","Female","right",1,1,0,0,FALSE,"P_F_Theresa_May.png P_M_nigel_farage.png"
4062,"E_F_Julie_Walters.png","E_M_Russell_Howard.png","TRUE","pictures/stimuli/E","pictures/stimuli/E","F","M","5","56b12c0e9f1826000cbcc76c","07/06/2022, 17:37:42",0.328398007965892,"33","Female","right",1,1,0,0,FALSE,"E_F_Julie_Walters.png E_M_Russell_Howard.png"
25783,"E_M_Peter_Kay.png","E_M_Simon_Pegg.png","TRUE","pictures/stimuli/E","pictures/stimuli/E","M","M","3","56b12c0e9f1826000cbcc76c","07/06/2022, 17:37:42",-0.871517790371022,"33","Female","right",1,1,0,0,FALSE,"E_M_Peter_Kay.png E_M_Simon_Pegg.png"
9567,"P_F_Theresa_May.png","P_M_Michael_Gove.png","TRUE","pictures/stimuli/P","pictures/stimuli/P","F","M","4","56b12c0e9f1826000cbcc76c","07/06/2022, 17:37:42",-0.271559891202565,"33","Female","right",1,0,0,0,TRUE,"P_F_Theresa_May.png P_M_Michael_Gove.png"
8353,"E_F_Sarah_Millican.png","E_M_Ewan_McGregor.png","TRUE","pictures/stimuli/E","pictures/stimuli/E","F","M","5","56b12c0e9f1826000cbcc76c","07/06/2022, 17:37:42",0.328398007965892,"33","Female","right",1,1,0,0,FALSE,"E_F_Sarah_Millican.png E_M_Ewan_McGregor.png"
12557,"E_M_Peter_Kay.png","E_M_Russell_Howard.png","TRUE","pictures/stimuli/E","pictures/stimuli/E","M","M","3","56b12c0e9f1826000cbcc76c","07/06/2022, 17:37:42",-0.871517790371022,"33","Female","right",1,1,0,0,FALSE,"E_M_Peter_Kay.png E_M_Russell_Howard.png"
3166,"E_F_Dawn_Roma_French.png","E_M_Michael_McIntyr.png","TRUE","pictures/stimuli/E","pictures/stimuli/E","F","M","3","56b12c0e9f1826000cbcc76c","07/06/2022, 17:37:42",-0.871517790371022,"33","Female","right",1,1,0,0,FALSE,"E_F_Dawn_Roma_French.png E_M_Michael_McIntyr.png"
8526,"E_M_Michael_McIntyr.png","P_M_Sajid_Javid.png","FALSE","pictures/stimuli/E","pictures/stimuli/P","M","M","6","56b12c0e9f1826000cbcc76c","07/06/2022, 17:37:42",0.928355907134349,"33","Female","right",1,1,0,0,FALSE,"E_M_Michael_McIntyr.png P_M_Sajid_Javid.png"
16186,"E_M_Peter_Kay.png","P_F_nicola_sturge.png","FALSE","pictures/stimuli/E","pictures/stimuli/P","M","F","6","56b12c0e9f1826000cbcc76c","07/06/2022, 17:37:42",0.928355907134349,"33","Female","right",1,1,0,0,FALSE,"E_M_Peter_Kay.png P_F_nicola_sturge.png"
3892,"E_M_Michael_McIntyr.png","E_M_Peter_Kay.png","TRUE","pictures/stimuli/E","pictures/stimuli/E","M","M","3","56b12c0e9f1826000cbcc76c","07/06/2022, 17:37:42",-0.871517790371022,"33","Female","right",1,1,0,0,FALSE,"E_M_Michael_McIntyr.png E_M_Peter_Kay.png"
6715,"E_F_Julie_Walters.png","E_M_Simon_Pegg.png","TRUE","pictures/stimuli/E","pictures/stimuli/E","F","M","4","56b12c0e9f1826000cbcc76c","07/06/2022, 17:37:42",-0.271559891202565,"33","Female","right",1,1,0,0,FALSE,"E_F_Julie_Walters.png E_M_Simon_Pegg.png"
4151,"E_M_Russell_Howard.png","P_M_Gordon_Brown.png","FALSE","pictures/stimuli/E","pictures/stimuli/P","M","M","6","56b12c0e9f1826000cbcc76c","07/06/2022, 17:37:42",0.928355907134349,"33","Female","right",1,1,0,0,FALSE,"E_M_Russell_Howard.png P_M_Gordon_Brown.png"
5107,"E_M_Peter_Kay.png","P_M_david_camer.png","FALSE","pictures/stimuli/E","pictures/stimuli/P","M","M","6","56b12c0e9f1826000cbcc76c","07/06/2022, 17:37:42",0.928355907134349,"33","Female","right",1,1,0,0,FALSE,"E_M_Peter_Kay.png P_M_david_camer.png"
12411,"P_M_keir_starmer.png","P_M_Michael_Gove.png","TRUE","pictures/stimuli/P","pictures/stimuli/P","M","M","4","56b12c0e9f1826000cbcc76c","07/06/2022, 17:37:42",-0.271559891202565,"33","Female","right",1,0,0,0,TRUE,"P_M_keir_starmer.png P_M_Michael_Gove.png"
8372,"E_F_Julie_Walters.png","E_M_Ewan_McGregor.png","TRUE","pictures/stimuli/E","pictures/stimuli/E","F","M","4","56b12c0e9f1826000cbcc76c","07/06/2022, 17:37:42",-0.271559891202565,"33","Female","right",1,1,0,0,FALSE,"E_F_Julie_Walters.png E_M_Ewan_McGregor.png"
3593,"E_M_Ewan_McGregor.png","P_M_nigel_farage.png","FALSE","pictures/stimuli/E","pictures/stimuli/P","M","M","6","56b12c0e9f1826000cbcc76c","07/06/2022, 17:37:42",0.928355907134349,"33","Female","right",1,1,0,0,FALSE,"E_M_Ewan_McGregor.png P_M_nigel_farage.png"
3609,"E_M_Peter_Kay.png","P_M_keir_starmer.png","FALSE","pictures/stimuli/E","pictures/stimuli/P","M","M","5","56b12c0e9f1826000cbcc76c","07/06/2022, 17:37:42",0.328398007965892,"33","Female","right",1,1,0,0,FALSE,"E_M_Peter_Kay.png P_M_keir_starmer.png"
6090,"E_M_Michael_McIntyr.png","P_M_Tony_Blair.png","FALSE","pictures/stimuli/E","pictures/stimuli/P","M","M","6","56b12c0e9f1826000cbcc76c","07/06/2022, 17:37:42",0.928355907134349,"33","Female","right",1,1,0,0,FALSE,"E_M_Michael_McIntyr.png P_M_Tony_Blair.png"
3574,"P_M_Michael_Gove.png","P_M_nigel_farage.png","TRUE","pictures/stimuli/P","pictures/stimuli/P","M","M","3","56b12c0e9f1826000cbcc76c","07/06/2022, 17:37:42",-0.871517790371022,"33","Female","right",0,1,0,0,TRUE,"P_M_Michael_Gove.png P_M_nigel_farage.png"
49408,"E_M_Jimmy_Carr.png","P_M_Tony_Blair.png","FALSE","pictures/stimuli/E","pictures/stimuli/P","M","M","6","56b12c0e9f1826000cbcc76c","07/06/2022, 17:37:42",0.928355907134349,"33","Female","right",1,1,0,0,TRUE,"E_M_Jimmy_Carr.png P_M_Tony_Blair.png"
2649,"E_F_Julie_Walters.png","P_M_Gordon_Brown.png","FALSE","pictures/stimuli/E","pictures/stimuli/P","F","M","6","56b12c0e9f1826000cbcc76c","07/06/2022, 17:37:42",0.928355907134349,"33","Female","right",1,1,0,0,FALSE,"E_F_Julie_Walters.png P_M_Gordon_Brown.png"
3432,"P_M_Gordon_Brown.png","P_M_Sajid_Javid.png","TRUE","pictures/stimuli/P","pictures/stimuli/P","M","M","2","56b12c0e9f1826000cbcc76c","07/06/2022, 17:37:42",-1.47147568953948,"33","Female","right",1,1,0,0,FALSE,"P_M_Gordon_Brown.png P_M_Sajid_Javid.png"
2736,"E_M_Ewan_McGregor.png","P_M_Michael_Gove.png","FALSE","pictures/stimuli/E","pictures/stimuli/P","M","M","6","56b12c0e9f1826000cbcc76c","07/06/2022, 17:37:42",0.928355907134349,"33","Female","right",1,0,0,0,TRUE,"E_M_Ewan_McGregor.png P_M_Michael_Gove.png"
5476,"P_M_Michael_Gove.png","P_M_Tony_Blair.png","TRUE","pictures/stimuli/P","pictures/stimuli/P","M","M","3","56b12c0e9f1826000cbcc76c","07/06/2022, 17:37:42",-0.871517790371022,"33","Female","right",0,1,0,0,TRUE,"P_M_Michael_Gove.png P_M_Tony_Blair.png"
2475,"E_M_Russell_Howard.png","P_F_nicola_sturge.png","FALSE","pictures/stimuli/E","pictures/stimuli/P","M","F","6","56b12c0e9f1826000cbcc76c","07/06/2022, 17:37:42",0.928355907134349,"33","Female","right",1,1,0,0,FALSE,"E_M_Russell_Howard.png P_F_nicola_sturge.png"
2511,"E_M_Michael_McIntyr.png","P_M_Michael_Gove.png","FALSE","pictures/stimuli/E","pictures/stimuli/P","M","M","6","56b12c0e9f1826000cbcc76c","07/06/2022, 17:37:42",0.928355907134349,"33","Female","right",1,0,0,0,TRUE,"E_M_Michael_McIntyr.png P_M_Michael_Gove.png"
2860,"E_M_Ewan_McGregor.png","P_M_keir_starmer.png","FALSE","pictures/stimuli/E","pictures/stimuli/P","M","M","6","56b12c0e9f1826000cbcc76c","07/06/2022, 17:37:42",0.928355907134349,"33","Female","right",1,1,0,0,FALSE,"E_M_Ewan_McGregor.png P_M_keir_starmer.png"
2587,"P_M_Gordon_Brown.png","P_M_Michael_Gove.png","TRUE","pictures/stimuli/P","pictures/stimuli/P","M","M","2","56b12c0e9f1826000cbcc76c","07/06/2022, 17:37:42",-1.47147568953948,"33","Female","right",1,0,0,0,TRUE,"P_M_Gordon_Brown.png P_M_Michael_Gove.png"
3054,"E_F_Dawn_Roma_French.png","P_F_Theresa_May.png","FALSE","pictures/stimuli/E","pictures/stimuli/P","F","F","6","56b12c0e9f1826000cbcc76c","07/06/2022, 17:37:42",0.928355907134349,"33","Female","right",1,1,0,0,FALSE,"E_F_Dawn_Roma_French.png P_F_Theresa_May.png"
3163,"E_F_Jennifer_Saunders.png","P_M_jeremy_corbyn.png","FALSE","pictures/stimuli/E","pictures/stimuli/P","F","M","6","56b12c0e9f1826000cbcc76c","07/06/2022, 17:37:42",0.928355907134349,"33","Female","right",1,1,0,0,FALSE,"E_F_Jennifer_Saunders.png P_M_jeremy_corbyn.png"
2922,"E_M_Ewan_McGregor.png","E_M_Jimmy_Carr.png","TRUE","pictures/stimuli/E","pictures/stimuli/E","M","M","4","56b12c0e9f1826000cbcc76c","07/06/2022, 17:37:42",-0.271559891202565,"33","Female","right",1,1,0,0,FALSE,"E_M_Ewan_McGregor.png E_M_Jimmy_Carr.png"
2282,"E_M_Michael_McIntyr.png","P_M_Gordon_Brown.png","FALSE","pictures/stimuli/E","pictures/stimuli/P","M","M","6","56b12c0e9f1826000cbcc76c","07/06/2022, 17:37:42",0.928355907134349,"33","Female","right",1,1,0,0,FALSE,"E_M_Michael_McIntyr.png P_M_Gordon_Brown.png"
2583,"P_F_Theresa_May.png","P_M_Tony_Blair.png","TRUE","pictures/stimuli/P","pictures/stimuli/P","F","M","1","56b12c0e9f1826000cbcc76c","07/06/2022, 17:37:42",-2.07143358870794,"33","Female","right",1,1,0,0,FALSE,"P_F_Theresa_May.png P_M_Tony_Blair.png"
2231,"E_M_Peter_Kay.png","P_M_Gordon_Brown.png","FALSE","pictures/stimuli/E","pictures/stimuli/P","M","M","6","56b12c0e9f1826000cbcc76c","07/06/2022, 17:37:42",0.928355907134349,"33","Female","right",1,1,0,0,FALSE,"E_M_Peter_Kay.png P_M_Gordon_Brown.png"
3190,"P_M_jeremy_corbyn.png","P_M_keir_starmer.png","TRUE","pictures/stimuli/P","pictures/stimuli/P","M","M","1","56b12c0e9f1826000cbcc76c","07/06/2022, 17:37:42",-2.07143358870794,"33","Female","right",1,1,0,0,FALSE,"P_M_jeremy_corbyn.png P_M_keir_starmer.png"
4127,"P_M_Gordon_Brown.png","P_M_keir_starmer.png","TRUE","pictures/stimuli/P","pictures/stimuli/P","M","M","2","56b12c0e9f1826000cbcc76c","07/06/2022, 17:37:42",-1.47147568953948,"33","Female","right",1,1,0,0,FALSE,"P_M_Gordon_Brown.png P_M_keir_starmer.png"
21968,"E_F_Sarah_Millican.png","P_M_nigel_farage.png","FALSE","pictures/stimuli/E","pictures/stimuli/P","F","M","6","56b12c0e9f1826000cbcc76c","07/06/2022, 17:37:42",0.928355907134349,"33","Female","right",1,1,0,0,FALSE,"E_F_Sarah_Millican.png P_M_nigel_farage.png"
4732,"E_M_Russell_Howard.png","P_M_Sajid_Javid.png","FALSE","pictures/stimuli/E","pictures/stimuli/P","M","M","6","56b12c0e9f1826000cbcc76c","07/06/2022, 17:37:42",0.928355907134349,"33","Female","right",1,1,0,0,FALSE,"E_M_Russell_Howard.png P_M_Sajid_Javid.png"
4368,"P_M_david_camer.png","P_M_Gordon_Brown.png","TRUE","pictures/stimuli/P","pictures/stimuli/P","M","M","2","56b12c0e9f1826000cbcc76c","07/06/2022, 17:37:42",-1.47147568953948,"33","Female","right",1,1,0,0,FALSE,"P_M_david_camer.png P_M_Gordon_Brown.png"
2448,"P_F_Theresa_May.png","P_M_Gordon_Brown.png","TRUE","pictures/stimuli/P","pictures/stimuli/P","F","M","1","56b12c0e9f1826000cbcc76c","07/06/2022, 17:37:42",-2.07143358870794,"33","Female","right",1,1,0,0,FALSE,"P_F_Theresa_May.png P_M_Gordon_Brown.png"
3164,"E_F_Jennifer_Saunders.png","E_M_Russell_Howard.png","TRUE","pictures/stimuli/E","pictures/stimuli/E","F","M","5","56b12c0e9f1826000cbcc76c","07/06/2022, 17:37:42",0.328398007965892,"33","Female","right",1,1,0,0,FALSE,"E_F_Jennifer_Saunders.png E_M_Russell_Howard.png"
10707,"P_M_jeremy_corbyn.png","P_M_Michael_Gove.png","TRUE","pictures/stimuli/P","pictures/stimuli/P","M","M","3","56b12c0e9f1826000cbcc76c","07/06/2022, 17:37:42",-0.871517790371022,"33","Female","right",1,0,0,0,TRUE,"P_M_jeremy_corbyn.png P_M_Michael_Gove.png"
5064,"E_F_Jennifer_Saunders.png","P_M_nigel_farage.png","FALSE","pictures/stimuli/E","pictures/stimuli/P","F","M","2","56b12c0e9f1826000cbcc76c","07/06/2022, 17:37:42",-1.47147568953948,"33","Female","right",1,1,0,0,FALSE,"E_F_Jennifer_Saunders.png P_M_nigel_farage.png"
5059,"E_F_Dawn_Roma_French.png","E_F_Jennifer_Saunders.png","TRUE","pictures/stimuli/E","pictures/stimuli/E","F","F","2","56b12c0e9f1826000cbcc76c","07/06/2022, 17:37:42",-1.47147568953948,"33","Female","right",1,1,0,0,FALSE,"E_F_Dawn_Roma_French.png E_F_Jennifer_Saunders.png"
9388,"E_M_Jimmy_Carr.png","P_M_david_camer.png","FALSE","pictures/stimuli/E","pictures/stimuli/P","M","M","6","56b12c0e9f1826000cbcc76c","07/06/2022, 17:37:42",0.928355907134349,"33","Female","right",1,1,0,0,FALSE,"E_M_Jimmy_Carr.png P_M_david_camer.png"
10607,"E_M_Peter_Kay.png","P_M_Tony_Blair.png","FALSE","pictures/stimuli/E","pictures/stimuli/P","M","M","5","56b12c0e9f1826000cbcc76c","07/06/2022, 17:37:42",0.328398007965892,"33","Female","right",1,1,0,0,FALSE,"E_M_Peter_Kay.png P_M_Tony_Blair.png"
28934,"E_F_Julie_Walters.png","P_M_jeremy_corbyn.png","FALSE","pictures/stimuli/E","pictures/stimuli/P","F","M","6","56b12c0e9f1826000cbcc76c","07/06/2022, 17:37:42",0.928355907134349,"33","Female","right",1,1,0,0,FALSE,"E_F_Julie_Walters.png P_M_jeremy_corbyn.png"
4209,"P_F_nicola_sturge.png","P_F_Theresa_May.png","TRUE","pictures/stimuli/P","pictures/stimuli/P","F","F","1","56b12c0e9f1826000cbcc76c","07/06/2022, 17:37:42",-2.07143358870794,"33","Female","right",1,1,0,0,FALSE,"P_F_nicola_sturge.png P_F_Theresa_May.png"
29063,"E_F_Sarah_Millican.png","P_M_keir_starmer.png","FALSE","pictures/stimuli/E","pictures/stimuli/P","F","M","6","56b12c0e9f1826000cbcc76c","07/06/2022, 17:37:42",0.928355907134349,"33","Female","right",1,1,0,0,FALSE,"E_F_Sarah_Millican.png P_M_keir_starmer.png"
3290,"E_M_Russell_Howard.png","P_M_keir_starmer.png","FALSE","pictures/stimuli/E","pictures/stimuli/P","M","M","6","56b12c0e9f1826000cbcc76c","07/06/2022, 17:37:42",0.928355907134349,"33","Female","right",1,1,0,0,FALSE,"E_M_Russell_Howard.png P_M_keir_starmer.png"
48474,"E_M_Jimmy_Carr.png","P_M_nigel_farage.png","FALSE","pictures/stimuli/E","pictures/stimuli/P","M","M","6","56b12c0e9f1826000cbcc76c","07/06/2022, 17:37:42",0.928355907134349,"33","Female","right",1,1,0,0,TRUE,"E_M_Jimmy_Carr.png P_M_nigel_farage.png"
2555,"P_M_keir_starmer.png","P_M_Tony_Blair.png","TRUE","pictures/stimuli/P","pictures/stimuli/P","M","M","2","56b12c0e9f1826000cbcc76c","07/06/2022, 17:37:42",-1.47147568953948,"33","Female","right",1,1,0,0,FALSE,"P_M_keir_starmer.png P_M_Tony_Blair.png"
3193,"E_M_Ewan_McGregor.png","P_M_jeremy_corbyn.png","FALSE","pictures/stimuli/E","pictures/stimuli/P","M","M","5","56b12c0e9f1826000cbcc76c","07/06/2022, 17:37:42",0.328398007965892,"33","Female","right",1,1,0,0,FALSE,"E_M_Ewan_McGregor.png P_M_jeremy_corbyn.png"
2202,"E_F_Dawn_Roma_French.png","P_M_david_camer.png","FALSE","pictures/stimuli/E","pictures/stimuli/P","F","M","6","56b12c0e9f1826000cbcc76c","07/06/2022, 17:37:42",0.928355907134349,"33","Female","right",1,1,0,0,FALSE,"E_F_Dawn_Roma_French.png P_M_david_camer.png"
18273,"P_M_david_camer.png","P_M_Tony_Blair.png","TRUE","pictures/stimuli/P","pictures/stimuli/P","M","M","1","56b12c0e9f1826000cbcc76c","07/06/2022, 17:37:42",-2.07143358870794,"33","Female","right",1,1,0,0,FALSE,"P_M_david_camer.png P_M_Tony_Blair.png"
19670,"P_M_david_camer.png","P_M_nigel_farage.png","TRUE","pictures/stimuli/P","pictures/stimuli/P","M","M","1","56b12c0e9f1826000cbcc76c","07/06/2022, 17:37:42",-2.07143358870794,"33","Female","right",1,1,0,0,FALSE,"P_M_david_camer.png P_M_nigel_farage.png"
2746,"E_F_Jennifer_Saunders.png","E_M_Jimmy_Carr.png","TRUE","pictures/stimuli/E","pictures/stimuli/E","F","M","4","56b12c0e9f1826000cbcc76c","07/06/2022, 17:37:42",-0.271559891202565,"33","Female","right",1,1,0,0,FALSE,"E_F_Jennifer_Saunders.png E_M_Jimmy_Carr.png"
5412,"E_F_Dawn_Roma_French.png","P_M_Gordon_Brown.png","FALSE","pictures/stimuli/E","pictures/stimuli/P","F","M","6","56b12c0e9f1826000cbcc76c","07/06/2022, 17:37:42",0.928355907134349,"33","Female","right",1,1,0,0,FALSE,"E_F_Dawn_Roma_French.png P_M_Gordon_Brown.png"
3981,"P_M_Gordon_Brown.png","P_M_nigel_farage.png","TRUE","pictures/stimuli/P","pictures/stimuli/P","M","M","2","56b12c0e9f1826000cbcc76c","07/06/2022, 17:37:42",-1.47147568953948,"33","Female","right",1,1,0,0,FALSE,"P_M_Gordon_Brown.png P_M_nigel_farage.png"
4524,"E_F_Julie_Walters.png","P_M_Tony_Blair.png","FALSE","pictures/stimuli/E","pictures/stimuli/P","F","M","5","5720004a4212270008a3933b","07/06/2022, 17:22:11",0.700615299984369,"29","Female","right",1,1,0,0,FALSE,"E_F_Julie_Walters.png P_M_Tony_Blair.png"
