"RT","img_1","img_2","isSameProffesion","img1proffesion","img2proffesion","img1Gender","img2Gender","keyPressed","participant","time","normlised_keyPress","age","gender","handedness","isFamiliar_img1","isFamiliar_img2","vividness_img1","vividness_img2","reject_trial","condition","pair"
NA,"E_F_Dawn_Roma_French.png","E_F_Jennifer_Saunders.png",NA,NA,NA,NA,NA,0.784700363874435,NA,NA,NA,NA,NA,NA,NA,NA,NA,NA,FALSE,"VGG","E_F_Dawn_Roma_French.png E_F_Jennifer_Saunders.png"
NA,"E_F_Dawn_Roma_French.png","E_F_Julie_Walters.png",NA,NA,NA,NA,NA,0.796248257160187,NA,NA,NA,NA,NA,NA,NA,NA,NA,NA,FALSE,"VGG","E_F_Dawn_Roma_French.png E_F_Julie_Walters.png"
NA,"E_F_Dawn_Roma_French.png","E_F_Sarah_Millican.png",NA,NA,NA,NA,NA,0.78310552239418,NA,NA,NA,NA,NA,NA,NA,NA,NA,NA,FALSE,"VGG","E_F_Dawn_Roma_French.png E_F_Sarah_Millican.png"
NA,"E_F_Dawn_Roma_French.png","E_M_Ewan_McGregor.png",NA,NA,NA,NA,NA,0.870670303702354,NA,NA,NA,NA,NA,NA,NA,NA,NA,NA,FALSE,"VGG","E_F_Dawn_Roma_French.png E_M_Ewan_McGregor.png"
NA,"E_F_Dawn_Roma_French.png","E_M_Jimmy_Carr.png",NA,NA,NA,NA,NA,0.841211214661598,NA,NA,NA,NA,NA,NA,NA,NA,NA,NA,FALSE,"VGG","E_F_Dawn_Roma_French.png E_M_Jimmy_Carr.png"
NA,"E_F_Dawn_Roma_French.png","E_M_Michael_McIntyr.png",NA,NA,NA,NA,NA,0.743457198143005,NA,NA,NA,NA,NA,NA,NA,NA,NA,NA,FALSE,"VGG","E_F_Dawn_Roma_French.png E_M_Michael_McIntyr.png"
NA,"E_F_Dawn_Roma_French.png","E_M_Peter_Kay.png",NA,NA,NA,NA,NA,0.88478596508503,NA,NA,NA,NA,NA,NA,NA,NA,NA,NA,FALSE,"VGG","E_F_Dawn_Roma_French.png E_M_Peter_Kay.png"
NA,"E_F_Dawn_Roma_French.png","E_M_Russell_Howard.png",NA,NA,NA,NA,NA,0.843505635857582,NA,NA,NA,NA,NA,NA,NA,NA,NA,NA,FALSE,"VGG","E_F_Dawn_Roma_French.png E_M_Russell_Howard.png"
NA,"E_F_Dawn_Roma_French.png","E_M_Simon_Pegg.png",NA,NA,NA,NA,NA,0.80126129090786,NA,NA,NA,NA,NA,NA,NA,NA,NA,NA,FALSE,"VGG","E_F_Dawn_Roma_French.png E_M_Simon_Pegg.png"
NA,"E_F_Dawn_Roma_French.png","P_F_nicola_sturge.png",NA,NA,NA,NA,NA,0.677828758955002,NA,NA,NA,NA,NA,NA,NA,NA,NA,NA,FALSE,"VGG","E_F_Dawn_Roma_French.png P_F_nicola_sturge.png"
NA,"E_F_Dawn_Roma_French.png","P_F_Theresa_May.png",NA,NA,NA,NA,NA,0.780046314001083,NA,NA,NA,NA,NA,NA,NA,NA,NA,NA,FALSE,"VGG","E_F_Dawn_Roma_French.png P_F_Theresa_May.png"
NA,"E_F_Dawn_Roma_French.png","P_M_david_camer.png",NA,NA,NA,NA,NA,0.795576184988022,NA,NA,NA,NA,NA,NA,NA,NA,NA,NA,FALSE,"VGG","E_F_Dawn_Roma_French.png P_M_david_camer.png"
NA,"E_F_Dawn_Roma_French.png","P_M_Gordon_Brown.png",NA,NA,NA,NA,NA,0.803891122341156,NA,NA,NA,NA,NA,NA,NA,NA,NA,NA,FALSE,"VGG","E_F_Dawn_Roma_French.png P_M_Gordon_Brown.png"
NA,"E_F_Dawn_Roma_French.png","P_M_jeremy_corbyn.png",NA,NA,NA,NA,NA,0.895503841340542,NA,NA,NA,NA,NA,NA,NA,NA,NA,NA,FALSE,"VGG","E_F_Dawn_Roma_French.png P_M_jeremy_corbyn.png"
NA,"E_F_Dawn_Roma_French.png","P_M_keir_starmer.png",NA,NA,NA,NA,NA,0.814763411879539,NA,NA,NA,NA,NA,NA,NA,NA,NA,NA,FALSE,"VGG","E_F_Dawn_Roma_French.png P_M_keir_starmer.png"
NA,"E_F_Dawn_Roma_French.png","P_M_Michael_Gove.png",NA,NA,NA,NA,NA,0.772095948457718,NA,NA,NA,NA,NA,NA,NA,NA,NA,NA,FALSE,"VGG","E_F_Dawn_Roma_French.png P_M_Michael_Gove.png"
NA,"E_F_Dawn_Roma_French.png","P_M_nigel_farage.png",NA,NA,NA,NA,NA,0.739646315574646,NA,NA,NA,NA,NA,NA,NA,NA,NA,NA,FALSE,"VGG","E_F_Dawn_Roma_French.png P_M_nigel_farage.png"
NA,"E_F_Dawn_Roma_French.png","P_M_Sajid_Javid.png",NA,NA,NA,NA,NA,0.726192861795425,NA,NA,NA,NA,NA,NA,NA,NA,NA,NA,FALSE,"VGG","E_F_Dawn_Roma_French.png P_M_Sajid_Javid.png"
NA,"E_F_Dawn_Roma_French.png","P_M_Tony_Blair.png",NA,NA,NA,NA,NA,0.822501167654991,NA,NA,NA,NA,NA,NA,NA,NA,NA,NA,FALSE,"VGG","E_F_Dawn_Roma_French.png P_M_Tony_Blair.png"
NA,"E_F_Jennifer_Saunders.png","E_F_Julie_Walters.png",NA,NA,NA,NA,NA,0.391341209411621,NA,NA,NA,NA,NA,NA,NA,NA,NA,NA,FALSE,"VGG","E_F_Jennifer_Saunders.png E_F_Julie_Walters.png"
NA,"E_F_Jennifer_Saunders.png","E_F_Sarah_Millican.png",NA,NA,NA,NA,NA,0.73937976360321,NA,NA,NA,NA,NA,NA,NA,NA,NA,NA,FALSE,"VGG","E_F_Jennifer_Saunders.png E_F_Sarah_Millican.png"
NA,"E_F_Jennifer_Saunders.png","E_M_Ewan_McGregor.png",NA,NA,NA,NA,NA,0.752357572317123,NA,NA,NA,NA,NA,NA,NA,NA,NA,NA,FALSE,"VGG","E_F_Jennifer_Saunders.png E_M_Ewan_McGregor.png"
NA,"E_F_Jennifer_Saunders.png","E_M_Jimmy_Carr.png",NA,NA,NA,NA,NA,0.773566722869873,NA,NA,NA,NA,NA,NA,NA,NA,NA,NA,FALSE,"VGG","E_F_Jennifer_Saunders.png E_M_Jimmy_Carr.png"
NA,"E_F_Jennifer_Saunders.png","E_M_Michael_McIntyr.png",NA,NA,NA,NA,NA,0.779356077313423,NA,NA,NA,NA,NA,NA,NA,NA,NA,NA,FALSE,"VGG","E_F_Jennifer_Saunders.png E_M_Michael_McIntyr.png"
NA,"E_F_Jennifer_Saunders.png","E_M_Peter_Kay.png",NA,NA,NA,NA,NA,0.789469450712204,NA,NA,NA,NA,NA,NA,NA,NA,NA,NA,FALSE,"VGG","E_F_Jennifer_Saunders.png E_M_Peter_Kay.png"
NA,"E_F_Jennifer_Saunders.png","E_M_Russell_Howard.png",NA,NA,NA,NA,NA,0.822172448039055,NA,NA,NA,NA,NA,NA,NA,NA,NA,NA,FALSE,"VGG","E_F_Jennifer_Saunders.png E_M_Russell_Howard.png"
NA,"E_F_Jennifer_Saunders.png","E_M_Simon_Pegg.png",NA,NA,NA,NA,NA,0.841709569096565,NA,NA,NA,NA,NA,NA,NA,NA,NA,NA,FALSE,"VGG","E_F_Jennifer_Saunders.png E_M_Simon_Pegg.png"
NA,"E_F_Jennifer_Saunders.png","P_F_nicola_sturge.png",NA,NA,NA,NA,NA,0.651930958032608,NA,NA,NA,NA,NA,NA,NA,NA,NA,NA,FALSE,"VGG","E_F_Jennifer_Saunders.png P_F_nicola_sturge.png"
NA,"E_F_Jennifer_Saunders.png","P_F_Theresa_May.png",NA,NA,NA,NA,NA,0.640693813562393,NA,NA,NA,NA,NA,NA,NA,NA,NA,NA,FALSE,"VGG","E_F_Jennifer_Saunders.png P_F_Theresa_May.png"
NA,"E_F_Jennifer_Saunders.png","P_M_david_camer.png",NA,NA,NA,NA,NA,0.666477411985397,NA,NA,NA,NA,NA,NA,NA,NA,NA,NA,FALSE,"VGG","E_F_Jennifer_Saunders.png P_M_david_camer.png"
NA,"E_F_Jennifer_Saunders.png","P_M_Gordon_Brown.png",NA,NA,NA,NA,NA,0.814672634005547,NA,NA,NA,NA,NA,NA,NA,NA,NA,NA,FALSE,"VGG","E_F_Jennifer_Saunders.png P_M_Gordon_Brown.png"
NA,"E_F_Jennifer_Saunders.png","P_M_jeremy_corbyn.png",NA,NA,NA,NA,NA,0.737066268920898,NA,NA,NA,NA,NA,NA,NA,NA,NA,NA,FALSE,"VGG","E_F_Jennifer_Saunders.png P_M_jeremy_corbyn.png"
NA,"E_F_Jennifer_Saunders.png","P_M_keir_starmer.png",NA,NA,NA,NA,NA,0.732374489307404,NA,NA,NA,NA,NA,NA,NA,NA,NA,NA,FALSE,"VGG","E_F_Jennifer_Saunders.png P_M_keir_starmer.png"
NA,"E_F_Jennifer_Saunders.png","P_M_Michael_Gove.png",NA,NA,NA,NA,NA,0.712128728628159,NA,NA,NA,NA,NA,NA,NA,NA,NA,NA,FALSE,"VGG","E_F_Jennifer_Saunders.png P_M_Michael_Gove.png"
NA,"E_F_Jennifer_Saunders.png","P_M_nigel_farage.png",NA,NA,NA,NA,NA,0.84263002872467,NA,NA,NA,NA,NA,NA,NA,NA,NA,NA,FALSE,"VGG","E_F_Jennifer_Saunders.png P_M_nigel_farage.png"
NA,"E_F_Jennifer_Saunders.png","P_M_Sajid_Javid.png",NA,NA,NA,NA,NA,0.911131218075752,NA,NA,NA,NA,NA,NA,NA,NA,NA,NA,FALSE,"VGG","E_F_Jennifer_Saunders.png P_M_Sajid_Javid.png"
NA,"E_F_Jennifer_Saunders.png","P_M_Tony_Blair.png",NA,NA,NA,NA,NA,0.658977478742599,NA,NA,NA,NA,NA,NA,NA,NA,NA,NA,FALSE,"VGG","E_F_Jennifer_Saunders.png P_M_Tony_Blair.png"
NA,"E_F_Julie_Walters.png","E_F_Sarah_Millican.png",NA,NA,NA,NA,NA,0.690967559814453,NA,NA,NA,NA,NA,NA,NA,NA,NA,NA,FALSE,"VGG","E_F_Julie_Walters.png E_F_Sarah_Millican.png"
NA,"E_F_Julie_Walters.png","E_M_Ewan_McGregor.png",NA,NA,NA,NA,NA,0.772635936737061,NA,NA,NA,NA,NA,NA,NA,NA,NA,NA,FALSE,"VGG","E_F_Julie_Walters.png E_M_Ewan_McGregor.png"
NA,"E_F_Julie_Walters.png","E_M_Jimmy_Carr.png",NA,NA,NA,NA,NA,0.681205362081528,NA,NA,NA,NA,NA,NA,NA,NA,NA,NA,FALSE,"VGG","E_F_Julie_Walters.png E_M_Jimmy_Carr.png"
NA,"E_F_Julie_Walters.png","E_M_Michael_McIntyr.png",NA,NA,NA,NA,NA,0.839005172252655,NA,NA,NA,NA,NA,NA,NA,NA,NA,NA,FALSE,"VGG","E_F_Julie_Walters.png E_M_Michael_McIntyr.png"
NA,"E_F_Julie_Walters.png","E_M_Peter_Kay.png",NA,NA,NA,NA,NA,0.809111565351486,NA,NA,NA,NA,NA,NA,NA,NA,NA,NA,FALSE,"VGG","E_F_Julie_Walters.png E_M_Peter_Kay.png"
NA,"E_F_Julie_Walters.png","E_M_Russell_Howard.png",NA,NA,NA,NA,NA,0.817985087633133,NA,NA,NA,NA,NA,NA,NA,NA,NA,NA,FALSE,"VGG","E_F_Julie_Walters.png E_M_Russell_Howard.png"
NA,"E_F_Julie_Walters.png","E_M_Simon_Pegg.png",NA,NA,NA,NA,NA,0.875595733523369,NA,NA,NA,NA,NA,NA,NA,NA,NA,NA,FALSE,"VGG","E_F_Julie_Walters.png E_M_Simon_Pegg.png"
NA,"E_F_Julie_Walters.png","P_F_nicola_sturge.png",NA,NA,NA,NA,NA,0.646016269922256,NA,NA,NA,NA,NA,NA,NA,NA,NA,NA,FALSE,"VGG","E_F_Julie_Walters.png P_F_nicola_sturge.png"
NA,"E_F_Julie_Walters.png","P_F_Theresa_May.png",NA,NA,NA,NA,NA,0.751322746276855,NA,NA,NA,NA,NA,NA,NA,NA,NA,NA,FALSE,"VGG","E_F_Julie_Walters.png P_F_Theresa_May.png"
NA,"E_F_Julie_Walters.png","P_M_david_camer.png",NA,NA,NA,NA,NA,0.730565547943115,NA,NA,NA,NA,NA,NA,NA,NA,NA,NA,FALSE,"VGG","E_F_Julie_Walters.png P_M_david_camer.png"
NA,"E_F_Julie_Walters.png","P_M_Gordon_Brown.png",NA,NA,NA,NA,NA,0.871531650424004,NA,NA,NA,NA,NA,NA,NA,NA,NA,NA,FALSE,"VGG","E_F_Julie_Walters.png P_M_Gordon_Brown.png"
NA,"E_F_Julie_Walters.png","P_M_jeremy_corbyn.png",NA,NA,NA,NA,NA,0.811611264944077,NA,NA,NA,NA,NA,NA,NA,NA,NA,NA,FALSE,"VGG","E_F_Julie_Walters.png P_M_jeremy_corbyn.png"
NA,"E_F_Julie_Walters.png","P_M_keir_starmer.png",NA,NA,NA,NA,NA,0.787236303091049,NA,NA,NA,NA,NA,NA,NA,NA,NA,NA,FALSE,"VGG","E_F_Julie_Walters.png P_M_keir_starmer.png"
NA,"E_F_Julie_Walters.png","P_M_Michael_Gove.png",NA,NA,NA,NA,NA,0.718239426612854,NA,NA,NA,NA,NA,NA,NA,NA,NA,NA,FALSE,"VGG","E_F_Julie_Walters.png P_M_Michael_Gove.png"
NA,"E_F_Julie_Walters.png","P_M_nigel_farage.png",NA,NA,NA,NA,NA,0.916250444948673,NA,NA,NA,NA,NA,NA,NA,NA,NA,NA,FALSE,"VGG","E_F_Julie_Walters.png P_M_nigel_farage.png"
NA,"E_F_Julie_Walters.png","P_M_Sajid_Javid.png",NA,NA,NA,NA,NA,0.859453141689301,NA,NA,NA,NA,NA,NA,NA,NA,NA,NA,FALSE,"VGG","E_F_Julie_Walters.png P_M_Sajid_Javid.png"
NA,"E_F_Julie_Walters.png","P_M_Tony_Blair.png",NA,NA,NA,NA,NA,0.733971327543259,NA,NA,NA,NA,NA,NA,NA,NA,NA,NA,FALSE,"VGG","E_F_Julie_Walters.png P_M_Tony_Blair.png"
NA,"E_F_Sarah_Millican.png","E_M_Ewan_McGregor.png",NA,NA,NA,NA,NA,0.773922801017761,NA,NA,NA,NA,NA,NA,NA,NA,NA,NA,FALSE,"VGG","E_F_Sarah_Millican.png E_M_Ewan_McGregor.png"
NA,"E_F_Sarah_Millican.png","E_M_Jimmy_Carr.png",NA,NA,NA,NA,NA,0.771486461162567,NA,NA,NA,NA,NA,NA,NA,NA,NA,NA,FALSE,"VGG","E_F_Sarah_Millican.png E_M_Jimmy_Carr.png"
NA,"E_F_Sarah_Millican.png","E_M_Michael_McIntyr.png",NA,NA,NA,NA,NA,0.785267323255539,NA,NA,NA,NA,NA,NA,NA,NA,NA,NA,FALSE,"VGG","E_F_Sarah_Millican.png E_M_Michael_McIntyr.png"
NA,"E_F_Sarah_Millican.png","E_M_Peter_Kay.png",NA,NA,NA,NA,NA,0.761805415153503,NA,NA,NA,NA,NA,NA,NA,NA,NA,NA,FALSE,"VGG","E_F_Sarah_Millican.png E_M_Peter_Kay.png"
NA,"E_F_Sarah_Millican.png","E_M_Russell_Howard.png",NA,NA,NA,NA,NA,0.712011635303497,NA,NA,NA,NA,NA,NA,NA,NA,NA,NA,FALSE,"VGG","E_F_Sarah_Millican.png E_M_Russell_Howard.png"
NA,"E_F_Sarah_Millican.png","E_M_Simon_Pegg.png",NA,NA,NA,NA,NA,0.866341426968575,NA,NA,NA,NA,NA,NA,NA,NA,NA,NA,FALSE,"VGG","E_F_Sarah_Millican.png E_M_Simon_Pegg.png"
NA,"E_F_Sarah_Millican.png","P_F_nicola_sturge.png",NA,NA,NA,NA,NA,0.80655200779438,NA,NA,NA,NA,NA,NA,NA,NA,NA,NA,FALSE,"VGG","E_F_Sarah_Millican.png P_F_nicola_sturge.png"
NA,"E_F_Sarah_Millican.png","P_F_Theresa_May.png",NA,NA,NA,NA,NA,0.748690843582153,NA,NA,NA,NA,NA,NA,NA,NA,NA,NA,FALSE,"VGG","E_F_Sarah_Millican.png P_F_Theresa_May.png"
NA,"E_F_Sarah_Millican.png","P_M_david_camer.png",NA,NA,NA,NA,NA,0.721144765615463,NA,NA,NA,NA,NA,NA,NA,NA,NA,NA,FALSE,"VGG","E_F_Sarah_Millican.png P_M_david_camer.png"
NA,"E_F_Sarah_Millican.png","P_M_Gordon_Brown.png",NA,NA,NA,NA,NA,0.842670887708664,NA,NA,NA,NA,NA,NA,NA,NA,NA,NA,FALSE,"VGG","E_F_Sarah_Millican.png P_M_Gordon_Brown.png"
NA,"E_F_Sarah_Millican.png","P_M_jeremy_corbyn.png",NA,NA,NA,NA,NA,0.77888223528862,NA,NA,NA,NA,NA,NA,NA,NA,NA,NA,FALSE,"VGG","E_F_Sarah_Millican.png P_M_jeremy_corbyn.png"
NA,"E_F_Sarah_Millican.png","P_M_keir_starmer.png",NA,NA,NA,NA,NA,0.732324123382568,NA,NA,NA,NA,NA,NA,NA,NA,NA,NA,FALSE,"VGG","E_F_Sarah_Millican.png P_M_keir_starmer.png"
NA,"E_F_Sarah_Millican.png","P_M_Michael_Gove.png",NA,NA,NA,NA,NA,0.613875955343246,NA,NA,NA,NA,NA,NA,NA,NA,NA,NA,FALSE,"VGG","E_F_Sarah_Millican.png P_M_Michael_Gove.png"
NA,"E_F_Sarah_Millican.png","P_M_nigel_farage.png",NA,NA,NA,NA,NA,0.82834304869175,NA,NA,NA,NA,NA,NA,NA,NA,NA,NA,FALSE,"VGG","E_F_Sarah_Millican.png P_M_nigel_farage.png"
NA,"E_F_Sarah_Millican.png","P_M_Sajid_Javid.png",NA,NA,NA,NA,NA,0.829867139458656,NA,NA,NA,NA,NA,NA,NA,NA,NA,NA,FALSE,"VGG","E_F_Sarah_Millican.png P_M_Sajid_Javid.png"
NA,"E_F_Sarah_Millican.png","P_M_Tony_Blair.png",NA,NA,NA,NA,NA,0.888347826898098,NA,NA,NA,NA,NA,NA,NA,NA,NA,NA,FALSE,"VGG","E_F_Sarah_Millican.png P_M_Tony_Blair.png"
NA,"E_M_Ewan_McGregor.png","E_M_Jimmy_Carr.png",NA,NA,NA,NA,NA,0.714083045721054,NA,NA,NA,NA,NA,NA,NA,NA,NA,NA,FALSE,"VGG","E_M_Ewan_McGregor.png E_M_Jimmy_Carr.png"
NA,"E_M_Ewan_McGregor.png","E_M_Michael_McIntyr.png",NA,NA,NA,NA,NA,0.768178388476372,NA,NA,NA,NA,NA,NA,NA,NA,NA,NA,FALSE,"VGG","E_M_Ewan_McGregor.png E_M_Michael_McIntyr.png"
NA,"E_M_Ewan_McGregor.png","E_M_Peter_Kay.png",NA,NA,NA,NA,NA,0.710640251636505,NA,NA,NA,NA,NA,NA,NA,NA,NA,NA,FALSE,"VGG","E_M_Ewan_McGregor.png E_M_Peter_Kay.png"
NA,"E_M_Ewan_McGregor.png","E_M_Russell_Howard.png",NA,NA,NA,NA,NA,0.740577667951584,NA,NA,NA,NA,NA,NA,NA,NA,NA,NA,FALSE,"VGG","E_M_Ewan_McGregor.png E_M_Russell_Howard.png"
NA,"E_M_Ewan_McGregor.png","E_M_Simon_Pegg.png",NA,NA,NA,NA,NA,0.756024807691574,NA,NA,NA,NA,NA,NA,NA,NA,NA,NA,FALSE,"VGG","E_M_Ewan_McGregor.png E_M_Simon_Pegg.png"
NA,"E_M_Ewan_McGregor.png","P_F_nicola_sturge.png",NA,NA,NA,NA,NA,0.784142538905144,NA,NA,NA,NA,NA,NA,NA,NA,NA,NA,FALSE,"VGG","E_M_Ewan_McGregor.png P_F_nicola_sturge.png"
NA,"E_M_Ewan_McGregor.png","P_F_Theresa_May.png",NA,NA,NA,NA,NA,0.88411969691515,NA,NA,NA,NA,NA,NA,NA,NA,NA,NA,FALSE,"VGG","E_M_Ewan_McGregor.png P_F_Theresa_May.png"
NA,"E_M_Ewan_McGregor.png","P_M_david_camer.png",NA,NA,NA,NA,NA,0.639210224151611,NA,NA,NA,NA,NA,NA,NA,NA,NA,NA,FALSE,"VGG","E_M_Ewan_McGregor.png P_M_david_camer.png"
NA,"E_M_Ewan_McGregor.png","P_M_Gordon_Brown.png",NA,NA,NA,NA,NA,0.883791878819466,NA,NA,NA,NA,NA,NA,NA,NA,NA,NA,FALSE,"VGG","E_M_Ewan_McGregor.png P_M_Gordon_Brown.png"
NA,"E_M_Ewan_McGregor.png","P_M_jeremy_corbyn.png",NA,NA,NA,NA,NA,0.818126246333122,NA,NA,NA,NA,NA,NA,NA,NA,NA,NA,FALSE,"VGG","E_M_Ewan_McGregor.png P_M_jeremy_corbyn.png"
NA,"E_M_Ewan_McGregor.png","P_M_keir_starmer.png",NA,NA,NA,NA,NA,0.691236883401871,NA,NA,NA,NA,NA,NA,NA,NA,NA,NA,FALSE,"VGG","E_M_Ewan_McGregor.png P_M_keir_starmer.png"
NA,"E_M_Ewan_McGregor.png","P_M_Michael_Gove.png",NA,NA,NA,NA,NA,0.797622442245483,NA,NA,NA,NA,NA,NA,NA,NA,NA,NA,FALSE,"VGG","E_M_Ewan_McGregor.png P_M_Michael_Gove.png"
NA,"E_M_Ewan_McGregor.png","P_M_nigel_farage.png",NA,NA,NA,NA,NA,0.861417800188065,NA,NA,NA,NA,NA,NA,NA,NA,NA,NA,FALSE,"VGG","E_M_Ewan_McGregor.png P_M_nigel_farage.png"
NA,"E_M_Ewan_McGregor.png","P_M_Sajid_Javid.png",NA,NA,NA,NA,NA,0.886991523206234,NA,NA,NA,NA,NA,NA,NA,NA,NA,NA,FALSE,"VGG","E_M_Ewan_McGregor.png P_M_Sajid_Javid.png"
NA,"E_M_Ewan_McGregor.png","P_M_Tony_Blair.png",NA,NA,NA,NA,NA,0.804344356060028,NA,NA,NA,NA,NA,NA,NA,NA,NA,NA,FALSE,"VGG","E_M_Ewan_McGregor.png P_M_Tony_Blair.png"
NA,"E_M_Jimmy_Carr.png","E_M_Michael_McIntyr.png",NA,NA,NA,NA,NA,0.728396266698837,NA,NA,NA,NA,NA,NA,NA,NA,NA,NA,FALSE,"VGG","E_M_Jimmy_Carr.png E_M_Michael_McIntyr.png"
NA,"E_M_Jimmy_Carr.png","E_M_Peter_Kay.png",NA,NA,NA,NA,NA,0.829708635807037,NA,NA,NA,NA,NA,NA,NA,NA,NA,NA,FALSE,"VGG","E_M_Jimmy_Carr.png E_M_Peter_Kay.png"
NA,"E_M_Jimmy_Carr.png","E_M_Russell_Howard.png",NA,NA,NA,NA,NA,0.794187143445015,NA,NA,NA,NA,NA,NA,NA,NA,NA,NA,FALSE,"VGG","E_M_Jimmy_Carr.png E_M_Russell_Howard.png"
NA,"E_M_Jimmy_Carr.png","E_M_Simon_Pegg.png",NA,NA,NA,NA,NA,0.785491973161697,NA,NA,NA,NA,NA,NA,NA,NA,NA,NA,FALSE,"VGG","E_M_Jimmy_Carr.png E_M_Simon_Pegg.png"
NA,"E_M_Jimmy_Carr.png","P_F_nicola_sturge.png",NA,NA,NA,NA,NA,0.653826296329498,NA,NA,NA,NA,NA,NA,NA,NA,NA,NA,FALSE,"VGG","E_M_Jimmy_Carr.png P_F_nicola_sturge.png"
NA,"E_M_Jimmy_Carr.png","P_F_Theresa_May.png",NA,NA,NA,NA,NA,0.852254822850227,NA,NA,NA,NA,NA,NA,NA,NA,NA,NA,FALSE,"VGG","E_M_Jimmy_Carr.png P_F_Theresa_May.png"
NA,"E_M_Jimmy_Carr.png","P_M_david_camer.png",NA,NA,NA,NA,NA,0.83753576874733,NA,NA,NA,NA,NA,NA,NA,NA,NA,NA,FALSE,"VGG","E_M_Jimmy_Carr.png P_M_david_camer.png"
NA,"E_M_Jimmy_Carr.png","P_M_Gordon_Brown.png",NA,NA,NA,NA,NA,0.672398298978806,NA,NA,NA,NA,NA,NA,NA,NA,NA,NA,FALSE,"VGG","E_M_Jimmy_Carr.png P_M_Gordon_Brown.png"
NA,"E_M_Jimmy_Carr.png","P_M_jeremy_corbyn.png",NA,NA,NA,NA,NA,0.863229036331177,NA,NA,NA,NA,NA,NA,NA,NA,NA,NA,FALSE,"VGG","E_M_Jimmy_Carr.png P_M_jeremy_corbyn.png"
NA,"E_M_Jimmy_Carr.png","P_M_keir_starmer.png",NA,NA,NA,NA,NA,0.673296809196472,NA,NA,NA,NA,NA,NA,NA,NA,NA,NA,FALSE,"VGG","E_M_Jimmy_Carr.png P_M_keir_starmer.png"
NA,"E_M_Jimmy_Carr.png","P_M_Michael_Gove.png",NA,NA,NA,NA,NA,0.788284167647362,NA,NA,NA,NA,NA,NA,NA,NA,NA,NA,FALSE,"VGG","E_M_Jimmy_Carr.png P_M_Michael_Gove.png"
NA,"E_M_Jimmy_Carr.png","P_M_nigel_farage.png",NA,NA,NA,NA,NA,0.779314458370209,NA,NA,NA,NA,NA,NA,NA,NA,NA,NA,FALSE,"VGG","E_M_Jimmy_Carr.png P_M_nigel_farage.png"
NA,"E_M_Jimmy_Carr.png","P_M_Sajid_Javid.png",NA,NA,NA,NA,NA,0.88078685849905,NA,NA,NA,NA,NA,NA,NA,NA,NA,NA,FALSE,"VGG","E_M_Jimmy_Carr.png P_M_Sajid_Javid.png"
NA,"E_M_Jimmy_Carr.png","P_M_Tony_Blair.png",NA,NA,NA,NA,NA,0.764411941170692,NA,NA,NA,NA,NA,NA,NA,NA,NA,NA,FALSE,"VGG","E_M_Jimmy_Carr.png P_M_Tony_Blair.png"
NA,"E_M_Michael_McIntyr.png","E_M_Peter_Kay.png",NA,NA,NA,NA,NA,0.769557997584343,NA,NA,NA,NA,NA,NA,NA,NA,NA,NA,FALSE,"VGG","E_M_Michael_McIntyr.png E_M_Peter_Kay.png"
NA,"E_M_Michael_McIntyr.png","E_M_Russell_Howard.png",NA,NA,NA,NA,NA,0.737520754337311,NA,NA,NA,NA,NA,NA,NA,NA,NA,NA,FALSE,"VGG","E_M_Michael_McIntyr.png E_M_Russell_Howard.png"
NA,"E_M_Michael_McIntyr.png","E_M_Simon_Pegg.png",NA,NA,NA,NA,NA,0.837521240115166,NA,NA,NA,NA,NA,NA,NA,NA,NA,NA,FALSE,"VGG","E_M_Michael_McIntyr.png E_M_Simon_Pegg.png"
NA,"E_M_Michael_McIntyr.png","P_F_nicola_sturge.png",NA,NA,NA,NA,NA,0.820327654480934,NA,NA,NA,NA,NA,NA,NA,NA,NA,NA,FALSE,"VGG","E_M_Michael_McIntyr.png P_F_nicola_sturge.png"
NA,"E_M_Michael_McIntyr.png","P_F_Theresa_May.png",NA,NA,NA,NA,NA,0.756956502795219,NA,NA,NA,NA,NA,NA,NA,NA,NA,NA,FALSE,"VGG","E_M_Michael_McIntyr.png P_F_Theresa_May.png"
NA,"E_M_Michael_McIntyr.png","P_M_david_camer.png",NA,NA,NA,NA,NA,0.732118189334869,NA,NA,NA,NA,NA,NA,NA,NA,NA,NA,FALSE,"VGG","E_M_Michael_McIntyr.png P_M_david_camer.png"
NA,"E_M_Michael_McIntyr.png","P_M_Gordon_Brown.png",NA,NA,NA,NA,NA,0.743585675954819,NA,NA,NA,NA,NA,NA,NA,NA,NA,NA,FALSE,"VGG","E_M_Michael_McIntyr.png P_M_Gordon_Brown.png"
NA,"E_M_Michael_McIntyr.png","P_M_jeremy_corbyn.png",NA,NA,NA,NA,NA,0.829135105013847,NA,NA,NA,NA,NA,NA,NA,NA,NA,NA,FALSE,"VGG","E_M_Michael_McIntyr.png P_M_jeremy_corbyn.png"
NA,"E_M_Michael_McIntyr.png","P_M_keir_starmer.png",NA,NA,NA,NA,NA,0.749467611312866,NA,NA,NA,NA,NA,NA,NA,NA,NA,NA,FALSE,"VGG","E_M_Michael_McIntyr.png P_M_keir_starmer.png"
NA,"E_M_Michael_McIntyr.png","P_M_Michael_Gove.png",NA,NA,NA,NA,NA,0.709821224212646,NA,NA,NA,NA,NA,NA,NA,NA,NA,NA,FALSE,"VGG","E_M_Michael_McIntyr.png P_M_Michael_Gove.png"
NA,"E_M_Michael_McIntyr.png","P_M_nigel_farage.png",NA,NA,NA,NA,NA,0.602394074201584,NA,NA,NA,NA,NA,NA,NA,NA,NA,NA,FALSE,"VGG","E_M_Michael_McIntyr.png P_M_nigel_farage.png"
NA,"E_M_Michael_McIntyr.png","P_M_Sajid_Javid.png",NA,NA,NA,NA,NA,0.897032238543034,NA,NA,NA,NA,NA,NA,NA,NA,NA,NA,FALSE,"VGG","E_M_Michael_McIntyr.png P_M_Sajid_Javid.png"
NA,"E_M_Michael_McIntyr.png","P_M_Tony_Blair.png",NA,NA,NA,NA,NA,0.7884371727705,NA,NA,NA,NA,NA,NA,NA,NA,NA,NA,FALSE,"VGG","E_M_Michael_McIntyr.png P_M_Tony_Blair.png"
NA,"E_M_Peter_Kay.png","E_M_Russell_Howard.png",NA,NA,NA,NA,NA,0.79962021112442,NA,NA,NA,NA,NA,NA,NA,NA,NA,NA,FALSE,"VGG","E_M_Peter_Kay.png E_M_Russell_Howard.png"
NA,"E_M_Peter_Kay.png","E_M_Simon_Pegg.png",NA,NA,NA,NA,NA,0.8106799274683,NA,NA,NA,NA,NA,NA,NA,NA,NA,NA,FALSE,"VGG","E_M_Peter_Kay.png E_M_Simon_Pegg.png"
NA,"E_M_Peter_Kay.png","P_F_nicola_sturge.png",NA,NA,NA,NA,NA,0.673406571149826,NA,NA,NA,NA,NA,NA,NA,NA,NA,NA,FALSE,"VGG","E_M_Peter_Kay.png P_F_nicola_sturge.png"
NA,"E_M_Peter_Kay.png","P_F_Theresa_May.png",NA,NA,NA,NA,NA,0.757760018110275,NA,NA,NA,NA,NA,NA,NA,NA,NA,NA,FALSE,"VGG","E_M_Peter_Kay.png P_F_Theresa_May.png"
NA,"E_M_Peter_Kay.png","P_M_david_camer.png",NA,NA,NA,NA,NA,0.691277414560318,NA,NA,NA,NA,NA,NA,NA,NA,NA,NA,FALSE,"VGG","E_M_Peter_Kay.png P_M_david_camer.png"
NA,"E_M_Peter_Kay.png","P_M_Gordon_Brown.png",NA,NA,NA,NA,NA,0.806809425354004,NA,NA,NA,NA,NA,NA,NA,NA,NA,NA,FALSE,"VGG","E_M_Peter_Kay.png P_M_Gordon_Brown.png"
NA,"E_M_Peter_Kay.png","P_M_jeremy_corbyn.png",NA,NA,NA,NA,NA,0.757487431168556,NA,NA,NA,NA,NA,NA,NA,NA,NA,NA,FALSE,"VGG","E_M_Peter_Kay.png P_M_jeremy_corbyn.png"
NA,"E_M_Peter_Kay.png","P_M_keir_starmer.png",NA,NA,NA,NA,NA,0.771003350615501,NA,NA,NA,NA,NA,NA,NA,NA,NA,NA,FALSE,"VGG","E_M_Peter_Kay.png P_M_keir_starmer.png"
NA,"E_M_Peter_Kay.png","P_M_Michael_Gove.png",NA,NA,NA,NA,NA,0.793924435973167,NA,NA,NA,NA,NA,NA,NA,NA,NA,NA,FALSE,"VGG","E_M_Peter_Kay.png P_M_Michael_Gove.png"
NA,"E_M_Peter_Kay.png","P_M_nigel_farage.png",NA,NA,NA,NA,NA,0.895556971430779,NA,NA,NA,NA,NA,NA,NA,NA,NA,NA,FALSE,"VGG","E_M_Peter_Kay.png P_M_nigel_farage.png"
NA,"E_M_Peter_Kay.png","P_M_Sajid_Javid.png",NA,NA,NA,NA,NA,0.862368673086166,NA,NA,NA,NA,NA,NA,NA,NA,NA,NA,FALSE,"VGG","E_M_Peter_Kay.png P_M_Sajid_Javid.png"
NA,"E_M_Peter_Kay.png","P_M_Tony_Blair.png",NA,NA,NA,NA,NA,0.882386341691017,NA,NA,NA,NA,NA,NA,NA,NA,NA,NA,FALSE,"VGG","E_M_Peter_Kay.png P_M_Tony_Blair.png"
NA,"E_M_Russell_Howard.png","E_M_Simon_Pegg.png",NA,NA,NA,NA,NA,0.829174354672432,NA,NA,NA,NA,NA,NA,NA,NA,NA,NA,FALSE,"VGG","E_M_Russell_Howard.png E_M_Simon_Pegg.png"
NA,"E_M_Russell_Howard.png","P_F_nicola_sturge.png",NA,NA,NA,NA,NA,0.849430188536644,NA,NA,NA,NA,NA,NA,NA,NA,NA,NA,FALSE,"VGG","E_M_Russell_Howard.png P_F_nicola_sturge.png"
NA,"E_M_Russell_Howard.png","P_F_Theresa_May.png",NA,NA,NA,NA,NA,0.883925393223763,NA,NA,NA,NA,NA,NA,NA,NA,NA,NA,FALSE,"VGG","E_M_Russell_Howard.png P_F_Theresa_May.png"
NA,"E_M_Russell_Howard.png","P_M_david_camer.png",NA,NA,NA,NA,NA,0.643934041261673,NA,NA,NA,NA,NA,NA,NA,NA,NA,NA,FALSE,"VGG","E_M_Russell_Howard.png P_M_david_camer.png"
NA,"E_M_Russell_Howard.png","P_M_Gordon_Brown.png",NA,NA,NA,NA,NA,0.748203784227371,NA,NA,NA,NA,NA,NA,NA,NA,NA,NA,FALSE,"VGG","E_M_Russell_Howard.png P_M_Gordon_Brown.png"
NA,"E_M_Russell_Howard.png","P_M_jeremy_corbyn.png",NA,NA,NA,NA,NA,0.826104387640953,NA,NA,NA,NA,NA,NA,NA,NA,NA,NA,FALSE,"VGG","E_M_Russell_Howard.png P_M_jeremy_corbyn.png"
NA,"E_M_Russell_Howard.png","P_M_keir_starmer.png",NA,NA,NA,NA,NA,0.63762840628624,NA,NA,NA,NA,NA,NA,NA,NA,NA,NA,FALSE,"VGG","E_M_Russell_Howard.png P_M_keir_starmer.png"
NA,"E_M_Russell_Howard.png","P_M_Michael_Gove.png",NA,NA,NA,NA,NA,0.820514336228371,NA,NA,NA,NA,NA,NA,NA,NA,NA,NA,FALSE,"VGG","E_M_Russell_Howard.png P_M_Michael_Gove.png"
NA,"E_M_Russell_Howard.png","P_M_nigel_farage.png",NA,NA,NA,NA,NA,0.797992959618568,NA,NA,NA,NA,NA,NA,NA,NA,NA,NA,FALSE,"VGG","E_M_Russell_Howard.png P_M_nigel_farage.png"
NA,"E_M_Russell_Howard.png","P_M_Sajid_Javid.png",NA,NA,NA,NA,NA,0.88375049829483,NA,NA,NA,NA,NA,NA,NA,NA,NA,NA,FALSE,"VGG","E_M_Russell_Howard.png P_M_Sajid_Javid.png"
NA,"E_M_Russell_Howard.png","P_M_Tony_Blair.png",NA,NA,NA,NA,NA,0.729414761066437,NA,NA,NA,NA,NA,NA,NA,NA,NA,NA,FALSE,"VGG","E_M_Russell_Howard.png P_M_Tony_Blair.png"
NA,"E_M_Simon_Pegg.png","P_F_nicola_sturge.png",NA,NA,NA,NA,NA,0.757698848843575,NA,NA,NA,NA,NA,NA,NA,NA,NA,NA,FALSE,"VGG","E_M_Simon_Pegg.png P_F_nicola_sturge.png"
NA,"E_M_Simon_Pegg.png","P_F_Theresa_May.png",NA,NA,NA,NA,NA,0.815382644534111,NA,NA,NA,NA,NA,NA,NA,NA,NA,NA,FALSE,"VGG","E_M_Simon_Pegg.png P_F_Theresa_May.png"
NA,"E_M_Simon_Pegg.png","P_M_david_camer.png",NA,NA,NA,NA,NA,0.771161198616028,NA,NA,NA,NA,NA,NA,NA,NA,NA,NA,FALSE,"VGG","E_M_Simon_Pegg.png P_M_david_camer.png"
NA,"E_M_Simon_Pegg.png","P_M_Gordon_Brown.png",NA,NA,NA,NA,NA,0.725621461868286,NA,NA,NA,NA,NA,NA,NA,NA,NA,NA,FALSE,"VGG","E_M_Simon_Pegg.png P_M_Gordon_Brown.png"
NA,"E_M_Simon_Pegg.png","P_M_jeremy_corbyn.png",NA,NA,NA,NA,NA,0.763011053204536,NA,NA,NA,NA,NA,NA,NA,NA,NA,NA,FALSE,"VGG","E_M_Simon_Pegg.png P_M_jeremy_corbyn.png"
NA,"E_M_Simon_Pegg.png","P_M_keir_starmer.png",NA,NA,NA,NA,NA,0.811446949839592,NA,NA,NA,NA,NA,NA,NA,NA,NA,NA,FALSE,"VGG","E_M_Simon_Pegg.png P_M_keir_starmer.png"
NA,"E_M_Simon_Pegg.png","P_M_Michael_Gove.png",NA,NA,NA,NA,NA,0.77421461045742,NA,NA,NA,NA,NA,NA,NA,NA,NA,NA,FALSE,"VGG","E_M_Simon_Pegg.png P_M_Michael_Gove.png"
NA,"E_M_Simon_Pegg.png","P_M_nigel_farage.png",NA,NA,NA,NA,NA,0.732946157455444,NA,NA,NA,NA,NA,NA,NA,NA,NA,NA,FALSE,"VGG","E_M_Simon_Pegg.png P_M_nigel_farage.png"
NA,"E_M_Simon_Pegg.png","P_M_Sajid_Javid.png",NA,NA,NA,NA,NA,0.813398584723473,NA,NA,NA,NA,NA,NA,NA,NA,NA,NA,FALSE,"VGG","E_M_Simon_Pegg.png P_M_Sajid_Javid.png"
NA,"E_M_Simon_Pegg.png","P_M_Tony_Blair.png",NA,NA,NA,NA,NA,0.745832651853561,NA,NA,NA,NA,NA,NA,NA,NA,NA,NA,FALSE,"VGG","E_M_Simon_Pegg.png P_M_Tony_Blair.png"
NA,"P_F_nicola_sturge.png","P_F_Theresa_May.png",NA,NA,NA,NA,NA,0.693399280309677,NA,NA,NA,NA,NA,NA,NA,NA,NA,NA,FALSE,"VGG","P_F_nicola_sturge.png P_F_Theresa_May.png"
NA,"P_F_nicola_sturge.png","P_M_david_camer.png",NA,NA,NA,NA,NA,0.780236423015594,NA,NA,NA,NA,NA,NA,NA,NA,NA,NA,FALSE,"VGG","P_F_nicola_sturge.png P_M_david_camer.png"
NA,"P_F_nicola_sturge.png","P_M_Gordon_Brown.png",NA,NA,NA,NA,NA,0.79700842499733,NA,NA,NA,NA,NA,NA,NA,NA,NA,NA,FALSE,"VGG","P_F_nicola_sturge.png P_M_Gordon_Brown.png"
NA,"P_F_nicola_sturge.png","P_M_jeremy_corbyn.png",NA,NA,NA,NA,NA,0.858184039592743,NA,NA,NA,NA,NA,NA,NA,NA,NA,NA,FALSE,"VGG","P_F_nicola_sturge.png P_M_jeremy_corbyn.png"
NA,"P_F_nicola_sturge.png","P_M_keir_starmer.png",NA,NA,NA,NA,NA,0.817297026515007,NA,NA,NA,NA,NA,NA,NA,NA,NA,NA,FALSE,"VGG","P_F_nicola_sturge.png P_M_keir_starmer.png"
NA,"P_F_nicola_sturge.png","P_M_Michael_Gove.png",NA,NA,NA,NA,NA,0.825779348611832,NA,NA,NA,NA,NA,NA,NA,NA,NA,NA,FALSE,"VGG","P_F_nicola_sturge.png P_M_Michael_Gove.png"
NA,"P_F_nicola_sturge.png","P_M_nigel_farage.png",NA,NA,NA,NA,NA,0.858091488480568,NA,NA,NA,NA,NA,NA,NA,NA,NA,NA,FALSE,"VGG","P_F_nicola_sturge.png P_M_nigel_farage.png"
NA,"P_F_nicola_sturge.png","P_M_Sajid_Javid.png",NA,NA,NA,NA,NA,0.880210787057877,NA,NA,NA,NA,NA,NA,NA,NA,NA,NA,FALSE,"VGG","P_F_nicola_sturge.png P_M_Sajid_Javid.png"
NA,"P_F_nicola_sturge.png","P_M_Tony_Blair.png",NA,NA,NA,NA,NA,0.853706702589989,NA,NA,NA,NA,NA,NA,NA,NA,NA,NA,FALSE,"VGG","P_F_nicola_sturge.png P_M_Tony_Blair.png"
NA,"P_F_Theresa_May.png","P_M_david_camer.png",NA,NA,NA,NA,NA,0.817807003855705,NA,NA,NA,NA,NA,NA,NA,NA,NA,NA,FALSE,"VGG","P_F_Theresa_May.png P_M_david_camer.png"
NA,"P_F_Theresa_May.png","P_M_Gordon_Brown.png",NA,NA,NA,NA,NA,0.873758837580681,NA,NA,NA,NA,NA,NA,NA,NA,NA,NA,FALSE,"VGG","P_F_Theresa_May.png P_M_Gordon_Brown.png"
NA,"P_F_Theresa_May.png","P_M_jeremy_corbyn.png",NA,NA,NA,NA,NA,0.59512534737587,NA,NA,NA,NA,NA,NA,NA,NA,NA,NA,FALSE,"VGG","P_F_Theresa_May.png P_M_jeremy_corbyn.png"
NA,"P_F_Theresa_May.png","P_M_keir_starmer.png",NA,NA,NA,NA,NA,0.889760844409466,NA,NA,NA,NA,NA,NA,NA,NA,NA,NA,FALSE,"VGG","P_F_Theresa_May.png P_M_keir_starmer.png"
NA,"P_F_Theresa_May.png","P_M_Michael_Gove.png",NA,NA,NA,NA,NA,0.626376032829285,NA,NA,NA,NA,NA,NA,NA,NA,NA,NA,FALSE,"VGG","P_F_Theresa_May.png P_M_Michael_Gove.png"
NA,"P_F_Theresa_May.png","P_M_nigel_farage.png",NA,NA,NA,NA,NA,0.72827821969986,NA,NA,NA,NA,NA,NA,NA,NA,NA,NA,FALSE,"VGG","P_F_Theresa_May.png P_M_nigel_farage.png"
NA,"P_F_Theresa_May.png","P_M_Sajid_Javid.png",NA,NA,NA,NA,NA,0.861206665635109,NA,NA,NA,NA,NA,NA,NA,NA,NA,NA,FALSE,"VGG","P_F_Theresa_May.png P_M_Sajid_Javid.png"
NA,"P_F_Theresa_May.png","P_M_Tony_Blair.png",NA,NA,NA,NA,NA,0.784793004393578,NA,NA,NA,NA,NA,NA,NA,NA,NA,NA,FALSE,"VGG","P_F_Theresa_May.png P_M_Tony_Blair.png"
NA,"P_M_david_camer.png","P_M_Gordon_Brown.png",NA,NA,NA,NA,NA,0.780092865228653,NA,NA,NA,NA,NA,NA,NA,NA,NA,NA,FALSE,"VGG","P_M_david_camer.png P_M_Gordon_Brown.png"
NA,"P_M_david_camer.png","P_M_jeremy_corbyn.png",NA,NA,NA,NA,NA,0.674891501665115,NA,NA,NA,NA,NA,NA,NA,NA,NA,NA,FALSE,"VGG","P_M_david_camer.png P_M_jeremy_corbyn.png"
NA,"P_M_david_camer.png","P_M_keir_starmer.png",NA,NA,NA,NA,NA,0.7196384370327,NA,NA,NA,NA,NA,NA,NA,NA,NA,NA,FALSE,"VGG","P_M_david_camer.png P_M_keir_starmer.png"
NA,"P_M_david_camer.png","P_M_Michael_Gove.png",NA,NA,NA,NA,NA,0.715657770633698,NA,NA,NA,NA,NA,NA,NA,NA,NA,NA,FALSE,"VGG","P_M_david_camer.png P_M_Michael_Gove.png"
NA,"P_M_david_camer.png","P_M_nigel_farage.png",NA,NA,NA,NA,NA,0.820562407374382,NA,NA,NA,NA,NA,NA,NA,NA,NA,NA,FALSE,"VGG","P_M_david_camer.png P_M_nigel_farage.png"
NA,"P_M_david_camer.png","P_M_Sajid_Javid.png",NA,NA,NA,NA,NA,0.85862797498703,NA,NA,NA,NA,NA,NA,NA,NA,NA,NA,FALSE,"VGG","P_M_david_camer.png P_M_Sajid_Javid.png"
NA,"P_M_david_camer.png","P_M_Tony_Blair.png",NA,NA,NA,NA,NA,0.679038524627686,NA,NA,NA,NA,NA,NA,NA,NA,NA,NA,FALSE,"VGG","P_M_david_camer.png P_M_Tony_Blair.png"
NA,"P_M_Gordon_Brown.png","P_M_jeremy_corbyn.png",NA,NA,NA,NA,NA,0.724448949098587,NA,NA,NA,NA,NA,NA,NA,NA,NA,NA,FALSE,"VGG","P_M_Gordon_Brown.png P_M_jeremy_corbyn.png"
NA,"P_M_Gordon_Brown.png","P_M_keir_starmer.png",NA,NA,NA,NA,NA,0.765332490205765,NA,NA,NA,NA,NA,NA,NA,NA,NA,NA,FALSE,"VGG","P_M_Gordon_Brown.png P_M_keir_starmer.png"
NA,"P_M_Gordon_Brown.png","P_M_Michael_Gove.png",NA,NA,NA,NA,NA,0.88904082775116,NA,NA,NA,NA,NA,NA,NA,NA,NA,NA,FALSE,"VGG","P_M_Gordon_Brown.png P_M_Michael_Gove.png"
NA,"P_M_Gordon_Brown.png","P_M_nigel_farage.png",NA,NA,NA,NA,NA,0.658099800348282,NA,NA,NA,NA,NA,NA,NA,NA,NA,NA,FALSE,"VGG","P_M_Gordon_Brown.png P_M_nigel_farage.png"
NA,"P_M_Gordon_Brown.png","P_M_Sajid_Javid.png",NA,NA,NA,NA,NA,0.886001378297806,NA,NA,NA,NA,NA,NA,NA,NA,NA,NA,FALSE,"VGG","P_M_Gordon_Brown.png P_M_Sajid_Javid.png"
NA,"P_M_Gordon_Brown.png","P_M_Tony_Blair.png",NA,NA,NA,NA,NA,0.644323259592056,NA,NA,NA,NA,NA,NA,NA,NA,NA,NA,FALSE,"VGG","P_M_Gordon_Brown.png P_M_Tony_Blair.png"
NA,"P_M_jeremy_corbyn.png","P_M_keir_starmer.png",NA,NA,NA,NA,NA,0.858866021037102,NA,NA,NA,NA,NA,NA,NA,NA,NA,NA,FALSE,"VGG","P_M_jeremy_corbyn.png P_M_keir_starmer.png"
NA,"P_M_jeremy_corbyn.png","P_M_Michael_Gove.png",NA,NA,NA,NA,NA,0.741520524024963,NA,NA,NA,NA,NA,NA,NA,NA,NA,NA,FALSE,"VGG","P_M_jeremy_corbyn.png P_M_Michael_Gove.png"
NA,"P_M_jeremy_corbyn.png","P_M_nigel_farage.png",NA,NA,NA,NA,NA,0.681081831455231,NA,NA,NA,NA,NA,NA,NA,NA,NA,NA,FALSE,"VGG","P_M_jeremy_corbyn.png P_M_nigel_farage.png"
NA,"P_M_jeremy_corbyn.png","P_M_Sajid_Javid.png",NA,NA,NA,NA,NA,0.898574456572533,NA,NA,NA,NA,NA,NA,NA,NA,NA,NA,FALSE,"VGG","P_M_jeremy_corbyn.png P_M_Sajid_Javid.png"
NA,"P_M_jeremy_corbyn.png","P_M_Tony_Blair.png",NA,NA,NA,NA,NA,0.761544585227966,NA,NA,NA,NA,NA,NA,NA,NA,NA,NA,FALSE,"VGG","P_M_jeremy_corbyn.png P_M_Tony_Blair.png"
NA,"P_M_keir_starmer.png","P_M_Michael_Gove.png",NA,NA,NA,NA,NA,0.849286258220673,NA,NA,NA,NA,NA,NA,NA,NA,NA,NA,FALSE,"VGG","P_M_keir_starmer.png P_M_Michael_Gove.png"
NA,"P_M_keir_starmer.png","P_M_nigel_farage.png",NA,NA,NA,NA,NA,0.779057785868645,NA,NA,NA,NA,NA,NA,NA,NA,NA,NA,FALSE,"VGG","P_M_keir_starmer.png P_M_nigel_farage.png"
NA,"P_M_keir_starmer.png","P_M_Sajid_Javid.png",NA,NA,NA,NA,NA,0.754953190684319,NA,NA,NA,NA,NA,NA,NA,NA,NA,NA,FALSE,"VGG","P_M_keir_starmer.png P_M_Sajid_Javid.png"
NA,"P_M_keir_starmer.png","P_M_Tony_Blair.png",NA,NA,NA,NA,NA,0.734720319509506,NA,NA,NA,NA,NA,NA,NA,NA,NA,NA,FALSE,"VGG","P_M_keir_starmer.png P_M_Tony_Blair.png"
NA,"P_M_Michael_Gove.png","P_M_nigel_farage.png",NA,NA,NA,NA,NA,0.683245807886124,NA,NA,NA,NA,NA,NA,NA,NA,NA,NA,FALSE,"VGG","P_M_Michael_Gove.png P_M_nigel_farage.png"
NA,"P_M_Michael_Gove.png","P_M_Sajid_Javid.png",NA,NA,NA,NA,NA,0.790545031428337,NA,NA,NA,NA,NA,NA,NA,NA,NA,NA,FALSE,"VGG","P_M_Michael_Gove.png P_M_Sajid_Javid.png"
NA,"P_M_Michael_Gove.png","P_M_Tony_Blair.png",NA,NA,NA,NA,NA,0.772765532135963,NA,NA,NA,NA,NA,NA,NA,NA,NA,NA,FALSE,"VGG","P_M_Michael_Gove.png P_M_Tony_Blair.png"
NA,"P_M_nigel_farage.png","P_M_Sajid_Javid.png",NA,NA,NA,NA,NA,0.792933568358421,NA,NA,NA,NA,NA,NA,NA,NA,NA,NA,FALSE,"VGG","P_M_nigel_farage.png P_M_Sajid_Javid.png"
NA,"P_M_nigel_farage.png","P_M_Tony_Blair.png",NA,NA,NA,NA,NA,0.718870222568512,NA,NA,NA,NA,NA,NA,NA,NA,NA,NA,FALSE,"VGG","P_M_nigel_farage.png P_M_Tony_Blair.png"
NA,"P_M_Sajid_Javid.png","P_M_Tony_Blair.png",NA,NA,NA,NA,NA,0.795955196022987,NA,NA,NA,NA,NA,NA,NA,NA,NA,NA,FALSE,"VGG","P_M_Sajid_Javid.png P_M_Tony_Blair.png"
