"RT","img_1","img_2","isSameProffesion","img1proffesion","img2proffesion","img1Gender","img2Gender","keyPressed","participant","time","normlised_keyPress","age","gender","handedness","isFamiliar_img1","isFamiliar_img2","vividness_img1","vividness_img2","reject_trial","pair"
5179,"E_M_Jimmy_Carr.png","P_M_Tony_Blair.png","FALSE","pictures/stimuli/E","pictures/stimuli/P","M","M","6","55d24bb75bc5bc0005d9050d","06/30/2022, 15:08:20",0.731401775493896,"33","Male","right",1,1,0,0,FALSE,"E_M_Jimmy_Carr.png P_M_Tony_Blair.png"
2458,"E_M_Peter_Kay.png","E_M_Russell_Howard.png","TRUE","pictures/stimuli/E","pictures/stimuli/E","M","M","6","55d24bb75bc5bc0005d9050d","06/30/2022, 15:08:20",0.731401775493896,"33","Male","right",1,1,0,0,FALSE,"E_M_Peter_Kay.png E_M_Russell_Howard.png"
3880,"E_F_Julie_Walters.png","P_M_Tony_Blair.png","FALSE","pictures/stimuli/E","pictures/stimuli/P","F","M","5","55d24bb75bc5bc0005d9050d","06/30/2022, 15:08:20",0.0365700887746946,"33","Male","right",0,1,0,0,TRUE,"E_F_Julie_Walters.png P_M_Tony_Blair.png"
4411,"E_M_Michael_McIntyr.png","P_M_david_camer.png","FALSE","pictures/stimuli/E","pictures/stimuli/P","M","M","2","55d24bb75bc5bc0005d9050d","06/30/2022, 15:08:20",-2.04792497138291,"33","Male","right",1,1,0,0,FALSE,"E_M_Michael_McIntyr.png P_M_david_camer.png"
4072,"P_M_jeremy_corbyn.png","P_M_Sajid_Javid.png","TRUE","pictures/stimuli/P","pictures/stimuli/P","M","M","6","55d24bb75bc5bc0005d9050d","06/30/2022, 15:08:20",0.731401775493896,"33","Male","right",1,1,0,0,FALSE,"P_M_jeremy_corbyn.png P_M_Sajid_Javid.png"
3037,"E_F_Dawn_Roma_French.png","E_M_Peter_Kay.png","TRUE","pictures/stimuli/E","pictures/stimuli/E","F","M","6","55d24bb75bc5bc0005d9050d","06/30/2022, 15:08:20",0.731401775493896,"33","Male","right",0,1,0,0,TRUE,"E_F_Dawn_Roma_French.png E_M_Peter_Kay.png"
4708,"E_F_Jennifer_Saunders.png","E_F_Sarah_Millican.png","TRUE","pictures/stimuli/E","pictures/stimuli/E","F","F","6","55d24bb75bc5bc0005d9050d","06/30/2022, 15:08:20",0.731401775493896,"33","Male","right",0,1,0,0,TRUE,"E_F_Jennifer_Saunders.png E_F_Sarah_Millican.png"
2319,"E_M_Russell_Howard.png","P_F_Theresa_May.png","FALSE","pictures/stimuli/E","pictures/stimuli/P","M","F","6","55d24bb75bc5bc0005d9050d","06/30/2022, 15:08:20",0.731401775493896,"33","Male","right",1,1,0,0,FALSE,"E_M_Russell_Howard.png P_F_Theresa_May.png"
2693,"E_F_Dawn_Roma_French.png","E_M_Russell_Howard.png","TRUE","pictures/stimuli/E","pictures/stimuli/E","F","M","6","55d24bb75bc5bc0005d9050d","06/30/2022, 15:08:20",0.731401775493896,"33","Male","right",0,1,0,0,TRUE,"E_F_Dawn_Roma_French.png E_M_Russell_Howard.png"
2670,"P_M_david_camer.png","P_M_Michael_Gove.png","TRUE","pictures/stimuli/P","pictures/stimuli/P","M","M","6","55d24bb75bc5bc0005d9050d","06/30/2022, 15:08:20",0.731401775493896,"33","Male","right",1,0,0,0,TRUE,"P_M_david_camer.png P_M_Michael_Gove.png"
2040,"E_F_Julie_Walters.png","E_M_Michael_McIntyr.png","TRUE","pictures/stimuli/E","pictures/stimuli/E","F","M","6","55d24bb75bc5bc0005d9050d","06/30/2022, 15:08:20",0.731401775493896,"33","Male","right",0,1,0,0,TRUE,"E_F_Julie_Walters.png E_M_Michael_McIntyr.png"
2064,"E_F_Dawn_Roma_French.png","P_M_Tony_Blair.png","FALSE","pictures/stimuli/E","pictures/stimuli/P","F","M","6","55d24bb75bc5bc0005d9050d","06/30/2022, 15:08:20",0.731401775493896,"33","Male","right",0,1,0,0,TRUE,"E_F_Dawn_Roma_French.png P_M_Tony_Blair.png"
2216,"E_M_Peter_Kay.png","P_M_keir_starmer.png","FALSE","pictures/stimuli/E","pictures/stimuli/P","M","M","3","55d24bb75bc5bc0005d9050d","06/30/2022, 15:08:20",-1.35309328466371,"33","Male","right",1,1,0,0,FALSE,"E_M_Peter_Kay.png P_M_keir_starmer.png"
2418,"E_F_Julie_Walters.png","E_M_Ewan_McGregor.png","TRUE","pictures/stimuli/E","pictures/stimuli/E","F","M","6","55d24bb75bc5bc0005d9050d","06/30/2022, 15:08:20",0.731401775493896,"33","Male","right",0,0,0,0,TRUE,"E_F_Julie_Walters.png E_M_Ewan_McGregor.png"
2928,"E_M_Michael_McIntyr.png","P_M_nigel_farage.png","FALSE","pictures/stimuli/E","pictures/stimuli/P","M","M","6","55d24bb75bc5bc0005d9050d","06/30/2022, 15:08:20",0.731401775493896,"33","Male","right",1,1,0,0,FALSE,"E_M_Michael_McIntyr.png P_M_nigel_farage.png"
2164,"E_F_Dawn_Roma_French.png","P_M_david_camer.png","FALSE","pictures/stimuli/E","pictures/stimuli/P","F","M","2","55d24bb75bc5bc0005d9050d","06/30/2022, 15:08:20",-2.04792497138291,"33","Male","right",0,1,0,0,TRUE,"E_F_Dawn_Roma_French.png P_M_david_camer.png"
2857,"P_M_Michael_Gove.png","P_M_Tony_Blair.png","TRUE","pictures/stimuli/P","pictures/stimuli/P","M","M","5","55d24bb75bc5bc0005d9050d","06/30/2022, 15:08:20",0.0365700887746946,"33","Male","right",0,1,0,0,TRUE,"P_M_Michael_Gove.png P_M_Tony_Blair.png"
3060,"E_M_Jimmy_Carr.png","E_M_Peter_Kay.png","TRUE","pictures/stimuli/E","pictures/stimuli/E","M","M","4","55d24bb75bc5bc0005d9050d","06/30/2022, 15:08:20",-0.658261597944507,"33","Male","right",1,1,0,0,FALSE,"E_M_Jimmy_Carr.png E_M_Peter_Kay.png"
1938,"E_M_Jimmy_Carr.png","P_M_nigel_farage.png","FALSE","pictures/stimuli/E","pictures/stimuli/P","M","M","4","55d24bb75bc5bc0005d9050d","06/30/2022, 15:08:20",-0.658261597944507,"33","Male","right",1,1,0,0,FALSE,"E_M_Jimmy_Carr.png P_M_nigel_farage.png"
1328,"E_M_Peter_Kay.png","P_M_Gordon_Brown.png","FALSE","pictures/stimuli/E","pictures/stimuli/P","M","M","5","55d24bb75bc5bc0005d9050d","06/30/2022, 15:08:20",0.0365700887746946,"33","Male","right",1,1,0,0,FALSE,"E_M_Peter_Kay.png P_M_Gordon_Brown.png"
1012,"E_M_Ewan_McGregor.png","E_M_Peter_Kay.png","TRUE","pictures/stimuli/E","pictures/stimuli/E","M","M","3","55d24bb75bc5bc0005d9050d","06/30/2022, 15:08:20",-1.35309328466371,"33","Male","right",0,1,0,0,TRUE,"E_M_Ewan_McGregor.png E_M_Peter_Kay.png"
1921,"E_F_Jennifer_Saunders.png","E_M_Simon_Pegg.png","TRUE","pictures/stimuli/E","pictures/stimuli/E","F","M","5","55d24bb75bc5bc0005d9050d","06/30/2022, 15:08:20",0.0365700887746946,"33","Male","right",0,1,0,0,TRUE,"E_F_Jennifer_Saunders.png E_M_Simon_Pegg.png"
1202,"E_F_Jennifer_Saunders.png","P_M_Tony_Blair.png","FALSE","pictures/stimuli/E","pictures/stimuli/P","F","M","6","55d24bb75bc5bc0005d9050d","06/30/2022, 15:08:20",0.731401775493896,"33","Male","right",0,1,0,0,TRUE,"E_F_Jennifer_Saunders.png P_M_Tony_Blair.png"
1455,"E_M_Simon_Pegg.png","P_F_Theresa_May.png","FALSE","pictures/stimuli/E","pictures/stimuli/P","M","F","6","55d24bb75bc5bc0005d9050d","06/30/2022, 15:08:20",0.731401775493896,"33","Male","right",1,1,0,0,FALSE,"E_M_Simon_Pegg.png P_F_Theresa_May.png"
2075,"P_M_david_camer.png","P_M_keir_starmer.png","TRUE","pictures/stimuli/P","pictures/stimuli/P","M","M","3","55d24bb75bc5bc0005d9050d","06/30/2022, 15:08:20",-1.35309328466371,"33","Male","right",1,1,0,0,FALSE,"P_M_david_camer.png P_M_keir_starmer.png"
1819,"P_M_keir_starmer.png","P_M_Tony_Blair.png","TRUE","pictures/stimuli/P","pictures/stimuli/P","M","M","6","55d24bb75bc5bc0005d9050d","06/30/2022, 15:08:20",0.731401775493896,"33","Male","right",1,1,0,0,FALSE,"P_M_keir_starmer.png P_M_Tony_Blair.png"
5387,"E_F_Jennifer_Saunders.png","P_F_nicola_sturge.png","FALSE","pictures/stimuli/E","pictures/stimuli/P","F","F","2","55d24bb75bc5bc0005d9050d","06/30/2022, 15:08:20",-2.04792497138291,"33","Male","right",0,1,0,0,TRUE,"E_F_Jennifer_Saunders.png P_F_nicola_sturge.png"
1905,"E_F_Dawn_Roma_French.png","P_M_keir_starmer.png","FALSE","pictures/stimuli/E","pictures/stimuli/P","F","M","6","55d24bb75bc5bc0005d9050d","06/30/2022, 15:08:20",0.731401775493896,"33","Male","right",0,1,0,0,TRUE,"E_F_Dawn_Roma_French.png P_M_keir_starmer.png"
1958,"P_M_keir_starmer.png","P_M_nigel_farage.png","TRUE","pictures/stimuli/P","pictures/stimuli/P","M","M","3","55d24bb75bc5bc0005d9050d","06/30/2022, 15:08:20",-1.35309328466371,"33","Male","right",1,1,0,0,FALSE,"P_M_keir_starmer.png P_M_nigel_farage.png"
2912,"E_M_Jimmy_Carr.png","P_M_david_camer.png","FALSE","pictures/stimuli/E","pictures/stimuli/P","M","M","3","55d24bb75bc5bc0005d9050d","06/30/2022, 15:08:20",-1.35309328466371,"33","Male","right",1,1,0,0,FALSE,"E_M_Jimmy_Carr.png P_M_david_camer.png"
3202,"E_F_Jennifer_Saunders.png","P_M_Michael_Gove.png","FALSE","pictures/stimuli/E","pictures/stimuli/P","F","M","3","55d24bb75bc5bc0005d9050d","06/30/2022, 15:08:20",-1.35309328466371,"33","Male","right",0,0,0,0,TRUE,"E_F_Jennifer_Saunders.png P_M_Michael_Gove.png"
2276,"E_M_Peter_Kay.png","P_M_david_camer.png","FALSE","pictures/stimuli/E","pictures/stimuli/P","M","M","3","55d24bb75bc5bc0005d9050d","06/30/2022, 15:08:20",-1.35309328466371,"33","Male","right",1,1,0,0,FALSE,"E_M_Peter_Kay.png P_M_david_camer.png"
2842,"P_M_Gordon_Brown.png","P_M_nigel_farage.png","TRUE","pictures/stimuli/P","pictures/stimuli/P","M","M","6","55d24bb75bc5bc0005d9050d","06/30/2022, 15:08:20",0.731401775493896,"33","Male","right",1,1,0,0,FALSE,"P_M_Gordon_Brown.png P_M_nigel_farage.png"
2975,"E_F_Julie_Walters.png","P_F_nicola_sturge.png","FALSE","pictures/stimuli/E","pictures/stimuli/P","F","F","2","55d24bb75bc5bc0005d9050d","06/30/2022, 15:08:20",-2.04792497138291,"33","Male","right",0,1,0,0,TRUE,"E_F_Julie_Walters.png P_F_nicola_sturge.png"
2015,"E_F_Dawn_Roma_French.png","E_M_Ewan_McGregor.png","TRUE","pictures/stimuli/E","pictures/stimuli/E","F","M","6","55d24bb75bc5bc0005d9050d","06/30/2022, 15:08:20",0.731401775493896,"33","Male","right",0,0,0,0,TRUE,"E_F_Dawn_Roma_French.png E_M_Ewan_McGregor.png"
1979,"E_F_Dawn_Roma_French.png","E_M_Simon_Pegg.png","TRUE","pictures/stimuli/E","pictures/stimuli/E","F","M","6","55d24bb75bc5bc0005d9050d","06/30/2022, 15:08:20",0.731401775493896,"33","Male","right",0,1,0,0,TRUE,"E_F_Dawn_Roma_French.png E_M_Simon_Pegg.png"
2566,"E_M_Simon_Pegg.png","P_M_keir_starmer.png","FALSE","pictures/stimuli/E","pictures/stimuli/P","M","M","3","55d24bb75bc5bc0005d9050d","06/30/2022, 15:08:20",-1.35309328466371,"33","Male","right",1,1,0,0,FALSE,"E_M_Simon_Pegg.png P_M_keir_starmer.png"
3299,"E_F_Julie_Walters.png","E_M_Russell_Howard.png","TRUE","pictures/stimuli/E","pictures/stimuli/E","F","M","6","55d24bb75bc5bc0005d9050d","06/30/2022, 15:08:20",0.731401775493896,"33","Male","right",0,1,0,0,TRUE,"E_F_Julie_Walters.png E_M_Russell_Howard.png"
1961,"E_F_Sarah_Millican.png","E_M_Russell_Howard.png","TRUE","pictures/stimuli/E","pictures/stimuli/E","F","M","6","55d24bb75bc5bc0005d9050d","06/30/2022, 15:08:20",0.731401775493896,"33","Male","right",1,1,0,0,FALSE,"E_F_Sarah_Millican.png E_M_Russell_Howard.png"
2264,"E_M_Jimmy_Carr.png","E_M_Russell_Howard.png","TRUE","pictures/stimuli/E","pictures/stimuli/E","M","M","6","55d24bb75bc5bc0005d9050d","06/30/2022, 15:08:20",0.731401775493896,"33","Male","right",1,1,0,0,FALSE,"E_M_Jimmy_Carr.png E_M_Russell_Howard.png"
2796,"E_F_Julie_Walters.png","P_M_keir_starmer.png","FALSE","pictures/stimuli/E","pictures/stimuli/P","F","M","2","55d24bb75bc5bc0005d9050d","06/30/2022, 15:08:20",-2.04792497138291,"33","Male","right",0,1,0,0,TRUE,"E_F_Julie_Walters.png P_M_keir_starmer.png"
2562,"P_M_david_camer.png","P_M_Sajid_Javid.png","TRUE","pictures/stimuli/P","pictures/stimuli/P","M","M","6","55d24bb75bc5bc0005d9050d","06/30/2022, 15:08:20",0.731401775493896,"33","Male","right",1,1,0,0,FALSE,"P_M_david_camer.png P_M_Sajid_Javid.png"
4170,"E_F_Sarah_Millican.png","E_M_Michael_McIntyr.png","TRUE","pictures/stimuli/E","pictures/stimuli/E","F","M","3","55d24bb75bc5bc0005d9050d","06/30/2022, 15:08:20",-1.35309328466371,"33","Male","right",1,1,0,0,FALSE,"E_F_Sarah_Millican.png E_M_Michael_McIntyr.png"
1881,"E_M_Russell_Howard.png","P_M_keir_starmer.png","FALSE","pictures/stimuli/E","pictures/stimuli/P","M","M","6","55d24bb75bc5bc0005d9050d","06/30/2022, 15:08:20",0.731401775493896,"33","Male","right",1,1,0,0,FALSE,"E_M_Russell_Howard.png P_M_keir_starmer.png"
1695,"E_F_Jennifer_Saunders.png","P_M_jeremy_corbyn.png","FALSE","pictures/stimuli/E","pictures/stimuli/P","F","M","6","55d24bb75bc5bc0005d9050d","06/30/2022, 15:08:20",0.731401775493896,"33","Male","right",0,1,0,0,TRUE,"E_F_Jennifer_Saunders.png P_M_jeremy_corbyn.png"
3004,"P_M_keir_starmer.png","P_M_Michael_Gove.png","TRUE","pictures/stimuli/P","pictures/stimuli/P","M","M","3","55d24bb75bc5bc0005d9050d","06/30/2022, 15:08:20",-1.35309328466371,"33","Male","right",1,0,0,0,TRUE,"P_M_keir_starmer.png P_M_Michael_Gove.png"
3624,"P_F_nicola_sturge.png","P_M_Tony_Blair.png","TRUE","pictures/stimuli/P","pictures/stimuli/P","F","M","3","55d24bb75bc5bc0005d9050d","06/30/2022, 15:08:20",-1.35309328466371,"33","Male","right",1,1,0,0,FALSE,"P_F_nicola_sturge.png P_M_Tony_Blair.png"
2280,"E_F_Jennifer_Saunders.png","E_M_Michael_McIntyr.png","TRUE","pictures/stimuli/E","pictures/stimuli/E","F","M","3","55d24bb75bc5bc0005d9050d","06/30/2022, 15:08:20",-1.35309328466371,"33","Male","right",0,1,0,0,TRUE,"E_F_Jennifer_Saunders.png E_M_Michael_McIntyr.png"
3699,"E_M_Ewan_McGregor.png","P_M_Sajid_Javid.png","FALSE","pictures/stimuli/E","pictures/stimuli/P","M","M","6","55d24bb75bc5bc0005d9050d","06/30/2022, 15:08:20",0.731401775493896,"33","Male","right",0,1,0,0,TRUE,"E_M_Ewan_McGregor.png P_M_Sajid_Javid.png"
4571,"E_F_Jennifer_Saunders.png","P_F_Theresa_May.png","FALSE","pictures/stimuli/E","pictures/stimuli/P","F","F","1","55d24bb75bc5bc0005d9050d","06/30/2022, 15:08:20",-2.74275665810211,"33","Male","right",0,1,0,0,TRUE,"E_F_Jennifer_Saunders.png P_F_Theresa_May.png"
4374,"P_M_Gordon_Brown.png","P_M_Tony_Blair.png","TRUE","pictures/stimuli/P","pictures/stimuli/P","M","M","5","55d24bb75bc5bc0005d9050d","06/30/2022, 15:08:20",0.0365700887746946,"33","Male","right",1,1,0,0,FALSE,"P_M_Gordon_Brown.png P_M_Tony_Blair.png"
1733,"P_M_jeremy_corbyn.png","P_M_Michael_Gove.png","TRUE","pictures/stimuli/P","pictures/stimuli/P","M","M","6","55d24bb75bc5bc0005d9050d","06/30/2022, 15:08:20",0.731401775493896,"33","Male","right",1,0,0,0,TRUE,"P_M_jeremy_corbyn.png P_M_Michael_Gove.png"
2133,"E_M_Jimmy_Carr.png","P_F_nicola_sturge.png","FALSE","pictures/stimuli/E","pictures/stimuli/P","M","F","6","55d24bb75bc5bc0005d9050d","06/30/2022, 15:08:20",0.731401775493896,"33","Male","right",1,1,0,0,FALSE,"E_M_Jimmy_Carr.png P_F_nicola_sturge.png"
1868,"P_F_Theresa_May.png","P_M_Gordon_Brown.png","TRUE","pictures/stimuli/P","pictures/stimuli/P","F","M","6","55d24bb75bc5bc0005d9050d","06/30/2022, 15:08:20",0.731401775493896,"33","Male","right",1,1,0,0,FALSE,"P_F_Theresa_May.png P_M_Gordon_Brown.png"
4057,"E_F_Sarah_Millican.png","P_M_Sajid_Javid.png","FALSE","pictures/stimuli/E","pictures/stimuli/P","F","M","6","55d24bb75bc5bc0005d9050d","06/30/2022, 15:08:20",0.731401775493896,"33","Male","right",1,1,0,0,FALSE,"E_F_Sarah_Millican.png P_M_Sajid_Javid.png"
1929,"E_M_Peter_Kay.png","P_M_Michael_Gove.png","FALSE","pictures/stimuli/E","pictures/stimuli/P","M","M","6","55d24bb75bc5bc0005d9050d","06/30/2022, 15:08:20",0.731401775493896,"33","Male","right",1,0,0,0,TRUE,"E_M_Peter_Kay.png P_M_Michael_Gove.png"
2497,"P_M_jeremy_corbyn.png","P_M_keir_starmer.png","TRUE","pictures/stimuli/P","pictures/stimuli/P","M","M","2","55d24bb75bc5bc0005d9050d","06/30/2022, 15:08:20",-2.04792497138291,"33","Male","right",1,1,0,0,FALSE,"P_M_jeremy_corbyn.png P_M_keir_starmer.png"
2459,"P_M_david_camer.png","P_M_Gordon_Brown.png","TRUE","pictures/stimuli/P","pictures/stimuli/P","M","M","6","55d24bb75bc5bc0005d9050d","06/30/2022, 15:08:20",0.731401775493896,"33","Male","right",1,1,0,0,FALSE,"P_M_david_camer.png P_M_Gordon_Brown.png"
2711,"E_M_Ewan_McGregor.png","P_M_david_camer.png","FALSE","pictures/stimuli/E","pictures/stimuli/P","M","M","5","55d24bb75bc5bc0005d9050d","06/30/2022, 15:08:20",0.0365700887746946,"33","Male","right",0,1,0,0,TRUE,"E_M_Ewan_McGregor.png P_M_david_camer.png"
2541,"E_M_Simon_Pegg.png","P_M_Tony_Blair.png","FALSE","pictures/stimuli/E","pictures/stimuli/P","M","M","6","55d24bb75bc5bc0005d9050d","06/30/2022, 15:08:20",0.731401775493896,"33","Male","right",1,1,0,0,FALSE,"E_M_Simon_Pegg.png P_M_Tony_Blair.png"
3492,"E_M_Jimmy_Carr.png","P_M_jeremy_corbyn.png","FALSE","pictures/stimuli/E","pictures/stimuli/P","M","M","6","55d24bb75bc5bc0005d9050d","06/30/2022, 15:08:20",0.731401775493896,"33","Male","right",1,1,0,0,FALSE,"E_M_Jimmy_Carr.png P_M_jeremy_corbyn.png"
2091,"P_F_Theresa_May.png","P_M_Tony_Blair.png","TRUE","pictures/stimuli/P","pictures/stimuli/P","F","M","5","55d24bb75bc5bc0005d9050d","06/30/2022, 15:08:20",0.0365700887746946,"33","Male","right",1,1,0,0,FALSE,"P_F_Theresa_May.png P_M_Tony_Blair.png"
1865,"E_F_Jennifer_Saunders.png","P_M_david_camer.png","FALSE","pictures/stimuli/E","pictures/stimuli/P","F","M","6","55d24bb75bc5bc0005d9050d","06/30/2022, 15:08:20",0.731401775493896,"33","Male","right",0,1,0,0,TRUE,"E_F_Jennifer_Saunders.png P_M_david_camer.png"
1391,"E_F_Sarah_Millican.png","E_M_Peter_Kay.png","TRUE","pictures/stimuli/E","pictures/stimuli/E","F","M","6","55d24bb75bc5bc0005d9050d","06/30/2022, 15:08:20",0.731401775493896,"33","Male","right",1,1,0,0,FALSE,"E_F_Sarah_Millican.png E_M_Peter_Kay.png"
2819,"E_F_Sarah_Millican.png","E_M_Jimmy_Carr.png","TRUE","pictures/stimuli/E","pictures/stimuli/E","F","M","6","55d24bb75bc5bc0005d9050d","06/30/2022, 15:08:20",0.731401775493896,"33","Male","right",1,1,0,0,FALSE,"E_F_Sarah_Millican.png E_M_Jimmy_Carr.png"
2896,"E_F_Dawn_Roma_French.png","P_F_nicola_sturge.png","FALSE","pictures/stimuli/E","pictures/stimuli/P","F","F","6","55d24bb75bc5bc0005d9050d","06/30/2022, 15:08:20",0.731401775493896,"33","Male","right",0,1,0,0,TRUE,"E_F_Dawn_Roma_French.png P_F_nicola_sturge.png"
2679,"P_M_nigel_farage.png","P_M_Tony_Blair.png","TRUE","pictures/stimuli/P","pictures/stimuli/P","M","M","4","55d24bb75bc5bc0005d9050d","06/30/2022, 15:08:20",-0.658261597944507,"33","Male","right",1,1,0,0,FALSE,"P_M_nigel_farage.png P_M_Tony_Blair.png"
2499,"P_F_Theresa_May.png","P_M_david_camer.png","TRUE","pictures/stimuli/P","pictures/stimuli/P","F","M","6","55d24bb75bc5bc0005d9050d","06/30/2022, 15:08:20",0.731401775493896,"33","Male","right",1,1,0,0,FALSE,"P_F_Theresa_May.png P_M_david_camer.png"
3446,"E_F_Jennifer_Saunders.png","P_M_nigel_farage.png","FALSE","pictures/stimuli/E","pictures/stimuli/P","F","M","5","55d24bb75bc5bc0005d9050d","06/30/2022, 15:08:20",0.0365700887746946,"33","Male","right",0,1,0,0,TRUE,"E_F_Jennifer_Saunders.png P_M_nigel_farage.png"
3112,"E_M_Peter_Kay.png","P_M_nigel_farage.png","FALSE","pictures/stimuli/E","pictures/stimuli/P","M","M","6","55d24bb75bc5bc0005d9050d","06/30/2022, 15:08:20",0.731401775493896,"33","Male","right",1,1,0,0,FALSE,"E_M_Peter_Kay.png P_M_nigel_farage.png"
2341,"E_M_Ewan_McGregor.png","P_F_Theresa_May.png","FALSE","pictures/stimuli/E","pictures/stimuli/P","M","F","6","55d24bb75bc5bc0005d9050d","06/30/2022, 15:08:20",0.731401775493896,"33","Male","right",0,1,0,0,TRUE,"E_M_Ewan_McGregor.png P_F_Theresa_May.png"
3453,"E_M_Simon_Pegg.png","P_M_nigel_farage.png","FALSE","pictures/stimuli/E","pictures/stimuli/P","M","M","5","55d24bb75bc5bc0005d9050d","06/30/2022, 15:08:20",0.0365700887746946,"33","Male","right",1,1,0,0,FALSE,"E_M_Simon_Pegg.png P_M_nigel_farage.png"
1466,"E_F_Julie_Walters.png","E_M_Peter_Kay.png","TRUE","pictures/stimuli/E","pictures/stimuli/E","F","M","6","55d24bb75bc5bc0005d9050d","06/30/2022, 15:08:20",0.731401775493896,"33","Male","right",0,1,0,0,TRUE,"E_F_Julie_Walters.png E_M_Peter_Kay.png"
2374,"E_M_Ewan_McGregor.png","E_M_Jimmy_Carr.png","TRUE","pictures/stimuli/E","pictures/stimuli/E","M","M","5","55d24bb75bc5bc0005d9050d","06/30/2022, 15:08:20",0.0365700887746946,"33","Male","right",0,1,0,0,TRUE,"E_M_Ewan_McGregor.png E_M_Jimmy_Carr.png"
1389,"E_F_Jennifer_Saunders.png","E_M_Russell_Howard.png","TRUE","pictures/stimuli/E","pictures/stimuli/E","F","M","6","55d24bb75bc5bc0005d9050d","06/30/2022, 15:08:20",0.731401775493896,"33","Male","right",0,1,0,0,TRUE,"E_F_Jennifer_Saunders.png E_M_Russell_Howard.png"
1515,"E_F_Dawn_Roma_French.png","E_M_Jimmy_Carr.png","TRUE","pictures/stimuli/E","pictures/stimuli/E","F","M","6","55d24bb75bc5bc0005d9050d","06/30/2022, 15:08:20",0.731401775493896,"33","Male","right",0,1,0,0,TRUE,"E_F_Dawn_Roma_French.png E_M_Jimmy_Carr.png"
2732,"P_F_Theresa_May.png","P_M_nigel_farage.png","TRUE","pictures/stimuli/P","pictures/stimuli/P","F","M","6","55d24bb75bc5bc0005d9050d","06/30/2022, 15:08:20",0.731401775493896,"33","Male","right",1,1,0,0,FALSE,"P_F_Theresa_May.png P_M_nigel_farage.png"
1904,"E_F_Jennifer_Saunders.png","E_F_Julie_Walters.png","TRUE","pictures/stimuli/E","pictures/stimuli/E","F","F","1","55d24bb75bc5bc0005d9050d","06/30/2022, 15:08:20",-2.74275665810211,"33","Male","right",0,0,0,0,TRUE,"E_F_Jennifer_Saunders.png E_F_Julie_Walters.png"
1666,"E_M_Russell_Howard.png","P_M_Gordon_Brown.png","FALSE","pictures/stimuli/E","pictures/stimuli/P","M","M","4","55d24bb75bc5bc0005d9050d","06/30/2022, 15:08:20",-0.658261597944507,"33","Male","right",1,1,0,0,FALSE,"E_M_Russell_Howard.png P_M_Gordon_Brown.png"
1631,"E_M_Michael_McIntyr.png","P_F_Theresa_May.png","FALSE","pictures/stimuli/E","pictures/stimuli/P","M","F","5","55d24bb75bc5bc0005d9050d","06/30/2022, 15:08:20",0.0365700887746946,"33","Male","right",1,1,0,0,FALSE,"E_M_Michael_McIntyr.png P_F_Theresa_May.png"
1971,"E_F_Dawn_Roma_French.png","P_M_nigel_farage.png","FALSE","pictures/stimuli/E","pictures/stimuli/P","F","M","6","55d24bb75bc5bc0005d9050d","06/30/2022, 15:08:20",0.731401775493896,"33","Male","right",0,1,0,0,TRUE,"E_F_Dawn_Roma_French.png P_M_nigel_farage.png"
1915,"E_M_Russell_Howard.png","P_M_nigel_farage.png","FALSE","pictures/stimuli/E","pictures/stimuli/P","M","M","6","55d24bb75bc5bc0005d9050d","06/30/2022, 15:08:20",0.731401775493896,"33","Male","right",1,1,0,0,FALSE,"E_M_Russell_Howard.png P_M_nigel_farage.png"
2999,"E_F_Sarah_Millican.png","P_M_keir_starmer.png","FALSE","pictures/stimuli/E","pictures/stimuli/P","F","M","6","55d24bb75bc5bc0005d9050d","06/30/2022, 15:08:20",0.731401775493896,"33","Male","right",1,1,0,0,FALSE,"E_F_Sarah_Millican.png P_M_keir_starmer.png"
1947,"E_M_Russell_Howard.png","P_M_david_camer.png","FALSE","pictures/stimuli/E","pictures/stimuli/P","M","M","5","55d24bb75bc5bc0005d9050d","06/30/2022, 15:08:20",0.0365700887746946,"33","Male","right",1,1,0,0,FALSE,"E_M_Russell_Howard.png P_M_david_camer.png"
2858,"E_M_Ewan_McGregor.png","E_M_Russell_Howard.png","TRUE","pictures/stimuli/E","pictures/stimuli/E","M","M","2","55d24bb75bc5bc0005d9050d","06/30/2022, 15:08:20",-2.04792497138291,"33","Male","right",0,1,0,0,TRUE,"E_M_Ewan_McGregor.png E_M_Russell_Howard.png"
2467,"E_M_Jimmy_Carr.png","E_M_Simon_Pegg.png","TRUE","pictures/stimuli/E","pictures/stimuli/E","M","M","4","55d24bb75bc5bc0005d9050d","06/30/2022, 15:08:20",-0.658261597944507,"33","Male","right",1,1,0,0,FALSE,"E_M_Jimmy_Carr.png E_M_Simon_Pegg.png"
3482,"E_F_Julie_Walters.png","P_M_david_camer.png","FALSE","pictures/stimuli/E","pictures/stimuli/P","F","M","6","55d24bb75bc5bc0005d9050d","06/30/2022, 15:08:20",0.731401775493896,"33","Male","right",0,1,0,0,TRUE,"E_F_Julie_Walters.png P_M_david_camer.png"
2577,"E_F_Julie_Walters.png","P_M_nigel_farage.png","FALSE","pictures/stimuli/E","pictures/stimuli/P","F","M","6","55d24bb75bc5bc0005d9050d","06/30/2022, 15:08:20",0.731401775493896,"33","Male","right",0,1,0,0,TRUE,"E_F_Julie_Walters.png P_M_nigel_farage.png"
2237,"P_M_Michael_Gove.png","P_M_nigel_farage.png","TRUE","pictures/stimuli/P","pictures/stimuli/P","M","M","3","55d24bb75bc5bc0005d9050d","06/30/2022, 15:08:20",-1.35309328466371,"33","Male","right",0,1,0,0,TRUE,"P_M_Michael_Gove.png P_M_nigel_farage.png"
1459,"E_F_Dawn_Roma_French.png","P_M_Michael_Gove.png","FALSE","pictures/stimuli/E","pictures/stimuli/P","F","M","6","55d24bb75bc5bc0005d9050d","06/30/2022, 15:08:20",0.731401775493896,"33","Male","right",0,0,0,0,TRUE,"E_F_Dawn_Roma_French.png P_M_Michael_Gove.png"
1295,"P_M_Michael_Gove.png","P_M_Sajid_Javid.png","TRUE","pictures/stimuli/P","pictures/stimuli/P","M","M","6","55d24bb75bc5bc0005d9050d","06/30/2022, 15:08:20",0.731401775493896,"33","Male","right",0,1,0,0,TRUE,"P_M_Michael_Gove.png P_M_Sajid_Javid.png"
1876,"E_F_Sarah_Millican.png","P_M_nigel_farage.png","FALSE","pictures/stimuli/E","pictures/stimuli/P","F","M","6","55d24bb75bc5bc0005d9050d","06/30/2022, 15:08:20",0.731401775493896,"33","Male","right",1,1,0,0,FALSE,"E_F_Sarah_Millican.png P_M_nigel_farage.png"
1520,"E_F_Julie_Walters.png","P_M_Gordon_Brown.png","FALSE","pictures/stimuli/E","pictures/stimuli/P","F","M","6","55d24bb75bc5bc0005d9050d","06/30/2022, 15:08:20",0.731401775493896,"33","Male","right",0,1,0,0,TRUE,"E_F_Julie_Walters.png P_M_Gordon_Brown.png"
2666,"E_M_Michael_McIntyr.png","P_F_nicola_sturge.png","FALSE","pictures/stimuli/E","pictures/stimuli/P","M","F","4","55d24bb75bc5bc0005d9050d","06/30/2022, 15:08:20",-0.658261597944507,"33","Male","right",1,1,0,0,FALSE,"E_M_Michael_McIntyr.png P_F_nicola_sturge.png"
2199,"P_M_jeremy_corbyn.png","P_M_nigel_farage.png","TRUE","pictures/stimuli/P","pictures/stimuli/P","M","M","2","55d24bb75bc5bc0005d9050d","06/30/2022, 15:08:20",-2.04792497138291,"33","Male","right",1,1,0,0,FALSE,"P_M_jeremy_corbyn.png P_M_nigel_farage.png"
1257,"E_M_Simon_Pegg.png","P_M_Sajid_Javid.png","FALSE","pictures/stimuli/E","pictures/stimuli/P","M","M","6","55d24bb75bc5bc0005d9050d","06/30/2022, 15:08:20",0.731401775493896,"33","Male","right",1,1,0,0,FALSE,"E_M_Simon_Pegg.png P_M_Sajid_Javid.png"
2232,"E_F_Dawn_Roma_French.png","E_M_Michael_McIntyr.png","TRUE","pictures/stimuli/E","pictures/stimuli/E","F","M","6","55d24bb75bc5bc0005d9050d","06/30/2022, 15:08:20",0.731401775493896,"33","Male","right",0,1,0,0,TRUE,"E_F_Dawn_Roma_French.png E_M_Michael_McIntyr.png"
2484,"E_M_Ewan_McGregor.png","P_M_Gordon_Brown.png","FALSE","pictures/stimuli/E","pictures/stimuli/P","M","M","6","55d24bb75bc5bc0005d9050d","06/30/2022, 15:08:20",0.731401775493896,"33","Male","right",0,1,0,0,TRUE,"E_M_Ewan_McGregor.png P_M_Gordon_Brown.png"
1592,"E_M_Ewan_McGregor.png","P_M_jeremy_corbyn.png","FALSE","pictures/stimuli/E","pictures/stimuli/P","M","M","6","55d24bb75bc5bc0005d9050d","06/30/2022, 15:08:20",0.731401775493896,"33","Male","right",0,1,0,0,TRUE,"E_M_Ewan_McGregor.png P_M_jeremy_corbyn.png"
4166,"E_M_Ewan_McGregor.png","P_M_Michael_Gove.png","FALSE","pictures/stimuli/E","pictures/stimuli/P","M","M","4","55d24bb75bc5bc0005d9050d","06/30/2022, 15:08:20",-0.658261597944507,"33","Male","right",0,0,0,0,TRUE,"E_M_Ewan_McGregor.png P_M_Michael_Gove.png"
1587,"E_F_Sarah_Millican.png","P_M_Tony_Blair.png","FALSE","pictures/stimuli/E","pictures/stimuli/P","F","M","6","55d24bb75bc5bc0005d9050d","06/30/2022, 15:08:20",0.731401775493896,"33","Male","right",1,1,0,0,FALSE,"E_F_Sarah_Millican.png P_M_Tony_Blair.png"
1355,"E_M_Russell_Howard.png","P_M_Sajid_Javid.png","FALSE","pictures/stimuli/E","pictures/stimuli/P","M","M","6","55d24bb75bc5bc0005d9050d","06/30/2022, 15:08:20",0.731401775493896,"33","Male","right",1,1,0,0,FALSE,"E_M_Russell_Howard.png P_M_Sajid_Javid.png"
1313,"E_F_Sarah_Millican.png","P_F_Theresa_May.png","FALSE","pictures/stimuli/E","pictures/stimuli/P","F","F","6","55d24bb75bc5bc0005d9050d","06/30/2022, 15:08:20",0.731401775493896,"33","Male","right",1,1,0,0,FALSE,"E_F_Sarah_Millican.png P_F_Theresa_May.png"
1930,"E_F_Sarah_Millican.png","E_M_Ewan_McGregor.png","TRUE","pictures/stimuli/E","pictures/stimuli/E","F","M","6","55d24bb75bc5bc0005d9050d","06/30/2022, 15:08:20",0.731401775493896,"33","Male","right",1,0,0,0,TRUE,"E_F_Sarah_Millican.png E_M_Ewan_McGregor.png"
2480,"E_M_Michael_McIntyr.png","E_M_Simon_Pegg.png","TRUE","pictures/stimuli/E","pictures/stimuli/E","M","M","4","55d24bb75bc5bc0005d9050d","06/30/2022, 15:08:20",-0.658261597944507,"33","Male","right",1,1,0,0,FALSE,"E_M_Michael_McIntyr.png E_M_Simon_Pegg.png"
2291,"E_M_Peter_Kay.png","E_M_Simon_Pegg.png","TRUE","pictures/stimuli/E","pictures/stimuli/E","M","M","5","55d24bb75bc5bc0005d9050d","06/30/2022, 15:08:20",0.0365700887746946,"33","Male","right",1,1,0,0,FALSE,"E_M_Peter_Kay.png E_M_Simon_Pegg.png"
2861,"P_M_Gordon_Brown.png","P_M_keir_starmer.png","TRUE","pictures/stimuli/P","pictures/stimuli/P","M","M","2","55d24bb75bc5bc0005d9050d","06/30/2022, 15:08:20",-2.04792497138291,"33","Male","right",1,1,0,0,FALSE,"P_M_Gordon_Brown.png P_M_keir_starmer.png"
1350,"P_M_nigel_farage.png","P_M_Sajid_Javid.png","TRUE","pictures/stimuli/P","pictures/stimuli/P","M","M","6","55d24bb75bc5bc0005d9050d","06/30/2022, 15:08:20",0.731401775493896,"33","Male","right",1,1,0,0,FALSE,"P_M_nigel_farage.png P_M_Sajid_Javid.png"
1522,"P_F_nicola_sturge.png","P_M_keir_starmer.png","TRUE","pictures/stimuli/P","pictures/stimuli/P","F","M","6","55d24bb75bc5bc0005d9050d","06/30/2022, 15:08:20",0.731401775493896,"33","Male","right",1,1,0,0,FALSE,"P_F_nicola_sturge.png P_M_keir_starmer.png"
2530,"E_F_Jennifer_Saunders.png","P_M_Gordon_Brown.png","FALSE","pictures/stimuli/E","pictures/stimuli/P","F","M","6","55d24bb75bc5bc0005d9050d","06/30/2022, 15:08:20",0.731401775493896,"33","Male","right",0,1,0,0,TRUE,"E_F_Jennifer_Saunders.png P_M_Gordon_Brown.png"
2869,"E_M_Michael_McIntyr.png","P_M_Tony_Blair.png","FALSE","pictures/stimuli/E","pictures/stimuli/P","M","M","3","55d24bb75bc5bc0005d9050d","06/30/2022, 15:08:20",-1.35309328466371,"33","Male","right",1,1,0,0,FALSE,"E_M_Michael_McIntyr.png P_M_Tony_Blair.png"
2155,"P_F_nicola_sturge.png","P_M_Gordon_Brown.png","TRUE","pictures/stimuli/P","pictures/stimuli/P","F","M","6","55d24bb75bc5bc0005d9050d","06/30/2022, 15:08:20",0.731401775493896,"33","Male","right",1,1,0,0,FALSE,"P_F_nicola_sturge.png P_M_Gordon_Brown.png"
1404,"E_F_Dawn_Roma_French.png","E_F_Julie_Walters.png","TRUE","pictures/stimuli/E","pictures/stimuli/E","F","F","6","55d24bb75bc5bc0005d9050d","06/30/2022, 15:08:20",0.731401775493896,"33","Male","right",0,0,0,0,TRUE,"E_F_Dawn_Roma_French.png E_F_Julie_Walters.png"
2252,"E_M_Peter_Kay.png","P_M_Tony_Blair.png","FALSE","pictures/stimuli/E","pictures/stimuli/P","M","M","4","55d24bb75bc5bc0005d9050d","06/30/2022, 15:08:20",-0.658261597944507,"33","Male","right",1,1,0,0,FALSE,"E_M_Peter_Kay.png P_M_Tony_Blair.png"
1255,"P_M_Gordon_Brown.png","P_M_Sajid_Javid.png","TRUE","pictures/stimuli/P","pictures/stimuli/P","M","M","6","55d24bb75bc5bc0005d9050d","06/30/2022, 15:08:20",0.731401775493896,"33","Male","right",1,1,0,0,FALSE,"P_M_Gordon_Brown.png P_M_Sajid_Javid.png"
1867,"P_F_nicola_sturge.png","P_M_nigel_farage.png","TRUE","pictures/stimuli/P","pictures/stimuli/P","F","M","6","55d24bb75bc5bc0005d9050d","06/30/2022, 15:08:20",0.731401775493896,"33","Male","right",1,1,0,0,FALSE,"P_F_nicola_sturge.png P_M_nigel_farage.png"
1265,"E_F_Sarah_Millican.png","P_M_david_camer.png","FALSE","pictures/stimuli/E","pictures/stimuli/P","F","M","6","55d24bb75bc5bc0005d9050d","06/30/2022, 15:08:20",0.731401775493896,"33","Male","right",1,1,0,0,FALSE,"E_F_Sarah_Millican.png P_M_david_camer.png"
1815,"E_M_Michael_McIntyr.png","P_M_Michael_Gove.png","FALSE","pictures/stimuli/E","pictures/stimuli/P","M","M","3","55d24bb75bc5bc0005d9050d","06/30/2022, 15:08:20",-1.35309328466371,"33","Male","right",1,0,0,0,TRUE,"E_M_Michael_McIntyr.png P_M_Michael_Gove.png"
2100,"E_M_Michael_McIntyr.png","P_M_Gordon_Brown.png","FALSE","pictures/stimuli/E","pictures/stimuli/P","M","M","4","55d24bb75bc5bc0005d9050d","06/30/2022, 15:08:20",-0.658261597944507,"33","Male","right",1,1,0,0,FALSE,"E_M_Michael_McIntyr.png P_M_Gordon_Brown.png"
1295,"E_M_Simon_Pegg.png","P_M_jeremy_corbyn.png","FALSE","pictures/stimuli/E","pictures/stimuli/P","M","M","6","55d24bb75bc5bc0005d9050d","06/30/2022, 15:08:20",0.731401775493896,"33","Male","right",1,1,0,0,FALSE,"E_M_Simon_Pegg.png P_M_jeremy_corbyn.png"
2413,"E_M_Ewan_McGregor.png","P_M_keir_starmer.png","FALSE","pictures/stimuli/E","pictures/stimuli/P","M","M","2","55d24bb75bc5bc0005d9050d","06/30/2022, 15:08:20",-2.04792497138291,"33","Male","right",0,1,0,0,TRUE,"E_M_Ewan_McGregor.png P_M_keir_starmer.png"
2585,"P_M_keir_starmer.png","P_M_Sajid_Javid.png","TRUE","pictures/stimuli/P","pictures/stimuli/P","M","M","6","55d24bb75bc5bc0005d9050d","06/30/2022, 15:08:20",0.731401775493896,"33","Male","right",1,1,0,0,FALSE,"P_M_keir_starmer.png P_M_Sajid_Javid.png"
1812,"E_M_Jimmy_Carr.png","P_M_Gordon_Brown.png","FALSE","pictures/stimuli/E","pictures/stimuli/P","M","M","5","55d24bb75bc5bc0005d9050d","06/30/2022, 15:08:20",0.0365700887746946,"33","Male","right",1,1,0,0,FALSE,"E_M_Jimmy_Carr.png P_M_Gordon_Brown.png"
1881,"E_M_Simon_Pegg.png","P_M_Michael_Gove.png","FALSE","pictures/stimuli/E","pictures/stimuli/P","M","M","3","55d24bb75bc5bc0005d9050d","06/30/2022, 15:08:20",-1.35309328466371,"33","Male","right",1,0,0,0,TRUE,"E_M_Simon_Pegg.png P_M_Michael_Gove.png"
1154,"E_F_Jennifer_Saunders.png","P_M_keir_starmer.png","FALSE","pictures/stimuli/E","pictures/stimuli/P","F","M","6","55d24bb75bc5bc0005d9050d","06/30/2022, 15:08:20",0.731401775493896,"33","Male","right",0,1,0,0,TRUE,"E_F_Jennifer_Saunders.png P_M_keir_starmer.png"
1210,"E_F_Julie_Walters.png","P_M_jeremy_corbyn.png","FALSE","pictures/stimuli/E","pictures/stimuli/P","F","M","6","55d24bb75bc5bc0005d9050d","06/30/2022, 15:08:20",0.731401775493896,"33","Male","right",0,1,0,0,TRUE,"E_F_Julie_Walters.png P_M_jeremy_corbyn.png"
1131,"E_M_Russell_Howard.png","P_F_nicola_sturge.png","FALSE","pictures/stimuli/E","pictures/stimuli/P","M","F","6","55d24bb75bc5bc0005d9050d","06/30/2022, 15:08:20",0.731401775493896,"33","Male","right",1,1,0,0,FALSE,"E_M_Russell_Howard.png P_F_nicola_sturge.png"
1311,"E_F_Dawn_Roma_French.png","P_M_jeremy_corbyn.png","FALSE","pictures/stimuli/E","pictures/stimuli/P","F","M","6","55d24bb75bc5bc0005d9050d","06/30/2022, 15:08:20",0.731401775493896,"33","Male","right",0,1,0,0,TRUE,"E_F_Dawn_Roma_French.png P_M_jeremy_corbyn.png"
1063,"E_F_Sarah_Millican.png","P_M_Michael_Gove.png","FALSE","pictures/stimuli/E","pictures/stimuli/P","F","M","6","55d24bb75bc5bc0005d9050d","06/30/2022, 15:08:20",0.731401775493896,"33","Male","right",1,0,0,0,TRUE,"E_F_Sarah_Millican.png P_M_Michael_Gove.png"
1966,"E_M_Simon_Pegg.png","P_F_nicola_sturge.png","FALSE","pictures/stimuli/E","pictures/stimuli/P","M","F","6","55d24bb75bc5bc0005d9050d","06/30/2022, 15:08:20",0.731401775493896,"33","Male","right",1,1,0,0,FALSE,"E_M_Simon_Pegg.png P_F_nicola_sturge.png"
2104,"E_M_Simon_Pegg.png","P_M_david_camer.png","FALSE","pictures/stimuli/E","pictures/stimuli/P","M","M","5","55d24bb75bc5bc0005d9050d","06/30/2022, 15:08:20",0.0365700887746946,"33","Male","right",1,1,0,0,FALSE,"E_M_Simon_Pegg.png P_M_david_camer.png"
1146,"E_F_Julie_Walters.png","E_M_Simon_Pegg.png","TRUE","pictures/stimuli/E","pictures/stimuli/E","F","M","6","55d24bb75bc5bc0005d9050d","06/30/2022, 15:08:20",0.731401775493896,"33","Male","right",0,1,0,0,TRUE,"E_F_Julie_Walters.png E_M_Simon_Pegg.png"
1694,"P_F_Theresa_May.png","P_M_keir_starmer.png","TRUE","pictures/stimuli/P","pictures/stimuli/P","F","M","6","55d24bb75bc5bc0005d9050d","06/30/2022, 15:08:20",0.731401775493896,"33","Male","right",1,1,0,0,FALSE,"P_F_Theresa_May.png P_M_keir_starmer.png"
1612,"E_F_Jennifer_Saunders.png","E_M_Jimmy_Carr.png","TRUE","pictures/stimuli/E","pictures/stimuli/E","F","M","6","55d24bb75bc5bc0005d9050d","06/30/2022, 15:08:20",0.731401775493896,"33","Male","right",0,1,0,0,TRUE,"E_F_Jennifer_Saunders.png E_M_Jimmy_Carr.png"
2451,"E_F_Julie_Walters.png","P_F_Theresa_May.png","FALSE","pictures/stimuli/E","pictures/stimuli/P","F","F","1","55d24bb75bc5bc0005d9050d","06/30/2022, 15:08:20",-2.74275665810211,"33","Male","right",0,1,0,0,TRUE,"E_F_Julie_Walters.png P_F_Theresa_May.png"
1297,"E_M_Peter_Kay.png","P_M_Sajid_Javid.png","FALSE","pictures/stimuli/E","pictures/stimuli/P","M","M","6","55d24bb75bc5bc0005d9050d","06/30/2022, 15:08:20",0.731401775493896,"33","Male","right",1,1,0,0,FALSE,"E_M_Peter_Kay.png P_M_Sajid_Javid.png"
1617,"E_M_Peter_Kay.png","P_F_nicola_sturge.png","FALSE","pictures/stimuli/E","pictures/stimuli/P","M","F","6","55d24bb75bc5bc0005d9050d","06/30/2022, 15:08:20",0.731401775493896,"33","Male","right",1,1,0,0,FALSE,"E_M_Peter_Kay.png P_F_nicola_sturge.png"
1829,"E_M_Russell_Howard.png","P_M_Tony_Blair.png","FALSE","pictures/stimuli/E","pictures/stimuli/P","M","M","3","55d24bb75bc5bc0005d9050d","06/30/2022, 15:08:20",-1.35309328466371,"33","Male","right",1,1,0,0,FALSE,"E_M_Russell_Howard.png P_M_Tony_Blair.png"
1875,"E_M_Michael_McIntyr.png","E_M_Peter_Kay.png","TRUE","pictures/stimuli/E","pictures/stimuli/E","M","M","4","55d24bb75bc5bc0005d9050d","06/30/2022, 15:08:20",-0.658261597944507,"33","Male","right",1,1,0,0,FALSE,"E_M_Michael_McIntyr.png E_M_Peter_Kay.png"
2074,"P_M_Gordon_Brown.png","P_M_jeremy_corbyn.png","TRUE","pictures/stimuli/P","pictures/stimuli/P","M","M","5","55d24bb75bc5bc0005d9050d","06/30/2022, 15:08:20",0.0365700887746946,"33","Male","right",1,1,0,0,FALSE,"P_M_Gordon_Brown.png P_M_jeremy_corbyn.png"
2376,"E_M_Peter_Kay.png","P_F_Theresa_May.png","FALSE","pictures/stimuli/E","pictures/stimuli/P","M","F","6","55d24bb75bc5bc0005d9050d","06/30/2022, 15:08:20",0.731401775493896,"33","Male","right",1,1,0,0,FALSE,"E_M_Peter_Kay.png P_F_Theresa_May.png"
1264,"E_F_Dawn_Roma_French.png","P_M_Gordon_Brown.png","FALSE","pictures/stimuli/E","pictures/stimuli/P","F","M","6","55d24bb75bc5bc0005d9050d","06/30/2022, 15:08:20",0.731401775493896,"33","Male","right",0,1,0,0,TRUE,"E_F_Dawn_Roma_French.png P_M_Gordon_Brown.png"
1821,"P_M_jeremy_corbyn.png","P_M_Tony_Blair.png","TRUE","pictures/stimuli/P","pictures/stimuli/P","M","M","6","55d24bb75bc5bc0005d9050d","06/30/2022, 15:08:20",0.731401775493896,"33","Male","right",1,1,0,0,FALSE,"P_M_jeremy_corbyn.png P_M_Tony_Blair.png"
1278,"P_M_Sajid_Javid.png","P_M_Tony_Blair.png","TRUE","pictures/stimuli/P","pictures/stimuli/P","M","M","5","55d24bb75bc5bc0005d9050d","06/30/2022, 15:08:20",0.0365700887746946,"33","Male","right",1,1,0,0,FALSE,"P_M_Sajid_Javid.png P_M_Tony_Blair.png"
3046,"E_F_Sarah_Millican.png","P_F_nicola_sturge.png","FALSE","pictures/stimuli/E","pictures/stimuli/P","F","F","4","55d24bb75bc5bc0005d9050d","06/30/2022, 15:08:20",-0.658261597944507,"33","Male","right",1,1,0,0,FALSE,"E_F_Sarah_Millican.png P_F_nicola_sturge.png"
1402,"E_F_Julie_Walters.png","P_M_Sajid_Javid.png","FALSE","pictures/stimuli/E","pictures/stimuli/P","F","M","6","55d24bb75bc5bc0005d9050d","06/30/2022, 15:08:20",0.731401775493896,"33","Male","right",0,1,0,0,TRUE,"E_F_Julie_Walters.png P_M_Sajid_Javid.png"
2516,"E_M_Ewan_McGregor.png","E_M_Simon_Pegg.png","TRUE","pictures/stimuli/E","pictures/stimuli/E","M","M","4","55d24bb75bc5bc0005d9050d","06/30/2022, 15:08:20",-0.658261597944507,"33","Male","right",0,1,0,0,TRUE,"E_M_Ewan_McGregor.png E_M_Simon_Pegg.png"
2212,"E_M_Michael_McIntyr.png","P_M_keir_starmer.png","FALSE","pictures/stimuli/E","pictures/stimuli/P","M","M","3","55d24bb75bc5bc0005d9050d","06/30/2022, 15:08:20",-1.35309328466371,"33","Male","right",1,1,0,0,FALSE,"E_M_Michael_McIntyr.png P_M_keir_starmer.png"
2232,"P_F_Theresa_May.png","P_M_Michael_Gove.png","TRUE","pictures/stimuli/P","pictures/stimuli/P","F","M","6","55d24bb75bc5bc0005d9050d","06/30/2022, 15:08:20",0.731401775493896,"33","Male","right",1,0,0,0,TRUE,"P_F_Theresa_May.png P_M_Michael_Gove.png"
1585,"E_M_Michael_McIntyr.png","P_M_jeremy_corbyn.png","FALSE","pictures/stimuli/E","pictures/stimuli/P","M","M","4","55d24bb75bc5bc0005d9050d","06/30/2022, 15:08:20",-0.658261597944507,"33","Male","right",1,1,0,0,FALSE,"E_M_Michael_McIntyr.png P_M_jeremy_corbyn.png"
1404,"E_M_Michael_McIntyr.png","E_M_Russell_Howard.png","TRUE","pictures/stimuli/E","pictures/stimuli/E","M","M","6","55d24bb75bc5bc0005d9050d","06/30/2022, 15:08:20",0.731401775493896,"33","Male","right",1,1,0,0,FALSE,"E_M_Michael_McIntyr.png E_M_Russell_Howard.png"
1444,"E_F_Julie_Walters.png","P_M_Michael_Gove.png","FALSE","pictures/stimuli/E","pictures/stimuli/P","F","M","4","55d24bb75bc5bc0005d9050d","06/30/2022, 15:08:20",-0.658261597944507,"33","Male","right",0,0,0,0,TRUE,"E_F_Julie_Walters.png P_M_Michael_Gove.png"
1600,"E_M_Russell_Howard.png","P_M_jeremy_corbyn.png","FALSE","pictures/stimuli/E","pictures/stimuli/P","M","M","3","55d24bb75bc5bc0005d9050d","06/30/2022, 15:08:20",-1.35309328466371,"33","Male","right",1,1,0,0,FALSE,"E_M_Russell_Howard.png P_M_jeremy_corbyn.png"
1819,"E_M_Russell_Howard.png","E_M_Simon_Pegg.png","TRUE","pictures/stimuli/E","pictures/stimuli/E","M","M","4","55d24bb75bc5bc0005d9050d","06/30/2022, 15:08:20",-0.658261597944507,"33","Male","right",1,1,0,0,FALSE,"E_M_Russell_Howard.png E_M_Simon_Pegg.png"
2228,"E_M_Jimmy_Carr.png","P_M_keir_starmer.png","FALSE","pictures/stimuli/E","pictures/stimuli/P","M","M","5","55d24bb75bc5bc0005d9050d","06/30/2022, 15:08:20",0.0365700887746946,"33","Male","right",1,1,0,0,FALSE,"E_M_Jimmy_Carr.png P_M_keir_starmer.png"
1225,"P_F_Theresa_May.png","P_M_Sajid_Javid.png","TRUE","pictures/stimuli/P","pictures/stimuli/P","F","M","6","55d24bb75bc5bc0005d9050d","06/30/2022, 15:08:20",0.731401775493896,"33","Male","right",1,1,0,0,FALSE,"P_F_Theresa_May.png P_M_Sajid_Javid.png"
1669,"E_F_Dawn_Roma_French.png","E_F_Jennifer_Saunders.png","TRUE","pictures/stimuli/E","pictures/stimuli/E","F","F","4","55d24bb75bc5bc0005d9050d","06/30/2022, 15:08:20",-0.658261597944507,"33","Male","right",0,0,0,0,TRUE,"E_F_Dawn_Roma_French.png E_F_Jennifer_Saunders.png"
2491,"P_M_david_camer.png","P_M_Tony_Blair.png","TRUE","pictures/stimuli/P","pictures/stimuli/P","M","M","5","55d24bb75bc5bc0005d9050d","06/30/2022, 15:08:20",0.0365700887746946,"33","Male","right",1,1,0,0,FALSE,"P_M_david_camer.png P_M_Tony_Blair.png"
2345,"P_M_Gordon_Brown.png","P_M_Michael_Gove.png","TRUE","pictures/stimuli/P","pictures/stimuli/P","M","M","6","55d24bb75bc5bc0005d9050d","06/30/2022, 15:08:20",0.731401775493896,"33","Male","right",1,0,0,0,TRUE,"P_M_Gordon_Brown.png P_M_Michael_Gove.png"
1248,"E_F_Jennifer_Saunders.png","E_M_Ewan_McGregor.png","TRUE","pictures/stimuli/E","pictures/stimuli/E","F","M","5","55d24bb75bc5bc0005d9050d","06/30/2022, 15:08:20",0.0365700887746946,"33","Male","right",0,0,0,0,TRUE,"E_F_Jennifer_Saunders.png E_M_Ewan_McGregor.png"
2221,"E_F_Julie_Walters.png","E_M_Jimmy_Carr.png","TRUE","pictures/stimuli/E","pictures/stimuli/E","F","M","6","55d24bb75bc5bc0005d9050d","06/30/2022, 15:08:20",0.731401775493896,"33","Male","right",0,1,0,0,TRUE,"E_F_Julie_Walters.png E_M_Jimmy_Carr.png"
3360,"P_F_nicola_sturge.png","P_M_Michael_Gove.png","TRUE","pictures/stimuli/P","pictures/stimuli/P","F","M","4","55d24bb75bc5bc0005d9050d","06/30/2022, 15:08:20",-0.658261597944507,"33","Male","right",1,0,0,0,TRUE,"P_F_nicola_sturge.png P_M_Michael_Gove.png"
1758,"E_M_Jimmy_Carr.png","P_M_Sajid_Javid.png","FALSE","pictures/stimuli/E","pictures/stimuli/P","M","M","6","55d24bb75bc5bc0005d9050d","06/30/2022, 15:08:20",0.731401775493896,"33","Male","right",1,1,0,0,FALSE,"E_M_Jimmy_Carr.png P_M_Sajid_Javid.png"
1148,"E_M_Peter_Kay.png","P_M_jeremy_corbyn.png","FALSE","pictures/stimuli/E","pictures/stimuli/P","M","M","6","55d24bb75bc5bc0005d9050d","06/30/2022, 15:08:20",0.731401775493896,"33","Male","right",1,1,0,0,FALSE,"E_M_Peter_Kay.png P_M_jeremy_corbyn.png"
2062,"E_M_Ewan_McGregor.png","P_M_Tony_Blair.png","FALSE","pictures/stimuli/E","pictures/stimuli/P","M","M","5","55d24bb75bc5bc0005d9050d","06/30/2022, 15:08:20",0.0365700887746946,"33","Male","right",0,1,0,0,TRUE,"E_M_Ewan_McGregor.png P_M_Tony_Blair.png"
1369,"E_M_Ewan_McGregor.png","E_M_Michael_McIntyr.png","TRUE","pictures/stimuli/E","pictures/stimuli/E","M","M","6","55d24bb75bc5bc0005d9050d","06/30/2022, 15:08:20",0.731401775493896,"33","Male","right",0,1,0,0,TRUE,"E_M_Ewan_McGregor.png E_M_Michael_McIntyr.png"
1316,"P_F_nicola_sturge.png","P_M_Sajid_Javid.png","TRUE","pictures/stimuli/P","pictures/stimuli/P","F","M","6","55d24bb75bc5bc0005d9050d","06/30/2022, 15:08:20",0.731401775493896,"33","Male","right",1,1,0,0,FALSE,"P_F_nicola_sturge.png P_M_Sajid_Javid.png"
2014,"P_M_david_camer.png","P_M_nigel_farage.png","TRUE","pictures/stimuli/P","pictures/stimuli/P","M","M","5","55d24bb75bc5bc0005d9050d","06/30/2022, 15:08:20",0.0365700887746946,"33","Male","right",1,1,0,0,FALSE,"P_M_david_camer.png P_M_nigel_farage.png"
1577,"P_F_nicola_sturge.png","P_M_jeremy_corbyn.png","TRUE","pictures/stimuli/P","pictures/stimuli/P","F","M","6","55d24bb75bc5bc0005d9050d","06/30/2022, 15:08:20",0.731401775493896,"33","Male","right",1,1,0,0,FALSE,"P_F_nicola_sturge.png P_M_jeremy_corbyn.png"
1834,"E_M_Ewan_McGregor.png","P_M_nigel_farage.png","FALSE","pictures/stimuli/E","pictures/stimuli/P","M","M","5","55d24bb75bc5bc0005d9050d","06/30/2022, 15:08:20",0.0365700887746946,"33","Male","right",0,1,0,0,TRUE,"E_M_Ewan_McGregor.png P_M_nigel_farage.png"
2031,"E_F_Sarah_Millican.png","P_M_Gordon_Brown.png","FALSE","pictures/stimuli/E","pictures/stimuli/P","F","M","6","55d24bb75bc5bc0005d9050d","06/30/2022, 15:08:20",0.731401775493896,"33","Male","right",1,1,0,0,FALSE,"E_F_Sarah_Millican.png P_M_Gordon_Brown.png"
1122,"E_M_Michael_McIntyr.png","P_M_Sajid_Javid.png","FALSE","pictures/stimuli/E","pictures/stimuli/P","M","M","6","55d24bb75bc5bc0005d9050d","06/30/2022, 15:08:20",0.731401775493896,"33","Male","right",1,1,0,0,FALSE,"E_M_Michael_McIntyr.png P_M_Sajid_Javid.png"
1562,"E_F_Jennifer_Saunders.png","E_M_Peter_Kay.png","TRUE","pictures/stimuli/E","pictures/stimuli/E","F","M","6","55d24bb75bc5bc0005d9050d","06/30/2022, 15:08:20",0.731401775493896,"33","Male","right",0,1,0,0,TRUE,"E_F_Jennifer_Saunders.png E_M_Peter_Kay.png"
1289,"E_F_Sarah_Millican.png","E_M_Simon_Pegg.png","TRUE","pictures/stimuli/E","pictures/stimuli/E","F","M","6","55d24bb75bc5bc0005d9050d","06/30/2022, 15:08:20",0.731401775493896,"33","Male","right",1,1,0,0,FALSE,"E_F_Sarah_Millican.png E_M_Simon_Pegg.png"
1427,"E_F_Dawn_Roma_French.png","P_M_Sajid_Javid.png","FALSE","pictures/stimuli/E","pictures/stimuli/P","F","M","6","55d24bb75bc5bc0005d9050d","06/30/2022, 15:08:20",0.731401775493896,"33","Male","right",0,1,0,0,TRUE,"E_F_Dawn_Roma_French.png P_M_Sajid_Javid.png"
1515,"E_F_Julie_Walters.png","E_F_Sarah_Millican.png","TRUE","pictures/stimuli/E","pictures/stimuli/E","F","F","6","55d24bb75bc5bc0005d9050d","06/30/2022, 15:08:20",0.731401775493896,"33","Male","right",0,1,0,0,TRUE,"E_F_Julie_Walters.png E_F_Sarah_Millican.png"
1561,"P_M_david_camer.png","P_M_jeremy_corbyn.png","TRUE","pictures/stimuli/P","pictures/stimuli/P","M","M","5","55d24bb75bc5bc0005d9050d","06/30/2022, 15:08:20",0.0365700887746946,"33","Male","right",1,1,0,0,FALSE,"P_M_david_camer.png P_M_jeremy_corbyn.png"
1444,"E_M_Jimmy_Carr.png","P_F_Theresa_May.png","FALSE","pictures/stimuli/E","pictures/stimuli/P","M","F","6","55d24bb75bc5bc0005d9050d","06/30/2022, 15:08:20",0.731401775493896,"33","Male","right",1,1,0,0,FALSE,"E_M_Jimmy_Carr.png P_F_Theresa_May.png"
1958,"E_M_Jimmy_Carr.png","E_M_Michael_McIntyr.png","TRUE","pictures/stimuli/E","pictures/stimuli/E","M","M","3","55d24bb75bc5bc0005d9050d","06/30/2022, 15:08:20",-1.35309328466371,"33","Male","right",1,1,0,0,FALSE,"E_M_Jimmy_Carr.png E_M_Michael_McIntyr.png"
2794,"E_F_Dawn_Roma_French.png","E_F_Sarah_Millican.png","TRUE","pictures/stimuli/E","pictures/stimuli/E","F","F","1","55d24bb75bc5bc0005d9050d","06/30/2022, 15:08:20",-2.74275665810211,"33","Male","right",0,1,0,0,TRUE,"E_F_Dawn_Roma_French.png E_F_Sarah_Millican.png"
2394,"E_M_Russell_Howard.png","P_M_Michael_Gove.png","FALSE","pictures/stimuli/E","pictures/stimuli/P","M","M","3","55d24bb75bc5bc0005d9050d","06/30/2022, 15:08:20",-1.35309328466371,"33","Male","right",1,0,0,0,TRUE,"E_M_Russell_Howard.png P_M_Michael_Gove.png"
2162,"E_F_Sarah_Millican.png","P_M_jeremy_corbyn.png","FALSE","pictures/stimuli/E","pictures/stimuli/P","F","M","6","55d24bb75bc5bc0005d9050d","06/30/2022, 15:08:20",0.731401775493896,"33","Male","right",1,1,0,0,FALSE,"E_F_Sarah_Millican.png P_M_jeremy_corbyn.png"
1310,"E_F_Jennifer_Saunders.png","P_M_Sajid_Javid.png","FALSE","pictures/stimuli/E","pictures/stimuli/P","F","M","6","55d24bb75bc5bc0005d9050d","06/30/2022, 15:08:20",0.731401775493896,"33","Male","right",0,1,0,0,TRUE,"E_F_Jennifer_Saunders.png P_M_Sajid_Javid.png"
2795,"P_F_nicola_sturge.png","P_F_Theresa_May.png","TRUE","pictures/stimuli/P","pictures/stimuli/P","F","F","1","55d24bb75bc5bc0005d9050d","06/30/2022, 15:08:20",-2.74275665810211,"33","Male","right",1,1,0,0,FALSE,"P_F_nicola_sturge.png P_F_Theresa_May.png"
2875,"P_F_Theresa_May.png","P_M_jeremy_corbyn.png","TRUE","pictures/stimuli/P","pictures/stimuli/P","F","M","3","55d24bb75bc5bc0005d9050d","06/30/2022, 15:08:20",-1.35309328466371,"33","Male","right",1,1,0,0,FALSE,"P_F_Theresa_May.png P_M_jeremy_corbyn.png"
1978,"E_M_Jimmy_Carr.png","P_M_Michael_Gove.png","FALSE","pictures/stimuli/E","pictures/stimuli/P","M","M","3","55d24bb75bc5bc0005d9050d","06/30/2022, 15:08:20",-1.35309328466371,"33","Male","right",1,0,0,0,TRUE,"E_M_Jimmy_Carr.png P_M_Michael_Gove.png"
2014,"E_M_Ewan_McGregor.png","P_F_nicola_sturge.png","FALSE","pictures/stimuli/E","pictures/stimuli/P","M","F","6","55d24bb75bc5bc0005d9050d","06/30/2022, 15:08:20",0.731401775493896,"33","Male","right",0,1,0,0,TRUE,"E_M_Ewan_McGregor.png P_F_nicola_sturge.png"
3303,"E_F_Dawn_Roma_French.png","P_F_Theresa_May.png","FALSE","pictures/stimuli/E","pictures/stimuli/P","F","F","3","55d24bb75bc5bc0005d9050d","06/30/2022, 15:08:20",-1.35309328466371,"33","Male","right",0,1,0,0,TRUE,"E_F_Dawn_Roma_French.png P_F_Theresa_May.png"
2421,"E_M_Simon_Pegg.png","P_M_Gordon_Brown.png","FALSE","pictures/stimuli/E","pictures/stimuli/P","M","M","5","55d24bb75bc5bc0005d9050d","06/30/2022, 15:08:20",0.0365700887746946,"33","Male","right",1,1,0,0,FALSE,"E_M_Simon_Pegg.png P_M_Gordon_Brown.png"
3778,"P_F_nicola_sturge.png","P_M_david_camer.png","TRUE","pictures/stimuli/P","pictures/stimuli/P","F","M","4","55d24bb75bc5bc0005d9050d","06/30/2022, 15:08:20",-0.658261597944507,"33","Male","right",1,1,0,0,FALSE,"P_F_nicola_sturge.png P_M_david_camer.png"
7941,"E_F_Sarah_Millican.png","P_F_nicola_sturge.png","FALSE","pictures/stimuli/E","pictures/stimuli/P","F","F","6","55ef58d4b9401300137f42a1","06/30/2022, 14:58:44",1.09333979771137,"28","Female","right",1,1,0,0,FALSE,"E_F_Sarah_Millican.png P_F_nicola_sturge.png"
4005,"P_M_jeremy_corbyn.png","P_M_Michael_Gove.png","TRUE","pictures/stimuli/P","pictures/stimuli/P","M","M","4","55ef58d4b9401300137f42a1","06/30/2022, 14:58:44",-0.390478499182633,"28","Female","right",1,1,0,0,FALSE,"P_M_jeremy_corbyn.png P_M_Michael_Gove.png"
4904,"E_F_Jennifer_Saunders.png","E_F_Sarah_Millican.png","TRUE","pictures/stimuli/E","pictures/stimuli/E","F","F","5","55ef58d4b9401300137f42a1","06/30/2022, 14:58:44",0.35143064926437,"28","Female","right",1,1,0,0,FALSE,"E_F_Jennifer_Saunders.png E_F_Sarah_Millican.png"
5205,"E_F_Sarah_Millican.png","P_F_Theresa_May.png","FALSE","pictures/stimuli/E","pictures/stimuli/P","F","F","6","55ef58d4b9401300137f42a1","06/30/2022, 14:58:44",1.09333979771137,"28","Female","right",1,1,0,0,FALSE,"E_F_Sarah_Millican.png P_F_Theresa_May.png"
6626,"E_F_Jennifer_Saunders.png","P_M_Sajid_Javid.png","FALSE","pictures/stimuli/E","pictures/stimuli/P","F","M","4","55ef58d4b9401300137f42a1","06/30/2022, 14:58:44",-0.390478499182633,"28","Female","right",1,1,0,0,FALSE,"E_F_Jennifer_Saunders.png P_M_Sajid_Javid.png"
4621,"P_F_nicola_sturge.png","P_M_keir_starmer.png","TRUE","pictures/stimuli/P","pictures/stimuli/P","F","M","3","55ef58d4b9401300137f42a1","06/30/2022, 14:58:44",-1.13238764762964,"28","Female","right",1,1,0,0,FALSE,"P_F_nicola_sturge.png P_M_keir_starmer.png"
5537,"E_M_Jimmy_Carr.png","P_M_david_camer.png","FALSE","pictures/stimuli/E","pictures/stimuli/P","M","M","5","55ef58d4b9401300137f42a1","06/30/2022, 14:58:44",0.35143064926437,"28","Female","right",1,1,0,0,FALSE,"E_M_Jimmy_Carr.png P_M_david_camer.png"
4155,"E_F_Jennifer_Saunders.png","P_M_nigel_farage.png","FALSE","pictures/stimuli/E","pictures/stimuli/P","F","M","6","55ef58d4b9401300137f42a1","06/30/2022, 14:58:44",1.09333979771137,"28","Female","right",1,1,0,0,FALSE,"E_F_Jennifer_Saunders.png P_M_nigel_farage.png"
3612,"E_M_Jimmy_Carr.png","P_M_keir_starmer.png","FALSE","pictures/stimuli/E","pictures/stimuli/P","M","M","4","55ef58d4b9401300137f42a1","06/30/2022, 14:58:44",-0.390478499182633,"28","Female","right",1,1,0,0,FALSE,"E_M_Jimmy_Carr.png P_M_keir_starmer.png"
3622,"E_F_Dawn_Roma_French.png","P_M_jeremy_corbyn.png","FALSE","pictures/stimuli/E","pictures/stimuli/P","F","M","6","55ef58d4b9401300137f42a1","06/30/2022, 14:58:44",1.09333979771137,"28","Female","right",1,1,0,0,FALSE,"E_F_Dawn_Roma_French.png P_M_jeremy_corbyn.png"
3673,"E_M_Ewan_McGregor.png","P_M_david_camer.png","FALSE","pictures/stimuli/E","pictures/stimuli/P","M","M","3","55ef58d4b9401300137f42a1","06/30/2022, 14:58:44",-1.13238764762964,"28","Female","right",1,1,0,0,FALSE,"E_M_Ewan_McGregor.png P_M_david_camer.png"
5208,"E_M_Michael_McIntyr.png","E_M_Peter_Kay.png","TRUE","pictures/stimuli/E","pictures/stimuli/E","M","M","3","55ef58d4b9401300137f42a1","06/30/2022, 14:58:44",-1.13238764762964,"28","Female","right",1,1,0,0,FALSE,"E_M_Michael_McIntyr.png E_M_Peter_Kay.png"
7856,"E_M_Ewan_McGregor.png","E_M_Russell_Howard.png","TRUE","pictures/stimuli/E","pictures/stimuli/E","M","M","4","55ef58d4b9401300137f42a1","06/30/2022, 14:58:44",-0.390478499182633,"28","Female","right",1,1,0,0,FALSE,"E_M_Ewan_McGregor.png E_M_Russell_Howard.png"
4860,"E_F_Julie_Walters.png","P_M_Tony_Blair.png","FALSE","pictures/stimuli/E","pictures/stimuli/P","F","M","3","55ef58d4b9401300137f42a1","06/30/2022, 14:58:44",-1.13238764762964,"28","Female","right",1,1,0,0,FALSE,"E_F_Julie_Walters.png P_M_Tony_Blair.png"
4090,"E_F_Jennifer_Saunders.png","E_M_Michael_McIntyr.png","TRUE","pictures/stimuli/E","pictures/stimuli/E","F","M","3","55ef58d4b9401300137f42a1","06/30/2022, 14:58:44",-1.13238764762964,"28","Female","right",1,1,0,0,FALSE,"E_F_Jennifer_Saunders.png E_M_Michael_McIntyr.png"
4871,"E_M_Simon_Pegg.png","P_M_Sajid_Javid.png","FALSE","pictures/stimuli/E","pictures/stimuli/P","M","M","5","55ef58d4b9401300137f42a1","06/30/2022, 14:58:44",0.35143064926437,"28","Female","right",1,1,0,0,FALSE,"E_M_Simon_Pegg.png P_M_Sajid_Javid.png"
5872,"E_M_Simon_Pegg.png","P_M_Gordon_Brown.png","FALSE","pictures/stimuli/E","pictures/stimuli/P","M","M","6","55ef58d4b9401300137f42a1","06/30/2022, 14:58:44",1.09333979771137,"28","Female","right",1,1,0,0,FALSE,"E_M_Simon_Pegg.png P_M_Gordon_Brown.png"
6107,"E_F_Julie_Walters.png","P_F_Theresa_May.png","FALSE","pictures/stimuli/E","pictures/stimuli/P","F","F","3","55ef58d4b9401300137f42a1","06/30/2022, 14:58:44",-1.13238764762964,"28","Female","right",1,1,0,0,FALSE,"E_F_Julie_Walters.png P_F_Theresa_May.png"
6047,"P_M_david_camer.png","P_M_Sajid_Javid.png","TRUE","pictures/stimuli/P","pictures/stimuli/P","M","M","5","55ef58d4b9401300137f42a1","06/30/2022, 14:58:44",0.35143064926437,"28","Female","right",1,1,0,0,FALSE,"P_M_david_camer.png P_M_Sajid_Javid.png"
4940,"E_M_Peter_Kay.png","P_M_Tony_Blair.png","FALSE","pictures/stimuli/E","pictures/stimuli/P","M","M","6","55ef58d4b9401300137f42a1","06/30/2022, 14:58:44",1.09333979771137,"28","Female","right",1,1,0,0,FALSE,"E_M_Peter_Kay.png P_M_Tony_Blair.png"
2938,"P_F_nicola_sturge.png","P_M_Tony_Blair.png","TRUE","pictures/stimuli/P","pictures/stimuli/P","F","M","3","55ef58d4b9401300137f42a1","06/30/2022, 14:58:44",-1.13238764762964,"28","Female","right",1,1,0,0,FALSE,"P_F_nicola_sturge.png P_M_Tony_Blair.png"
5574,"E_F_Dawn_Roma_French.png","P_M_Gordon_Brown.png","FALSE","pictures/stimuli/E","pictures/stimuli/P","F","M","5","55ef58d4b9401300137f42a1","06/30/2022, 14:58:44",0.35143064926437,"28","Female","right",1,1,0,0,FALSE,"E_F_Dawn_Roma_French.png P_M_Gordon_Brown.png"
4759,"P_M_david_camer.png","P_M_keir_starmer.png","TRUE","pictures/stimuli/P","pictures/stimuli/P","M","M","4","55ef58d4b9401300137f42a1","06/30/2022, 14:58:44",-0.390478499182633,"28","Female","right",1,1,0,0,FALSE,"P_M_david_camer.png P_M_keir_starmer.png"
4779,"P_M_nigel_farage.png","P_M_Tony_Blair.png","TRUE","pictures/stimuli/P","pictures/stimuli/P","M","M","5","55ef58d4b9401300137f42a1","06/30/2022, 14:58:44",0.35143064926437,"28","Female","right",1,1,0,0,FALSE,"P_M_nigel_farage.png P_M_Tony_Blair.png"
3539,"E_F_Sarah_Millican.png","E_M_Russell_Howard.png","TRUE","pictures/stimuli/E","pictures/stimuli/E","F","M","6","55ef58d4b9401300137f42a1","06/30/2022, 14:58:44",1.09333979771137,"28","Female","right",1,1,0,0,FALSE,"E_F_Sarah_Millican.png E_M_Russell_Howard.png"
4495,"E_F_Dawn_Roma_French.png","E_M_Simon_Pegg.png","TRUE","pictures/stimuli/E","pictures/stimuli/E","F","M","6","55ef58d4b9401300137f42a1","06/30/2022, 14:58:44",1.09333979771137,"28","Female","right",1,1,0,0,FALSE,"E_F_Dawn_Roma_French.png E_M_Simon_Pegg.png"
5572,"E_F_Jennifer_Saunders.png","E_M_Simon_Pegg.png","TRUE","pictures/stimuli/E","pictures/stimuli/E","F","M","6","55ef58d4b9401300137f42a1","06/30/2022, 14:58:44",1.09333979771137,"28","Female","right",1,1,0,0,FALSE,"E_F_Jennifer_Saunders.png E_M_Simon_Pegg.png"
5527,"E_M_Michael_McIntyr.png","P_M_Michael_Gove.png","FALSE","pictures/stimuli/E","pictures/stimuli/P","M","M","6","55ef58d4b9401300137f42a1","06/30/2022, 14:58:44",1.09333979771137,"28","Female","right",1,1,0,0,FALSE,"E_M_Michael_McIntyr.png P_M_Michael_Gove.png"
4389,"E_M_Russell_Howard.png","P_M_nigel_farage.png","FALSE","pictures/stimuli/E","pictures/stimuli/P","M","M","4","55ef58d4b9401300137f42a1","06/30/2022, 14:58:44",-0.390478499182633,"28","Female","right",1,1,0,0,FALSE,"E_M_Russell_Howard.png P_M_nigel_farage.png"
9439,"E_F_Dawn_Roma_French.png","P_M_keir_starmer.png","FALSE","pictures/stimuli/E","pictures/stimuli/P","F","M","4","55ef58d4b9401300137f42a1","06/30/2022, 14:58:44",-0.390478499182633,"28","Female","right",1,1,0,0,FALSE,"E_F_Dawn_Roma_French.png P_M_keir_starmer.png"
5793,"P_F_Theresa_May.png","P_M_Sajid_Javid.png","TRUE","pictures/stimuli/P","pictures/stimuli/P","F","M","5","55ef58d4b9401300137f42a1","06/30/2022, 14:58:44",0.35143064926437,"28","Female","right",1,1,0,0,FALSE,"P_F_Theresa_May.png P_M_Sajid_Javid.png"
4419,"E_F_Sarah_Millican.png","E_M_Michael_McIntyr.png","TRUE","pictures/stimuli/E","pictures/stimuli/E","F","M","4","55ef58d4b9401300137f42a1","06/30/2022, 14:58:44",-0.390478499182633,"28","Female","right",1,1,0,0,FALSE,"E_F_Sarah_Millican.png E_M_Michael_McIntyr.png"
3572,"E_F_Sarah_Millican.png","E_M_Peter_Kay.png","TRUE","pictures/stimuli/E","pictures/stimuli/E","F","M","6","55ef58d4b9401300137f42a1","06/30/2022, 14:58:44",1.09333979771137,"28","Female","right",1,1,0,0,FALSE,"E_F_Sarah_Millican.png E_M_Peter_Kay.png"
4049,"P_M_keir_starmer.png","P_M_Sajid_Javid.png","TRUE","pictures/stimuli/P","pictures/stimuli/P","M","M","5","55ef58d4b9401300137f42a1","06/30/2022, 14:58:44",0.35143064926437,"28","Female","right",1,1,0,0,FALSE,"P_M_keir_starmer.png P_M_Sajid_Javid.png"
4356,"E_F_Jennifer_Saunders.png","P_M_jeremy_corbyn.png","FALSE","pictures/stimuli/E","pictures/stimuli/P","F","M","4","55ef58d4b9401300137f42a1","06/30/2022, 14:58:44",-0.390478499182633,"28","Female","right",1,1,0,0,FALSE,"E_F_Jennifer_Saunders.png P_M_jeremy_corbyn.png"
3439,"E_F_Julie_Walters.png","E_M_Jimmy_Carr.png","TRUE","pictures/stimuli/E","pictures/stimuli/E","F","M","5","55ef58d4b9401300137f42a1","06/30/2022, 14:58:44",0.35143064926437,"28","Female","right",1,1,0,0,FALSE,"E_F_Julie_Walters.png E_M_Jimmy_Carr.png"
20346,"E_F_Jennifer_Saunders.png","P_M_keir_starmer.png","FALSE","pictures/stimuli/E","pictures/stimuli/P","F","M","6","55ef58d4b9401300137f42a1","06/30/2022, 14:58:44",1.09333979771137,"28","Female","right",1,1,0,0,FALSE,"E_F_Jennifer_Saunders.png P_M_keir_starmer.png"
8689,"E_F_Dawn_Roma_French.png","E_M_Ewan_McGregor.png","TRUE","pictures/stimuli/E","pictures/stimuli/E","F","M","5","55ef58d4b9401300137f42a1","06/30/2022, 14:58:44",0.35143064926437,"28","Female","right",1,1,0,0,FALSE,"E_F_Dawn_Roma_French.png E_M_Ewan_McGregor.png"
7610,"E_M_Ewan_McGregor.png","P_M_Tony_Blair.png","FALSE","pictures/stimuli/E","pictures/stimuli/P","M","M","4","55ef58d4b9401300137f42a1","06/30/2022, 14:58:44",-0.390478499182633,"28","Female","right",1,1,0,0,FALSE,"E_M_Ewan_McGregor.png P_M_Tony_Blair.png"
5040,"P_M_Gordon_Brown.png","P_M_Tony_Blair.png","TRUE","pictures/stimuli/P","pictures/stimuli/P","M","M","3","55ef58d4b9401300137f42a1","06/30/2022, 14:58:44",-1.13238764762964,"28","Female","right",1,1,0,0,FALSE,"P_M_Gordon_Brown.png P_M_Tony_Blair.png"
17073,"E_M_Jimmy_Carr.png","P_M_nigel_farage.png","FALSE","pictures/stimuli/E","pictures/stimuli/P","M","M","4","55ef58d4b9401300137f42a1","06/30/2022, 14:58:44",-0.390478499182633,"28","Female","right",1,1,0,0,FALSE,"E_M_Jimmy_Carr.png P_M_nigel_farage.png"
4223,"E_M_Russell_Howard.png","P_M_Michael_Gove.png","FALSE","pictures/stimuli/E","pictures/stimuli/P","M","M","6","55ef58d4b9401300137f42a1","06/30/2022, 14:58:44",1.09333979771137,"28","Female","right",1,1,0,0,FALSE,"E_M_Russell_Howard.png P_M_Michael_Gove.png"
5491,"E_M_Ewan_McGregor.png","E_M_Simon_Pegg.png","TRUE","pictures/stimuli/E","pictures/stimuli/E","M","M","6","55ef58d4b9401300137f42a1","06/30/2022, 14:58:44",1.09333979771137,"28","Female","right",1,1,0,0,FALSE,"E_M_Ewan_McGregor.png E_M_Simon_Pegg.png"
7939,"E_M_Peter_Kay.png","P_M_jeremy_corbyn.png","FALSE","pictures/stimuli/E","pictures/stimuli/P","M","M","6","55ef58d4b9401300137f42a1","06/30/2022, 14:58:44",1.09333979771137,"28","Female","right",1,1,0,0,FALSE,"E_M_Peter_Kay.png P_M_jeremy_corbyn.png"
7339,"E_M_Ewan_McGregor.png","E_M_Michael_McIntyr.png","TRUE","pictures/stimuli/E","pictures/stimuli/E","M","M","3","55ef58d4b9401300137f42a1","06/30/2022, 14:58:44",-1.13238764762964,"28","Female","right",1,1,0,0,FALSE,"E_M_Ewan_McGregor.png E_M_Michael_McIntyr.png"
3490,"E_M_Jimmy_Carr.png","P_F_Theresa_May.png","FALSE","pictures/stimuli/E","pictures/stimuli/P","M","F","6","55ef58d4b9401300137f42a1","06/30/2022, 14:58:44",1.09333979771137,"28","Female","right",1,1,0,0,FALSE,"E_M_Jimmy_Carr.png P_F_Theresa_May.png"
2938,"P_M_david_camer.png","P_M_nigel_farage.png","TRUE","pictures/stimuli/P","pictures/stimuli/P","M","M","6","55ef58d4b9401300137f42a1","06/30/2022, 14:58:44",1.09333979771137,"28","Female","right",1,1,0,0,FALSE,"P_M_david_camer.png P_M_nigel_farage.png"
3542,"E_F_Sarah_Millican.png","P_M_Gordon_Brown.png","FALSE","pictures/stimuli/E","pictures/stimuli/P","F","M","5","55ef58d4b9401300137f42a1","06/30/2022, 14:58:44",0.35143064926437,"28","Female","right",1,1,0,0,FALSE,"E_F_Sarah_Millican.png P_M_Gordon_Brown.png"
3341,"E_F_Julie_Walters.png","P_M_nigel_farage.png","FALSE","pictures/stimuli/E","pictures/stimuli/P","F","M","6","55ef58d4b9401300137f42a1","06/30/2022, 14:58:44",1.09333979771137,"28","Female","right",1,1,0,0,FALSE,"E_F_Julie_Walters.png P_M_nigel_farage.png"
5525,"E_F_Dawn_Roma_French.png","P_M_Sajid_Javid.png","FALSE","pictures/stimuli/E","pictures/stimuli/P","F","M","6","55ef58d4b9401300137f42a1","06/30/2022, 14:58:44",1.09333979771137,"28","Female","right",1,1,0,0,FALSE,"E_F_Dawn_Roma_French.png P_M_Sajid_Javid.png"
4421,"E_F_Sarah_Millican.png","P_M_jeremy_corbyn.png","FALSE","pictures/stimuli/E","pictures/stimuli/P","F","M","6","55ef58d4b9401300137f42a1","06/30/2022, 14:58:44",1.09333979771137,"28","Female","right",1,1,0,0,FALSE,"E_F_Sarah_Millican.png P_M_jeremy_corbyn.png"
3588,"E_F_Julie_Walters.png","P_M_jeremy_corbyn.png","FALSE","pictures/stimuli/E","pictures/stimuli/P","F","M","6","55ef58d4b9401300137f42a1","06/30/2022, 14:58:44",1.09333979771137,"28","Female","right",1,1,0,0,FALSE,"E_F_Julie_Walters.png P_M_jeremy_corbyn.png"
3580,"E_F_Dawn_Roma_French.png","E_F_Julie_Walters.png","TRUE","pictures/stimuli/E","pictures/stimuli/E","F","F","5","55ef58d4b9401300137f42a1","06/30/2022, 14:58:44",0.35143064926437,"28","Female","right",1,1,0,0,FALSE,"E_F_Dawn_Roma_French.png E_F_Julie_Walters.png"
4208,"P_F_Theresa_May.png","P_M_Gordon_Brown.png","TRUE","pictures/stimuli/P","pictures/stimuli/P","F","M","6","55ef58d4b9401300137f42a1","06/30/2022, 14:58:44",1.09333979771137,"28","Female","right",1,1,0,0,FALSE,"P_F_Theresa_May.png P_M_Gordon_Brown.png"
3088,"E_F_Jennifer_Saunders.png","P_F_Theresa_May.png","FALSE","pictures/stimuli/E","pictures/stimuli/P","F","F","4","55ef58d4b9401300137f42a1","06/30/2022, 14:58:44",-0.390478499182633,"28","Female","right",1,1,0,0,FALSE,"E_F_Jennifer_Saunders.png P_F_Theresa_May.png"
3536,"E_F_Julie_Walters.png","E_M_Russell_Howard.png","TRUE","pictures/stimuli/E","pictures/stimuli/E","F","M","3","55ef58d4b9401300137f42a1","06/30/2022, 14:58:44",-1.13238764762964,"28","Female","right",1,1,0,0,FALSE,"E_F_Julie_Walters.png E_M_Russell_Howard.png"
4656,"P_F_Theresa_May.png","P_M_Tony_Blair.png","TRUE","pictures/stimuli/P","pictures/stimuli/P","F","M","4","55ef58d4b9401300137f42a1","06/30/2022, 14:58:44",-0.390478499182633,"28","Female","right",1,1,0,0,FALSE,"P_F_Theresa_May.png P_M_Tony_Blair.png"
2987,"E_M_Simon_Pegg.png","P_M_david_camer.png","FALSE","pictures/stimuli/E","pictures/stimuli/P","M","M","6","55ef58d4b9401300137f42a1","06/30/2022, 14:58:44",1.09333979771137,"28","Female","right",1,1,0,0,FALSE,"E_M_Simon_Pegg.png P_M_david_camer.png"
3142,"P_F_Theresa_May.png","P_M_Michael_Gove.png","TRUE","pictures/stimuli/P","pictures/stimuli/P","F","M","6","55ef58d4b9401300137f42a1","06/30/2022, 14:58:44",1.09333979771137,"28","Female","right",1,1,0,0,FALSE,"P_F_Theresa_May.png P_M_Michael_Gove.png"
3507,"P_F_nicola_sturge.png","P_M_Michael_Gove.png","TRUE","pictures/stimuli/P","pictures/stimuli/P","F","M","6","55ef58d4b9401300137f42a1","06/30/2022, 14:58:44",1.09333979771137,"28","Female","right",1,1,0,0,FALSE,"P_F_nicola_sturge.png P_M_Michael_Gove.png"
4943,"E_F_Dawn_Roma_French.png","E_M_Peter_Kay.png","TRUE","pictures/stimuli/E","pictures/stimuli/E","F","M","6","55ef58d4b9401300137f42a1","06/30/2022, 14:58:44",1.09333979771137,"28","Female","right",1,1,0,0,FALSE,"E_F_Dawn_Roma_French.png E_M_Peter_Kay.png"
3537,"E_M_Michael_McIntyr.png","P_M_Gordon_Brown.png","FALSE","pictures/stimuli/E","pictures/stimuli/P","M","M","5","55ef58d4b9401300137f42a1","06/30/2022, 14:58:44",0.35143064926437,"28","Female","right",1,1,0,0,FALSE,"E_M_Michael_McIntyr.png P_M_Gordon_Brown.png"
3706,"P_F_Theresa_May.png","P_M_david_camer.png","TRUE","pictures/stimuli/P","pictures/stimuli/P","F","M","6","55ef58d4b9401300137f42a1","06/30/2022, 14:58:44",1.09333979771137,"28","Female","right",1,1,0,0,FALSE,"P_F_Theresa_May.png P_M_david_camer.png"
5588,"E_M_Russell_Howard.png","E_M_Simon_Pegg.png","TRUE","pictures/stimuli/E","pictures/stimuli/E","M","M","6","55ef58d4b9401300137f42a1","06/30/2022, 14:58:44",1.09333979771137,"28","Female","right",1,1,0,0,FALSE,"E_M_Russell_Howard.png E_M_Simon_Pegg.png"
4922,"E_M_Jimmy_Carr.png","P_M_Michael_Gove.png","FALSE","pictures/stimuli/E","pictures/stimuli/P","M","M","6","55ef58d4b9401300137f42a1","06/30/2022, 14:58:44",1.09333979771137,"28","Female","right",1,1,0,0,FALSE,"E_M_Jimmy_Carr.png P_M_Michael_Gove.png"
3994,"E_M_Russell_Howard.png","P_M_Gordon_Brown.png","FALSE","pictures/stimuli/E","pictures/stimuli/P","M","M","4","55ef58d4b9401300137f42a1","06/30/2022, 14:58:44",-0.390478499182633,"28","Female","right",1,1,0,0,FALSE,"E_M_Russell_Howard.png P_M_Gordon_Brown.png"
4203,"E_M_Michael_McIntyr.png","P_F_nicola_sturge.png","FALSE","pictures/stimuli/E","pictures/stimuli/P","M","F","3","55ef58d4b9401300137f42a1","06/30/2022, 14:58:44",-1.13238764762964,"28","Female","right",1,1,0,0,FALSE,"E_M_Michael_McIntyr.png P_F_nicola_sturge.png"
3690,"E_M_Ewan_McGregor.png","P_F_Theresa_May.png","FALSE","pictures/stimuli/E","pictures/stimuli/P","M","F","5","55ef58d4b9401300137f42a1","06/30/2022, 14:58:44",0.35143064926437,"28","Female","right",1,1,0,0,FALSE,"E_M_Ewan_McGregor.png P_F_Theresa_May.png"
4038,"P_M_david_camer.png","P_M_jeremy_corbyn.png","TRUE","pictures/stimuli/P","pictures/stimuli/P","M","M","4","55ef58d4b9401300137f42a1","06/30/2022, 14:58:44",-0.390478499182633,"28","Female","right",1,1,0,0,FALSE,"P_M_david_camer.png P_M_jeremy_corbyn.png"
8558,"E_F_Sarah_Millican.png","E_M_Ewan_McGregor.png","TRUE","pictures/stimuli/E","pictures/stimuli/E","F","M","6","55ef58d4b9401300137f42a1","06/30/2022, 14:58:44",1.09333979771137,"28","Female","right",1,1,0,0,FALSE,"E_F_Sarah_Millican.png E_M_Ewan_McGregor.png"
5973,"P_F_Theresa_May.png","P_M_keir_starmer.png","TRUE","pictures/stimuli/P","pictures/stimuli/P","F","M","6","55ef58d4b9401300137f42a1","06/30/2022, 14:58:44",1.09333979771137,"28","Female","right",1,1,0,0,FALSE,"P_F_Theresa_May.png P_M_keir_starmer.png"
15321,"E_M_Ewan_McGregor.png","P_M_Michael_Gove.png","FALSE","pictures/stimuli/E","pictures/stimuli/P","M","M","4","55ef58d4b9401300137f42a1","06/30/2022, 14:58:44",-0.390478499182633,"28","Female","right",1,1,0,0,FALSE,"E_M_Ewan_McGregor.png P_M_Michael_Gove.png"
5088,"E_M_Ewan_McGregor.png","P_F_nicola_sturge.png","FALSE","pictures/stimuli/E","pictures/stimuli/P","M","F","3","55ef58d4b9401300137f42a1","06/30/2022, 14:58:44",-1.13238764762964,"28","Female","right",1,1,0,0,FALSE,"E_M_Ewan_McGregor.png P_F_nicola_sturge.png"
3588,"E_F_Dawn_Roma_French.png","P_M_Tony_Blair.png","FALSE","pictures/stimuli/E","pictures/stimuli/P","F","M","3","55ef58d4b9401300137f42a1","06/30/2022, 14:58:44",-1.13238764762964,"28","Female","right",1,1,0,0,FALSE,"E_F_Dawn_Roma_French.png P_M_Tony_Blair.png"
4137,"E_M_Peter_Kay.png","P_M_Sajid_Javid.png","FALSE","pictures/stimuli/E","pictures/stimuli/P","M","M","4","55ef58d4b9401300137f42a1","06/30/2022, 14:58:44",-0.390478499182633,"28","Female","right",1,1,0,0,FALSE,"E_M_Peter_Kay.png P_M_Sajid_Javid.png"
20166,"E_M_Michael_McIntyr.png","E_M_Russell_Howard.png","TRUE","pictures/stimuli/E","pictures/stimuli/E","M","M","3","55ef58d4b9401300137f42a1","06/30/2022, 14:58:44",-1.13238764762964,"28","Female","right",1,1,0,0,FALSE,"E_M_Michael_McIntyr.png E_M_Russell_Howard.png"
8429,"E_F_Dawn_Roma_French.png","E_F_Jennifer_Saunders.png","TRUE","pictures/stimuli/E","pictures/stimuli/E","F","F","3","55ef58d4b9401300137f42a1","06/30/2022, 14:58:44",-1.13238764762964,"28","Female","right",1,1,0,0,FALSE,"E_F_Dawn_Roma_French.png E_F_Jennifer_Saunders.png"
6333,"E_M_Michael_McIntyr.png","P_F_Theresa_May.png","FALSE","pictures/stimuli/E","pictures/stimuli/P","M","F","2","55ef58d4b9401300137f42a1","06/30/2022, 14:58:44",-1.87429679607664,"28","Female","right",1,1,0,0,FALSE,"E_M_Michael_McIntyr.png P_F_Theresa_May.png"
3231,"E_F_Julie_Walters.png","E_M_Simon_Pegg.png","TRUE","pictures/stimuli/E","pictures/stimuli/E","F","M","3","55ef58d4b9401300137f42a1","06/30/2022, 14:58:44",-1.13238764762964,"28","Female","right",1,1,0,0,FALSE,"E_F_Julie_Walters.png E_M_Simon_Pegg.png"
3548,"P_M_Michael_Gove.png","P_M_Sajid_Javid.png","TRUE","pictures/stimuli/P","pictures/stimuli/P","M","M","5","55ef58d4b9401300137f42a1","06/30/2022, 14:58:44",0.35143064926437,"28","Female","right",1,1,0,0,FALSE,"P_M_Michael_Gove.png P_M_Sajid_Javid.png"
3512,"P_M_Sajid_Javid.png","P_M_Tony_Blair.png","TRUE","pictures/stimuli/P","pictures/stimuli/P","M","M","6","55ef58d4b9401300137f42a1","06/30/2022, 14:58:44",1.09333979771137,"28","Female","right",1,1,0,0,FALSE,"P_M_Sajid_Javid.png P_M_Tony_Blair.png"
3700,"E_M_Simon_Pegg.png","P_M_Tony_Blair.png","FALSE","pictures/stimuli/E","pictures/stimuli/P","M","M","3","55ef58d4b9401300137f42a1","06/30/2022, 14:58:44",-1.13238764762964,"28","Female","right",1,1,0,0,FALSE,"E_M_Simon_Pegg.png P_M_Tony_Blair.png"
3156,"E_M_Simon_Pegg.png","P_M_keir_starmer.png","FALSE","pictures/stimuli/E","pictures/stimuli/P","M","M","4","55ef58d4b9401300137f42a1","06/30/2022, 14:58:44",-0.390478499182633,"28","Female","right",1,1,0,0,FALSE,"E_M_Simon_Pegg.png P_M_keir_starmer.png"
3418,"P_M_jeremy_corbyn.png","P_M_Sajid_Javid.png","TRUE","pictures/stimuli/P","pictures/stimuli/P","M","M","5","55ef58d4b9401300137f42a1","06/30/2022, 14:58:44",0.35143064926437,"28","Female","right",1,1,0,0,FALSE,"P_M_jeremy_corbyn.png P_M_Sajid_Javid.png"
3956,"E_M_Simon_Pegg.png","P_M_jeremy_corbyn.png","FALSE","pictures/stimuli/E","pictures/stimuli/P","M","M","5","55ef58d4b9401300137f42a1","06/30/2022, 14:58:44",0.35143064926437,"28","Female","right",1,1,0,0,FALSE,"E_M_Simon_Pegg.png P_M_jeremy_corbyn.png"
5079,"E_M_Peter_Kay.png","P_M_Gordon_Brown.png","FALSE","pictures/stimuli/E","pictures/stimuli/P","M","M","6","55ef58d4b9401300137f42a1","06/30/2022, 14:58:44",1.09333979771137,"28","Female","right",1,1,0,0,FALSE,"E_M_Peter_Kay.png P_M_Gordon_Brown.png"
7072,"P_M_david_camer.png","P_M_Tony_Blair.png","TRUE","pictures/stimuli/P","pictures/stimuli/P","M","M","3","55ef58d4b9401300137f42a1","06/30/2022, 14:58:44",-1.13238764762964,"28","Female","right",1,1,0,0,FALSE,"P_M_david_camer.png P_M_Tony_Blair.png"
3488,"E_M_Jimmy_Carr.png","P_M_jeremy_corbyn.png","FALSE","pictures/stimuli/E","pictures/stimuli/P","M","M","6","55ef58d4b9401300137f42a1","06/30/2022, 14:58:44",1.09333979771137,"28","Female","right",1,1,0,0,FALSE,"E_M_Jimmy_Carr.png P_M_jeremy_corbyn.png"
5116,"P_M_Michael_Gove.png","P_M_Tony_Blair.png","TRUE","pictures/stimuli/P","pictures/stimuli/P","M","M","4","55ef58d4b9401300137f42a1","06/30/2022, 14:58:44",-0.390478499182633,"28","Female","right",1,1,0,0,FALSE,"P_M_Michael_Gove.png P_M_Tony_Blair.png"
9624,"E_F_Jennifer_Saunders.png","P_M_Michael_Gove.png","FALSE","pictures/stimuli/E","pictures/stimuli/P","F","M","5","55ef58d4b9401300137f42a1","06/30/2022, 14:58:44",0.35143064926437,"28","Female","right",1,1,0,0,FALSE,"E_F_Jennifer_Saunders.png P_M_Michael_Gove.png"
4739,"E_M_Russell_Howard.png","P_F_nicola_sturge.png","FALSE","pictures/stimuli/E","pictures/stimuli/P","M","F","2","55ef58d4b9401300137f42a1","06/30/2022, 14:58:44",-1.87429679607664,"28","Female","right",1,1,0,0,FALSE,"E_M_Russell_Howard.png P_F_nicola_sturge.png"
5512,"E_M_Michael_McIntyr.png","P_M_jeremy_corbyn.png","FALSE","pictures/stimuli/E","pictures/stimuli/P","M","M","6","55ef58d4b9401300137f42a1","06/30/2022, 14:58:44",1.09333979771137,"28","Female","right",1,1,0,0,FALSE,"E_M_Michael_McIntyr.png P_M_jeremy_corbyn.png"
10653,"E_M_Russell_Howard.png","P_M_keir_starmer.png","FALSE","pictures/stimuli/E","pictures/stimuli/P","M","M","3","55ef58d4b9401300137f42a1","06/30/2022, 14:58:44",-1.13238764762964,"28","Female","right",1,1,0,0,FALSE,"E_M_Russell_Howard.png P_M_keir_starmer.png"
10379,"E_F_Sarah_Millican.png","P_M_Michael_Gove.png","FALSE","pictures/stimuli/E","pictures/stimuli/P","F","M","5","55ef58d4b9401300137f42a1","06/30/2022, 14:58:44",0.35143064926437,"28","Female","right",1,1,0,0,FALSE,"E_F_Sarah_Millican.png P_M_Michael_Gove.png"
5374,"P_M_jeremy_corbyn.png","P_M_Tony_Blair.png","TRUE","pictures/stimuli/P","pictures/stimuli/P","M","M","4","55ef58d4b9401300137f42a1","06/30/2022, 14:58:44",-0.390478499182633,"28","Female","right",1,1,0,0,FALSE,"P_M_jeremy_corbyn.png P_M_Tony_Blair.png"
3587,"E_M_Peter_Kay.png","P_M_nigel_farage.png","FALSE","pictures/stimuli/E","pictures/stimuli/P","M","M","5","55ef58d4b9401300137f42a1","06/30/2022, 14:58:44",0.35143064926437,"28","Female","right",1,1,0,0,FALSE,"E_M_Peter_Kay.png P_M_nigel_farage.png"
3955,"P_F_nicola_sturge.png","P_M_david_camer.png","TRUE","pictures/stimuli/P","pictures/stimuli/P","F","M","4","55ef58d4b9401300137f42a1","06/30/2022, 14:58:44",-0.390478499182633,"28","Female","right",1,1,0,0,FALSE,"P_F_nicola_sturge.png P_M_david_camer.png"
7124,"E_F_Jennifer_Saunders.png","P_F_nicola_sturge.png","FALSE","pictures/stimuli/E","pictures/stimuli/P","F","F","1","55ef58d4b9401300137f42a1","06/30/2022, 14:58:44",-2.61620594452364,"28","Female","right",1,1,0,0,FALSE,"E_F_Jennifer_Saunders.png P_F_nicola_sturge.png"
4523,"P_F_nicola_sturge.png","P_F_Theresa_May.png","TRUE","pictures/stimuli/P","pictures/stimuli/P","F","F","2","55ef58d4b9401300137f42a1","06/30/2022, 14:58:44",-1.87429679607664,"28","Female","right",1,1,0,0,FALSE,"P_F_nicola_sturge.png P_F_Theresa_May.png"
5287,"E_M_Russell_Howard.png","P_F_Theresa_May.png","FALSE","pictures/stimuli/E","pictures/stimuli/P","M","F","3","55ef58d4b9401300137f42a1","06/30/2022, 14:58:44",-1.13238764762964,"28","Female","right",1,1,0,0,FALSE,"E_M_Russell_Howard.png P_F_Theresa_May.png"
4107,"P_M_Gordon_Brown.png","P_M_jeremy_corbyn.png","TRUE","pictures/stimuli/P","pictures/stimuli/P","M","M","2","55ef58d4b9401300137f42a1","06/30/2022, 14:58:44",-1.87429679607664,"28","Female","right",1,1,0,0,FALSE,"P_M_Gordon_Brown.png P_M_jeremy_corbyn.png"
4023,"P_F_nicola_sturge.png","P_M_Gordon_Brown.png","TRUE","pictures/stimuli/P","pictures/stimuli/P","F","M","3","55ef58d4b9401300137f42a1","06/30/2022, 14:58:44",-1.13238764762964,"28","Female","right",1,1,0,0,FALSE,"P_F_nicola_sturge.png P_M_Gordon_Brown.png"
4670,"E_M_Simon_Pegg.png","P_M_Michael_Gove.png","FALSE","pictures/stimuli/E","pictures/stimuli/P","M","M","5","55ef58d4b9401300137f42a1","06/30/2022, 14:58:44",0.35143064926437,"28","Female","right",1,1,0,0,FALSE,"E_M_Simon_Pegg.png P_M_Michael_Gove.png"
6404,"E_F_Julie_Walters.png","P_M_Gordon_Brown.png","FALSE","pictures/stimuli/E","pictures/stimuli/P","F","M","6","55ef58d4b9401300137f42a1","06/30/2022, 14:58:44",1.09333979771137,"28","Female","right",1,1,0,0,FALSE,"E_F_Julie_Walters.png P_M_Gordon_Brown.png"
10774,"E_M_Peter_Kay.png","P_M_keir_starmer.png","FALSE","pictures/stimuli/E","pictures/stimuli/P","M","M","6","55ef58d4b9401300137f42a1","06/30/2022, 14:58:44",1.09333979771137,"28","Female","right",1,1,0,0,FALSE,"E_M_Peter_Kay.png P_M_keir_starmer.png"
4641,"E_F_Dawn_Roma_French.png","P_M_david_camer.png","FALSE","pictures/stimuli/E","pictures/stimuli/P","F","M","5","55ef58d4b9401300137f42a1","06/30/2022, 14:58:44",0.35143064926437,"28","Female","right",1,1,0,0,FALSE,"E_F_Dawn_Roma_French.png P_M_david_camer.png"
6975,"E_F_Julie_Walters.png","P_M_Sajid_Javid.png","FALSE","pictures/stimuli/E","pictures/stimuli/P","F","M","6","55ef58d4b9401300137f42a1","06/30/2022, 14:58:44",1.09333979771137,"28","Female","right",1,1,0,0,FALSE,"E_F_Julie_Walters.png P_M_Sajid_Javid.png"
3643,"E_F_Jennifer_Saunders.png","E_M_Russell_Howard.png","TRUE","pictures/stimuli/E","pictures/stimuli/E","F","M","3","55ef58d4b9401300137f42a1","06/30/2022, 14:58:44",-1.13238764762964,"28","Female","right",1,1,0,0,FALSE,"E_F_Jennifer_Saunders.png E_M_Russell_Howard.png"
8789,"E_M_Russell_Howard.png","P_M_Sajid_Javid.png","FALSE","pictures/stimuli/E","pictures/stimuli/P","M","M","6","55ef58d4b9401300137f42a1","06/30/2022, 14:58:44",1.09333979771137,"28","Female","right",1,1,0,0,FALSE,"E_M_Russell_Howard.png P_M_Sajid_Javid.png"
6290,"E_M_Jimmy_Carr.png","P_M_Sajid_Javid.png","FALSE","pictures/stimuli/E","pictures/stimuli/P","M","M","5","55ef58d4b9401300137f42a1","06/30/2022, 14:58:44",0.35143064926437,"28","Female","right",1,1,0,0,FALSE,"E_M_Jimmy_Carr.png P_M_Sajid_Javid.png"
5649,"E_M_Peter_Kay.png","P_F_Theresa_May.png","FALSE","pictures/stimuli/E","pictures/stimuli/P","M","F","6","55ef58d4b9401300137f42a1","06/30/2022, 14:58:44",1.09333979771137,"28","Female","right",1,1,0,0,FALSE,"E_M_Peter_Kay.png P_F_Theresa_May.png"
4304,"P_M_Gordon_Brown.png","P_M_keir_starmer.png","TRUE","pictures/stimuli/P","pictures/stimuli/P","M","M","3","55ef58d4b9401300137f42a1","06/30/2022, 14:58:44",-1.13238764762964,"28","Female","right",1,1,0,0,FALSE,"P_M_Gordon_Brown.png P_M_keir_starmer.png"
7721,"E_F_Sarah_Millican.png","P_M_david_camer.png","FALSE","pictures/stimuli/E","pictures/stimuli/P","F","M","6","55ef58d4b9401300137f42a1","06/30/2022, 14:58:44",1.09333979771137,"28","Female","right",1,1,0,0,FALSE,"E_F_Sarah_Millican.png P_M_david_camer.png"
10954,"P_M_Gordon_Brown.png","P_M_nigel_farage.png","TRUE","pictures/stimuli/P","pictures/stimuli/P","M","M","6","55ef58d4b9401300137f42a1","06/30/2022, 14:58:44",1.09333979771137,"28","Female","right",1,1,0,0,FALSE,"P_M_Gordon_Brown.png P_M_nigel_farage.png"
3971,"E_M_Jimmy_Carr.png","E_M_Michael_McIntyr.png","TRUE","pictures/stimuli/E","pictures/stimuli/E","M","M","5","55ef58d4b9401300137f42a1","06/30/2022, 14:58:44",0.35143064926437,"28","Female","right",1,1,0,0,FALSE,"E_M_Jimmy_Carr.png E_M_Michael_McIntyr.png"
9191,"E_F_Julie_Walters.png","P_M_david_camer.png","FALSE","pictures/stimuli/E","pictures/stimuli/P","F","M","6","55ef58d4b9401300137f42a1","06/30/2022, 14:58:44",1.09333979771137,"28","Female","right",1,1,0,0,FALSE,"E_F_Julie_Walters.png P_M_david_camer.png"
5357,"E_M_Simon_Pegg.png","P_M_nigel_farage.png","FALSE","pictures/stimuli/E","pictures/stimuli/P","M","M","6","55ef58d4b9401300137f42a1","06/30/2022, 14:58:44",1.09333979771137,"28","Female","right",1,1,0,0,FALSE,"E_M_Simon_Pegg.png P_M_nigel_farage.png"
6606,"E_M_Michael_McIntyr.png","P_M_Tony_Blair.png","FALSE","pictures/stimuli/E","pictures/stimuli/P","M","M","5","55ef58d4b9401300137f42a1","06/30/2022, 14:58:44",0.35143064926437,"28","Female","right",1,1,0,0,FALSE,"E_M_Michael_McIntyr.png P_M_Tony_Blair.png"
5396,"E_F_Julie_Walters.png","E_M_Michael_McIntyr.png","TRUE","pictures/stimuli/E","pictures/stimuli/E","F","M","4","55ef58d4b9401300137f42a1","06/30/2022, 14:58:44",-0.390478499182633,"28","Female","right",1,1,0,0,FALSE,"E_F_Julie_Walters.png E_M_Michael_McIntyr.png"
6355,"E_F_Jennifer_Saunders.png","P_M_david_camer.png","FALSE","pictures/stimuli/E","pictures/stimuli/P","F","M","5","55ef58d4b9401300137f42a1","06/30/2022, 14:58:44",0.35143064926437,"28","Female","right",1,1,0,0,FALSE,"E_F_Jennifer_Saunders.png P_M_david_camer.png"
3070,"E_F_Dawn_Roma_French.png","P_M_nigel_farage.png","FALSE","pictures/stimuli/E","pictures/stimuli/P","F","M","3","55ef58d4b9401300137f42a1","06/30/2022, 14:58:44",-1.13238764762964,"28","Female","right",1,1,0,0,FALSE,"E_F_Dawn_Roma_French.png P_M_nigel_farage.png"
3337,"E_F_Julie_Walters.png","E_M_Ewan_McGregor.png","TRUE","pictures/stimuli/E","pictures/stimuli/E","F","M","2","55ef58d4b9401300137f42a1","06/30/2022, 14:58:44",-1.87429679607664,"28","Female","right",1,1,0,0,FALSE,"E_F_Julie_Walters.png E_M_Ewan_McGregor.png"
3325,"E_M_Ewan_McGregor.png","P_M_Sajid_Javid.png","FALSE","pictures/stimuli/E","pictures/stimuli/P","M","M","5","55ef58d4b9401300137f42a1","06/30/2022, 14:58:44",0.35143064926437,"28","Female","right",1,1,0,0,FALSE,"E_M_Ewan_McGregor.png P_M_Sajid_Javid.png"
6292,"E_M_Peter_Kay.png","P_F_nicola_sturge.png","FALSE","pictures/stimuli/E","pictures/stimuli/P","M","F","2","55ef58d4b9401300137f42a1","06/30/2022, 14:58:44",-1.87429679607664,"28","Female","right",1,1,0,0,FALSE,"E_M_Peter_Kay.png P_F_nicola_sturge.png"
2208,"P_M_david_camer.png","P_M_Gordon_Brown.png","TRUE","pictures/stimuli/P","pictures/stimuli/P","M","M","2","55ef58d4b9401300137f42a1","06/30/2022, 14:58:44",-1.87429679607664,"28","Female","right",1,1,0,0,FALSE,"P_M_david_camer.png P_M_Gordon_Brown.png"
2660,"E_M_Ewan_McGregor.png","P_M_jeremy_corbyn.png","FALSE","pictures/stimuli/E","pictures/stimuli/P","M","M","5","55ef58d4b9401300137f42a1","06/30/2022, 14:58:44",0.35143064926437,"28","Female","right",1,1,0,0,FALSE,"E_M_Ewan_McGregor.png P_M_jeremy_corbyn.png"
3289,"E_M_Michael_McIntyr.png","P_M_nigel_farage.png","FALSE","pictures/stimuli/E","pictures/stimuli/P","M","M","3","55ef58d4b9401300137f42a1","06/30/2022, 14:58:44",-1.13238764762964,"28","Female","right",1,1,0,0,FALSE,"E_M_Michael_McIntyr.png P_M_nigel_farage.png"
2893,"P_M_Gordon_Brown.png","P_M_Michael_Gove.png","TRUE","pictures/stimuli/P","pictures/stimuli/P","M","M","4","55ef58d4b9401300137f42a1","06/30/2022, 14:58:44",-0.390478499182633,"28","Female","right",1,1,0,0,FALSE,"P_M_Gordon_Brown.png P_M_Michael_Gove.png"
2709,"E_F_Julie_Walters.png","P_F_nicola_sturge.png","FALSE","pictures/stimuli/E","pictures/stimuli/P","F","F","1","55ef58d4b9401300137f42a1","06/30/2022, 14:58:44",-2.61620594452364,"28","Female","right",1,1,0,0,FALSE,"E_F_Julie_Walters.png P_F_nicola_sturge.png"
2778,"E_F_Sarah_Millican.png","P_M_Tony_Blair.png","FALSE","pictures/stimuli/E","pictures/stimuli/P","F","M","5","55ef58d4b9401300137f42a1","06/30/2022, 14:58:44",0.35143064926437,"28","Female","right",1,1,0,0,FALSE,"E_F_Sarah_Millican.png P_M_Tony_Blair.png"
3748,"P_M_keir_starmer.png","P_M_nigel_farage.png","TRUE","pictures/stimuli/P","pictures/stimuli/P","M","M","5","55ef58d4b9401300137f42a1","06/30/2022, 14:58:44",0.35143064926437,"28","Female","right",1,1,0,0,FALSE,"P_M_keir_starmer.png P_M_nigel_farage.png"
2591,"E_M_Peter_Kay.png","E_M_Simon_Pegg.png","TRUE","pictures/stimuli/E","pictures/stimuli/E","M","M","6","55ef58d4b9401300137f42a1","06/30/2022, 14:58:44",1.09333979771137,"28","Female","right",1,1,0,0,FALSE,"E_M_Peter_Kay.png E_M_Simon_Pegg.png"
2570,"E_F_Jennifer_Saunders.png","P_M_Gordon_Brown.png","FALSE","pictures/stimuli/E","pictures/stimuli/P","F","M","3","55ef58d4b9401300137f42a1","06/30/2022, 14:58:44",-1.13238764762964,"28","Female","right",1,1,0,0,FALSE,"E_F_Jennifer_Saunders.png P_M_Gordon_Brown.png"
2463,"E_M_Ewan_McGregor.png","P_M_nigel_farage.png","FALSE","pictures/stimuli/E","pictures/stimuli/P","M","M","5","55ef58d4b9401300137f42a1","06/30/2022, 14:58:44",0.35143064926437,"28","Female","right",1,1,0,0,FALSE,"E_M_Ewan_McGregor.png P_M_nigel_farage.png"
2572,"E_F_Jennifer_Saunders.png","P_M_Tony_Blair.png","FALSE","pictures/stimuli/E","pictures/stimuli/P","F","M","4","55ef58d4b9401300137f42a1","06/30/2022, 14:58:44",-0.390478499182633,"28","Female","right",1,1,0,0,FALSE,"E_F_Jennifer_Saunders.png P_M_Tony_Blair.png"
4117,"P_M_Gordon_Brown.png","P_M_Sajid_Javid.png","TRUE","pictures/stimuli/P","pictures/stimuli/P","M","M","6","55ef58d4b9401300137f42a1","06/30/2022, 14:58:44",1.09333979771137,"28","Female","right",1,1,0,0,FALSE,"P_M_Gordon_Brown.png P_M_Sajid_Javid.png"
2889,"E_F_Sarah_Millican.png","E_M_Simon_Pegg.png","TRUE","pictures/stimuli/E","pictures/stimuli/E","F","M","6","55ef58d4b9401300137f42a1","06/30/2022, 14:58:44",1.09333979771137,"28","Female","right",1,1,0,0,FALSE,"E_F_Sarah_Millican.png E_M_Simon_Pegg.png"
3706,"E_F_Julie_Walters.png","P_M_keir_starmer.png","FALSE","pictures/stimuli/E","pictures/stimuli/P","F","M","5","55ef58d4b9401300137f42a1","06/30/2022, 14:58:44",0.35143064926437,"28","Female","right",1,1,0,0,FALSE,"E_F_Julie_Walters.png P_M_keir_starmer.png"
2480,"E_M_Russell_Howard.png","P_M_jeremy_corbyn.png","FALSE","pictures/stimuli/E","pictures/stimuli/P","M","M","5","55ef58d4b9401300137f42a1","06/30/2022, 14:58:44",0.35143064926437,"28","Female","right",1,1,0,0,FALSE,"E_M_Russell_Howard.png P_M_jeremy_corbyn.png"
3240,"E_M_Michael_McIntyr.png","P_M_Sajid_Javid.png","FALSE","pictures/stimuli/E","pictures/stimuli/P","M","M","5","55ef58d4b9401300137f42a1","06/30/2022, 14:58:44",0.35143064926437,"28","Female","right",1,1,0,0,FALSE,"E_M_Michael_McIntyr.png P_M_Sajid_Javid.png"
3029,"E_F_Jennifer_Saunders.png","E_M_Ewan_McGregor.png","TRUE","pictures/stimuli/E","pictures/stimuli/E","F","M","3","55ef58d4b9401300137f42a1","06/30/2022, 14:58:44",-1.13238764762964,"28","Female","right",1,1,0,0,FALSE,"E_F_Jennifer_Saunders.png E_M_Ewan_McGregor.png"
2538,"P_F_nicola_sturge.png","P_M_jeremy_corbyn.png","TRUE","pictures/stimuli/P","pictures/stimuli/P","F","M","4","55ef58d4b9401300137f42a1","06/30/2022, 14:58:44",-0.390478499182633,"28","Female","right",1,1,0,0,FALSE,"P_F_nicola_sturge.png P_M_jeremy_corbyn.png"
2663,"E_M_Russell_Howard.png","P_M_david_camer.png","FALSE","pictures/stimuli/E","pictures/stimuli/P","M","M","5","55ef58d4b9401300137f42a1","06/30/2022, 14:58:44",0.35143064926437,"28","Female","right",1,1,0,0,FALSE,"E_M_Russell_Howard.png P_M_david_camer.png"
3025,"E_F_Sarah_Millican.png","E_M_Jimmy_Carr.png","TRUE","pictures/stimuli/E","pictures/stimuli/E","F","M","6","55ef58d4b9401300137f42a1","06/30/2022, 14:58:44",1.09333979771137,"28","Female","right",1,1,0,0,FALSE,"E_F_Sarah_Millican.png E_M_Jimmy_Carr.png"
1867,"E_M_Ewan_McGregor.png","E_M_Peter_Kay.png","TRUE","pictures/stimuli/E","pictures/stimuli/E","M","M","6","55ef58d4b9401300137f42a1","06/30/2022, 14:58:44",1.09333979771137,"28","Female","right",1,1,0,0,FALSE,"E_M_Ewan_McGregor.png E_M_Peter_Kay.png"
4163,"E_F_Dawn_Roma_French.png","E_M_Michael_McIntyr.png","TRUE","pictures/stimuli/E","pictures/stimuli/E","F","M","2","55ef58d4b9401300137f42a1","06/30/2022, 14:58:44",-1.87429679607664,"28","Female","right",1,1,0,0,FALSE,"E_F_Dawn_Roma_French.png E_M_Michael_McIntyr.png"
2411,"E_F_Sarah_Millican.png","P_M_keir_starmer.png","FALSE","pictures/stimuli/E","pictures/stimuli/P","F","M","4","55ef58d4b9401300137f42a1","06/30/2022, 14:58:44",-0.390478499182633,"28","Female","right",1,1,0,0,FALSE,"E_F_Sarah_Millican.png P_M_keir_starmer.png"
2410,"E_F_Sarah_Millican.png","P_M_nigel_farage.png","FALSE","pictures/stimuli/E","pictures/stimuli/P","F","M","6","55ef58d4b9401300137f42a1","06/30/2022, 14:58:44",1.09333979771137,"28","Female","right",1,1,0,0,FALSE,"E_F_Sarah_Millican.png P_M_nigel_farage.png"
3218,"E_F_Julie_Walters.png","P_M_Michael_Gove.png","FALSE","pictures/stimuli/E","pictures/stimuli/P","F","M","3","55ef58d4b9401300137f42a1","06/30/2022, 14:58:44",-1.13238764762964,"28","Female","right",1,1,0,0,FALSE,"E_F_Julie_Walters.png P_M_Michael_Gove.png"
2829,"E_F_Jennifer_Saunders.png","E_M_Jimmy_Carr.png","TRUE","pictures/stimuli/E","pictures/stimuli/E","F","M","5","55ef58d4b9401300137f42a1","06/30/2022, 14:58:44",0.35143064926437,"28","Female","right",1,1,0,0,FALSE,"E_F_Jennifer_Saunders.png E_M_Jimmy_Carr.png"
2922,"E_M_Jimmy_Carr.png","E_M_Russell_Howard.png","TRUE","pictures/stimuli/E","pictures/stimuli/E","M","M","6","55ef58d4b9401300137f42a1","06/30/2022, 14:58:44",1.09333979771137,"28","Female","right",1,1,0,0,FALSE,"E_M_Jimmy_Carr.png E_M_Russell_Howard.png"
2419,"E_F_Jennifer_Saunders.png","E_M_Peter_Kay.png","TRUE","pictures/stimuli/E","pictures/stimuli/E","F","M","6","55ef58d4b9401300137f42a1","06/30/2022, 14:58:44",1.09333979771137,"28","Female","right",1,1,0,0,FALSE,"E_F_Jennifer_Saunders.png E_M_Peter_Kay.png"
3146,"E_M_Michael_McIntyr.png","P_M_david_camer.png","FALSE","pictures/stimuli/E","pictures/stimuli/P","M","M","3","55ef58d4b9401300137f42a1","06/30/2022, 14:58:44",-1.13238764762964,"28","Female","right",1,1,0,0,FALSE,"E_M_Michael_McIntyr.png P_M_david_camer.png"
2548,"P_M_jeremy_corbyn.png","P_M_keir_starmer.png","TRUE","pictures/stimuli/P","pictures/stimuli/P","M","M","5","55ef58d4b9401300137f42a1","06/30/2022, 14:58:44",0.35143064926437,"28","Female","right",1,1,0,0,FALSE,"P_M_jeremy_corbyn.png P_M_keir_starmer.png"
3292,"P_M_keir_starmer.png","P_M_Michael_Gove.png","TRUE","pictures/stimuli/P","pictures/stimuli/P","M","M","4","55ef58d4b9401300137f42a1","06/30/2022, 14:58:44",-0.390478499182633,"28","Female","right",1,1,0,0,FALSE,"P_M_keir_starmer.png P_M_Michael_Gove.png"
3465,"P_M_keir_starmer.png","P_M_Tony_Blair.png","TRUE","pictures/stimuli/P","pictures/stimuli/P","M","M","4","55ef58d4b9401300137f42a1","06/30/2022, 14:58:44",-0.390478499182633,"28","Female","right",1,1,0,0,FALSE,"P_M_keir_starmer.png P_M_Tony_Blair.png"
2781,"E_M_Jimmy_Carr.png","E_M_Peter_Kay.png","TRUE","pictures/stimuli/E","pictures/stimuli/E","M","M","6","55ef58d4b9401300137f42a1","06/30/2022, 14:58:44",1.09333979771137,"28","Female","right",1,1,0,0,FALSE,"E_M_Jimmy_Carr.png E_M_Peter_Kay.png"
2957,"E_F_Dawn_Roma_French.png","P_F_nicola_sturge.png","FALSE","pictures/stimuli/E","pictures/stimuli/P","F","F","3","55ef58d4b9401300137f42a1","06/30/2022, 14:58:44",-1.13238764762964,"28","Female","right",1,1,0,0,FALSE,"E_F_Dawn_Roma_French.png P_F_nicola_sturge.png"
2618,"E_F_Dawn_Roma_French.png","P_M_Michael_Gove.png","FALSE","pictures/stimuli/E","pictures/stimuli/P","F","M","6","55ef58d4b9401300137f42a1","06/30/2022, 14:58:44",1.09333979771137,"28","Female","right",1,1,0,0,FALSE,"E_F_Dawn_Roma_French.png P_M_Michael_Gove.png"
2548,"E_F_Sarah_Millican.png","P_M_Sajid_Javid.png","FALSE","pictures/stimuli/E","pictures/stimuli/P","F","M","6","55ef58d4b9401300137f42a1","06/30/2022, 14:58:44",1.09333979771137,"28","Female","right",1,1,0,0,FALSE,"E_F_Sarah_Millican.png P_M_Sajid_Javid.png"
3564,"E_F_Dawn_Roma_French.png","E_M_Jimmy_Carr.png","TRUE","pictures/stimuli/E","pictures/stimuli/E","F","M","4","55ef58d4b9401300137f42a1","06/30/2022, 14:58:44",-0.390478499182633,"28","Female","right",1,1,0,0,FALSE,"E_F_Dawn_Roma_French.png E_M_Jimmy_Carr.png"
2706,"E_F_Dawn_Roma_French.png","E_M_Russell_Howard.png","TRUE","pictures/stimuli/E","pictures/stimuli/E","F","M","2","55ef58d4b9401300137f42a1","06/30/2022, 14:58:44",-1.87429679607664,"28","Female","right",1,1,0,0,FALSE,"E_F_Dawn_Roma_French.png E_M_Russell_Howard.png"
2499,"P_F_nicola_sturge.png","P_M_nigel_farage.png","TRUE","pictures/stimuli/P","pictures/stimuli/P","F","M","4","55ef58d4b9401300137f42a1","06/30/2022, 14:58:44",-0.390478499182633,"28","Female","right",1,1,0,0,FALSE,"P_F_nicola_sturge.png P_M_nigel_farage.png"
3622,"E_F_Dawn_Roma_French.png","P_F_Theresa_May.png","FALSE","pictures/stimuli/E","pictures/stimuli/P","F","F","3","55ef58d4b9401300137f42a1","06/30/2022, 14:58:44",-1.13238764762964,"28","Female","right",1,1,0,0,FALSE,"E_F_Dawn_Roma_French.png P_F_Theresa_May.png"
2754,"E_M_Jimmy_Carr.png","P_M_Gordon_Brown.png","FALSE","pictures/stimuli/E","pictures/stimuli/P","M","M","3","55ef58d4b9401300137f42a1","06/30/2022, 14:58:44",-1.13238764762964,"28","Female","right",1,1,0,0,FALSE,"E_M_Jimmy_Carr.png P_M_Gordon_Brown.png"
6516,"E_M_Peter_Kay.png","P_M_david_camer.png","FALSE","pictures/stimuli/E","pictures/stimuli/P","M","M","5","55ef58d4b9401300137f42a1","06/30/2022, 14:58:44",0.35143064926437,"28","Female","right",1,1,0,0,FALSE,"E_M_Peter_Kay.png P_M_david_camer.png"
2616,"P_F_Theresa_May.png","P_M_nigel_farage.png","TRUE","pictures/stimuli/P","pictures/stimuli/P","F","M","5","55ef58d4b9401300137f42a1","06/30/2022, 14:58:44",0.35143064926437,"28","Female","right",1,1,0,0,FALSE,"P_F_Theresa_May.png P_M_nigel_farage.png"
3856,"E_M_Jimmy_Carr.png","P_F_nicola_sturge.png","FALSE","pictures/stimuli/E","pictures/stimuli/P","M","F","3","55ef58d4b9401300137f42a1","06/30/2022, 14:58:44",-1.13238764762964,"28","Female","right",1,1,0,0,FALSE,"E_M_Jimmy_Carr.png P_F_nicola_sturge.png"
2373,"E_M_Peter_Kay.png","E_M_Russell_Howard.png","TRUE","pictures/stimuli/E","pictures/stimuli/E","M","M","6","55ef58d4b9401300137f42a1","06/30/2022, 14:58:44",1.09333979771137,"28","Female","right",1,1,0,0,FALSE,"E_M_Peter_Kay.png E_M_Russell_Howard.png"
2326,"E_M_Michael_McIntyr.png","P_M_keir_starmer.png","FALSE","pictures/stimuli/E","pictures/stimuli/P","M","M","5","55ef58d4b9401300137f42a1","06/30/2022, 14:58:44",0.35143064926437,"28","Female","right",1,1,0,0,FALSE,"E_M_Michael_McIntyr.png P_M_keir_starmer.png"
3130,"P_M_david_camer.png","P_M_Michael_Gove.png","TRUE","pictures/stimuli/P","pictures/stimuli/P","M","M","3","55ef58d4b9401300137f42a1","06/30/2022, 14:58:44",-1.13238764762964,"28","Female","right",1,1,0,0,FALSE,"P_M_david_camer.png P_M_Michael_Gove.png"
4055,"E_M_Simon_Pegg.png","P_F_Theresa_May.png","FALSE","pictures/stimuli/E","pictures/stimuli/P","M","F","3","55ef58d4b9401300137f42a1","06/30/2022, 14:58:44",-1.13238764762964,"28","Female","right",1,1,0,0,FALSE,"E_M_Simon_Pegg.png P_F_Theresa_May.png"
2404,"E_F_Julie_Walters.png","E_M_Peter_Kay.png","TRUE","pictures/stimuli/E","pictures/stimuli/E","F","M","5","55ef58d4b9401300137f42a1","06/30/2022, 14:58:44",0.35143064926437,"28","Female","right",1,1,0,0,FALSE,"E_F_Julie_Walters.png E_M_Peter_Kay.png"
2982,"E_M_Simon_Pegg.png","P_F_nicola_sturge.png","FALSE","pictures/stimuli/E","pictures/stimuli/P","M","F","3","55ef58d4b9401300137f42a1","06/30/2022, 14:58:44",-1.13238764762964,"28","Female","right",1,1,0,0,FALSE,"E_M_Simon_Pegg.png P_F_nicola_sturge.png"
2776,"E_M_Peter_Kay.png","P_M_Michael_Gove.png","FALSE","pictures/stimuli/E","pictures/stimuli/P","M","M","6","55ef58d4b9401300137f42a1","06/30/2022, 14:58:44",1.09333979771137,"28","Female","right",1,1,0,0,FALSE,"E_M_Peter_Kay.png P_M_Michael_Gove.png"
2396,"E_F_Julie_Walters.png","E_F_Sarah_Millican.png","TRUE","pictures/stimuli/E","pictures/stimuli/E","F","F","6","55ef58d4b9401300137f42a1","06/30/2022, 14:58:44",1.09333979771137,"28","Female","right",1,1,0,0,FALSE,"E_F_Julie_Walters.png E_F_Sarah_Millican.png"
2579,"E_M_Ewan_McGregor.png","P_M_keir_starmer.png","FALSE","pictures/stimuli/E","pictures/stimuli/P","M","M","5","55ef58d4b9401300137f42a1","06/30/2022, 14:58:44",0.35143064926437,"28","Female","right",1,1,0,0,FALSE,"E_M_Ewan_McGregor.png P_M_keir_starmer.png"
2557,"E_M_Ewan_McGregor.png","E_M_Jimmy_Carr.png","TRUE","pictures/stimuli/E","pictures/stimuli/E","M","M","3","55ef58d4b9401300137f42a1","06/30/2022, 14:58:44",-1.13238764762964,"28","Female","right",1,1,0,0,FALSE,"E_M_Ewan_McGregor.png E_M_Jimmy_Carr.png"
3183,"E_F_Dawn_Roma_French.png","E_F_Sarah_Millican.png","TRUE","pictures/stimuli/E","pictures/stimuli/E","F","F","6","55ef58d4b9401300137f42a1","06/30/2022, 14:58:44",1.09333979771137,"28","Female","right",1,1,0,0,FALSE,"E_F_Dawn_Roma_French.png E_F_Sarah_Millican.png"
3645,"P_F_Theresa_May.png","P_M_jeremy_corbyn.png","TRUE","pictures/stimuli/P","pictures/stimuli/P","F","M","6","55ef58d4b9401300137f42a1","06/30/2022, 14:58:44",1.09333979771137,"28","Female","right",1,1,0,0,FALSE,"P_F_Theresa_May.png P_M_jeremy_corbyn.png"
2801,"E_M_Russell_Howard.png","P_M_Tony_Blair.png","FALSE","pictures/stimuli/E","pictures/stimuli/P","M","M","3","55ef58d4b9401300137f42a1","06/30/2022, 14:58:44",-1.13238764762964,"28","Female","right",1,1,0,0,FALSE,"E_M_Russell_Howard.png P_M_Tony_Blair.png"
2956,"E_M_Jimmy_Carr.png","P_M_Tony_Blair.png","FALSE","pictures/stimuli/E","pictures/stimuli/P","M","M","3","55ef58d4b9401300137f42a1","06/30/2022, 14:58:44",-1.13238764762964,"28","Female","right",1,1,0,0,FALSE,"E_M_Jimmy_Carr.png P_M_Tony_Blair.png"
2930,"P_M_Michael_Gove.png","P_M_nigel_farage.png","TRUE","pictures/stimuli/P","pictures/stimuli/P","M","M","3","55ef58d4b9401300137f42a1","06/30/2022, 14:58:44",-1.13238764762964,"28","Female","right",1,1,0,0,FALSE,"P_M_Michael_Gove.png P_M_nigel_farage.png"
3818,"E_M_Michael_McIntyr.png","E_M_Simon_Pegg.png","TRUE","pictures/stimuli/E","pictures/stimuli/E","M","M","5","55ef58d4b9401300137f42a1","06/30/2022, 14:58:44",0.35143064926437,"28","Female","right",1,1,0,0,FALSE,"E_M_Michael_McIntyr.png E_M_Simon_Pegg.png"
2459,"E_M_Ewan_McGregor.png","P_M_Gordon_Brown.png","FALSE","pictures/stimuli/E","pictures/stimuli/P","M","M","4","55ef58d4b9401300137f42a1","06/30/2022, 14:58:44",-0.390478499182633,"28","Female","right",1,1,0,0,FALSE,"E_M_Ewan_McGregor.png P_M_Gordon_Brown.png"
2971,"P_M_nigel_farage.png","P_M_Sajid_Javid.png","TRUE","pictures/stimuli/P","pictures/stimuli/P","M","M","6","55ef58d4b9401300137f42a1","06/30/2022, 14:58:44",1.09333979771137,"28","Female","right",1,1,0,0,FALSE,"P_M_nigel_farage.png P_M_Sajid_Javid.png"
2603,"E_F_Jennifer_Saunders.png","E_F_Julie_Walters.png","TRUE","pictures/stimuli/E","pictures/stimuli/E","F","F","1","55ef58d4b9401300137f42a1","06/30/2022, 14:58:44",-2.61620594452364,"28","Female","right",1,1,0,0,FALSE,"E_F_Jennifer_Saunders.png E_F_Julie_Walters.png"
3753,"E_M_Jimmy_Carr.png","E_M_Simon_Pegg.png","TRUE","pictures/stimuli/E","pictures/stimuli/E","M","M","3","55ef58d4b9401300137f42a1","06/30/2022, 14:58:44",-1.13238764762964,"28","Female","right",1,1,0,0,FALSE,"E_M_Jimmy_Carr.png E_M_Simon_Pegg.png"
2792,"P_M_jeremy_corbyn.png","P_M_nigel_farage.png","TRUE","pictures/stimuli/P","pictures/stimuli/P","M","M","5","55ef58d4b9401300137f42a1","06/30/2022, 14:58:44",0.35143064926437,"28","Female","right",1,1,0,0,FALSE,"P_M_jeremy_corbyn.png P_M_nigel_farage.png"
2450,"P_F_nicola_sturge.png","P_M_Sajid_Javid.png","TRUE","pictures/stimuli/P","pictures/stimuli/P","F","M","6","55ef58d4b9401300137f42a1","06/30/2022, 14:58:44",1.09333979771137,"28","Female","right",1,1,0,0,FALSE,"P_F_nicola_sturge.png P_M_Sajid_Javid.png"
3542,"E_F_Julie_Walters.png","P_M_keir_starmer.png","FALSE","pictures/stimuli/E","pictures/stimuli/P","F","M","3","59ad23d45ea0f300012816ad","06/30/2022, 15:11:02",-1.49393167205412,"27","Female","right",0,0,0,0,TRUE,"E_F_Julie_Walters.png P_M_keir_starmer.png"
3987,"P_F_nicola_sturge.png","P_M_Michael_Gove.png","TRUE","pictures/stimuli/P","pictures/stimuli/P","F","M","6","59ad23d45ea0f300012816ad","06/30/2022, 15:11:02",1.20937325832952,"27","Female","right",1,1,0,0,FALSE,"P_F_nicola_sturge.png P_M_Michael_Gove.png"
