"RT","img_1","img_2","isSameProffesion","img1proffesion","img2proffesion","img1Gender","img2Gender","keyPressed","participant","time","normlised_keyPress","age","gender","handedness","isFamiliar_img1","isFamiliar_img2","vividness_img1","vividness_img2","reject_trial","pair"
7624,"E_F_Julie_Walters.png","E_M_Ewan_McGregor.png","TRUE","pictures/stimuli/E","pictures/stimuli/E","F","M","4","5c0d109e73986d0001785b39","07/12/2022, 08:53:14",-0.86382892931549,"33","Female","right",0,0,0,0,FALSE,"E_F_Julie_Walters.png E_M_Ewan_McGregor.png"
4958,"P_M_jeremy_corbyn.png","P_M_Sajid_Javid.png","TRUE","pictures/stimuli/P","pictures/stimuli/P","M","M","6","5c0d109e73986d0001785b39","07/12/2022, 08:53:14",0.882208268237096,"33","Female","right",0,0,0,0,FALSE,"P_M_jeremy_corbyn.png P_M_Sajid_Javid.png"
4134,"E_F_Julie_Walters.png","E_M_Russell_Howard.png","TRUE","pictures/stimuli/E","pictures/stimuli/E","F","M","4","5c0d109e73986d0001785b39","07/12/2022, 08:53:14",-0.86382892931549,"33","Female","right",0,0,0,0,FALSE,"E_F_Julie_Walters.png E_M_Russell_Howard.png"
3807,"E_M_Michael_McIntyr.png","E_M_Peter_Kay.png","TRUE","pictures/stimuli/E","pictures/stimuli/E","M","M","4","5c0d109e73986d0001785b39","07/12/2022, 08:53:14",-0.86382892931549,"33","Female","right",0,0,0,0,FALSE,"E_M_Michael_McIntyr.png E_M_Peter_Kay.png"
2919,"E_F_Dawn_Roma_French.png","E_M_Ewan_McGregor.png","TRUE","pictures/stimuli/E","pictures/stimuli/E","F","M","5","5c0d109e73986d0001785b39","07/12/2022, 08:53:14",0.00918966946080272,"33","Female","right",0,0,0,0,FALSE,"E_F_Dawn_Roma_French.png E_M_Ewan_McGregor.png"
2384,"P_F_Theresa_May.png","P_M_Michael_Gove.png","TRUE","pictures/stimuli/P","pictures/stimuli/P","F","M","6","5c0d109e73986d0001785b39","07/12/2022, 08:53:14",0.882208268237096,"33","Female","right",1,0,0,0,TRUE,"P_F_Theresa_May.png P_M_Michael_Gove.png"
2594,"E_M_Michael_McIntyr.png","P_F_nicola_sturge.png","FALSE","pictures/stimuli/E","pictures/stimuli/P","M","F","4","5c0d109e73986d0001785b39","07/12/2022, 08:53:14",-0.86382892931549,"33","Female","right",0,0,0,0,FALSE,"E_M_Michael_McIntyr.png P_F_nicola_sturge.png"
4204,"E_M_Peter_Kay.png","P_M_Gordon_Brown.png","FALSE","pictures/stimuli/E","pictures/stimuli/P","M","M","3","5c0d109e73986d0001785b39","07/12/2022, 08:53:14",-1.73684752809178,"33","Female","right",0,1,0,0,TRUE,"E_M_Peter_Kay.png P_M_Gordon_Brown.png"
2483,"E_F_Julie_Walters.png","P_M_Michael_Gove.png","FALSE","pictures/stimuli/E","pictures/stimuli/P","F","M","5","5c0d109e73986d0001785b39","07/12/2022, 08:53:14",0.00918966946080272,"33","Female","right",0,0,0,0,FALSE,"E_F_Julie_Walters.png P_M_Michael_Gove.png"
2673,"E_M_Russell_Howard.png","P_M_Sajid_Javid.png","FALSE","pictures/stimuli/E","pictures/stimuli/P","M","M","6","5c0d109e73986d0001785b39","07/12/2022, 08:53:14",0.882208268237096,"33","Female","right",0,0,0,0,FALSE,"E_M_Russell_Howard.png P_M_Sajid_Javid.png"
1961,"P_M_Gordon_Brown.png","P_M_Michael_Gove.png","TRUE","pictures/stimuli/P","pictures/stimuli/P","M","M","4","5c0d109e73986d0001785b39","07/12/2022, 08:53:14",-0.86382892931549,"33","Female","right",1,0,0,0,TRUE,"P_M_Gordon_Brown.png P_M_Michael_Gove.png"
3920,"E_F_Dawn_Roma_French.png","E_M_Russell_Howard.png","TRUE","pictures/stimuli/E","pictures/stimuli/E","F","M","4","5c0d109e73986d0001785b39","07/12/2022, 08:53:14",-0.86382892931549,"33","Female","right",0,0,0,0,FALSE,"E_F_Dawn_Roma_French.png E_M_Russell_Howard.png"
2417,"E_M_Michael_McIntyr.png","P_M_keir_starmer.png","FALSE","pictures/stimuli/E","pictures/stimuli/P","M","M","3","5c0d109e73986d0001785b39","07/12/2022, 08:53:14",-1.73684752809178,"33","Female","right",0,0,0,0,FALSE,"E_M_Michael_McIntyr.png P_M_keir_starmer.png"
4698,"E_M_Peter_Kay.png","P_F_Theresa_May.png","FALSE","pictures/stimuli/E","pictures/stimuli/P","M","F","6","5c0d109e73986d0001785b39","07/12/2022, 08:53:14",0.882208268237096,"33","Female","right",0,1,0,0,TRUE,"E_M_Peter_Kay.png P_F_Theresa_May.png"
3598,"E_F_Julie_Walters.png","E_M_Peter_Kay.png","TRUE","pictures/stimuli/E","pictures/stimuli/E","F","M","6","5c0d109e73986d0001785b39","07/12/2022, 08:53:14",0.882208268237096,"33","Female","right",0,0,0,0,FALSE,"E_F_Julie_Walters.png E_M_Peter_Kay.png"
3671,"P_M_Gordon_Brown.png","P_M_keir_starmer.png","TRUE","pictures/stimuli/P","pictures/stimuli/P","M","M","5","5c0d109e73986d0001785b39","07/12/2022, 08:53:14",0.00918966946080272,"33","Female","right",1,0,0,0,TRUE,"P_M_Gordon_Brown.png P_M_keir_starmer.png"
3340,"E_F_Sarah_Millican.png","P_M_nigel_farage.png","FALSE","pictures/stimuli/E","pictures/stimuli/P","F","M","5","5c0d109e73986d0001785b39","07/12/2022, 08:53:14",0.00918966946080272,"33","Female","right",0,0,0,0,FALSE,"E_F_Sarah_Millican.png P_M_nigel_farage.png"
2676,"P_M_jeremy_corbyn.png","P_M_Tony_Blair.png","TRUE","pictures/stimuli/P","pictures/stimuli/P","M","M","4","5c0d109e73986d0001785b39","07/12/2022, 08:53:14",-0.86382892931549,"33","Female","right",0,1,0,0,TRUE,"P_M_jeremy_corbyn.png P_M_Tony_Blair.png"
2608,"P_M_david_camer.png","P_M_nigel_farage.png","TRUE","pictures/stimuli/P","pictures/stimuli/P","M","M","4","5c0d109e73986d0001785b39","07/12/2022, 08:53:14",-0.86382892931549,"33","Female","right",0,0,0,0,FALSE,"P_M_david_camer.png P_M_nigel_farage.png"
2487,"E_M_Michael_McIntyr.png","P_M_Gordon_Brown.png","FALSE","pictures/stimuli/E","pictures/stimuli/P","M","M","3","5c0d109e73986d0001785b39","07/12/2022, 08:53:14",-1.73684752809178,"33","Female","right",0,1,0,0,TRUE,"E_M_Michael_McIntyr.png P_M_Gordon_Brown.png"
2303,"E_M_Jimmy_Carr.png","P_M_jeremy_corbyn.png","FALSE","pictures/stimuli/E","pictures/stimuli/P","M","M","6","5c0d109e73986d0001785b39","07/12/2022, 08:53:14",0.882208268237096,"33","Female","right",0,0,0,0,FALSE,"E_M_Jimmy_Carr.png P_M_jeremy_corbyn.png"
2226,"E_M_Simon_Pegg.png","P_M_nigel_farage.png","FALSE","pictures/stimuli/E","pictures/stimuli/P","M","M","4","5c0d109e73986d0001785b39","07/12/2022, 08:53:14",-0.86382892931549,"33","Female","right",0,0,0,0,FALSE,"E_M_Simon_Pegg.png P_M_nigel_farage.png"
2037,"P_M_jeremy_corbyn.png","P_M_nigel_farage.png","TRUE","pictures/stimuli/P","pictures/stimuli/P","M","M","5","5c0d109e73986d0001785b39","07/12/2022, 08:53:14",0.00918966946080272,"33","Female","right",0,0,0,0,FALSE,"P_M_jeremy_corbyn.png P_M_nigel_farage.png"
4783,"E_F_Jennifer_Saunders.png","E_M_Ewan_McGregor.png","TRUE","pictures/stimuli/E","pictures/stimuli/E","F","M","5","5c0d109e73986d0001785b39","07/12/2022, 08:53:14",0.00918966946080272,"33","Female","right",0,0,0,0,FALSE,"E_F_Jennifer_Saunders.png E_M_Ewan_McGregor.png"
3535,"E_M_Russell_Howard.png","P_F_nicola_sturge.png","FALSE","pictures/stimuli/E","pictures/stimuli/P","M","F","6","5c0d109e73986d0001785b39","07/12/2022, 08:53:14",0.882208268237096,"33","Female","right",0,0,0,0,FALSE,"E_M_Russell_Howard.png P_F_nicola_sturge.png"
4746,"E_F_Sarah_Millican.png","E_M_Peter_Kay.png","TRUE","pictures/stimuli/E","pictures/stimuli/E","F","M","3","5c0d109e73986d0001785b39","07/12/2022, 08:53:14",-1.73684752809178,"33","Female","right",0,0,0,0,FALSE,"E_F_Sarah_Millican.png E_M_Peter_Kay.png"
2016,"P_M_jeremy_corbyn.png","P_M_keir_starmer.png","TRUE","pictures/stimuli/P","pictures/stimuli/P","M","M","6","5c0d109e73986d0001785b39","07/12/2022, 08:53:14",0.882208268237096,"33","Female","right",0,0,0,0,FALSE,"P_M_jeremy_corbyn.png P_M_keir_starmer.png"
2039,"E_F_Jennifer_Saunders.png","P_F_Theresa_May.png","FALSE","pictures/stimuli/E","pictures/stimuli/P","F","F","3","5c0d109e73986d0001785b39","07/12/2022, 08:53:14",-1.73684752809178,"33","Female","right",0,1,0,0,TRUE,"E_F_Jennifer_Saunders.png P_F_Theresa_May.png"
1884,"E_M_Michael_McIntyr.png","P_M_jeremy_corbyn.png","FALSE","pictures/stimuli/E","pictures/stimuli/P","M","M","6","5c0d109e73986d0001785b39","07/12/2022, 08:53:14",0.882208268237096,"33","Female","right",0,0,0,0,FALSE,"E_M_Michael_McIntyr.png P_M_jeremy_corbyn.png"
3075,"E_M_Ewan_McGregor.png","P_M_Sajid_Javid.png","FALSE","pictures/stimuli/E","pictures/stimuli/P","M","M","6","5c0d109e73986d0001785b39","07/12/2022, 08:53:14",0.882208268237096,"33","Female","right",0,0,0,0,FALSE,"E_M_Ewan_McGregor.png P_M_Sajid_Javid.png"
2307,"P_M_Michael_Gove.png","P_M_nigel_farage.png","TRUE","pictures/stimuli/P","pictures/stimuli/P","M","M","4","5c0d109e73986d0001785b39","07/12/2022, 08:53:14",-0.86382892931549,"33","Female","right",0,0,0,0,FALSE,"P_M_Michael_Gove.png P_M_nigel_farage.png"
3900,"E_F_Jennifer_Saunders.png","P_M_Tony_Blair.png","FALSE","pictures/stimuli/E","pictures/stimuli/P","F","M","3","5c0d109e73986d0001785b39","07/12/2022, 08:53:14",-1.73684752809178,"33","Female","right",0,1,0,0,TRUE,"E_F_Jennifer_Saunders.png P_M_Tony_Blair.png"
1631,"E_M_Simon_Pegg.png","P_M_Sajid_Javid.png","FALSE","pictures/stimuli/E","pictures/stimuli/P","M","M","6","5c0d109e73986d0001785b39","07/12/2022, 08:53:14",0.882208268237096,"33","Female","right",0,0,0,0,FALSE,"E_M_Simon_Pegg.png P_M_Sajid_Javid.png"
1959,"E_M_Peter_Kay.png","P_M_Tony_Blair.png","FALSE","pictures/stimuli/E","pictures/stimuli/P","M","M","5","5c0d109e73986d0001785b39","07/12/2022, 08:53:14",0.00918966946080272,"33","Female","right",0,1,0,0,TRUE,"E_M_Peter_Kay.png P_M_Tony_Blair.png"
5363,"P_F_nicola_sturge.png","P_M_david_camer.png","TRUE","pictures/stimuli/P","pictures/stimuli/P","F","M","3","5c0d109e73986d0001785b39","07/12/2022, 08:53:14",-1.73684752809178,"33","Female","right",0,0,0,0,FALSE,"P_F_nicola_sturge.png P_M_david_camer.png"
2030,"E_F_Julie_Walters.png","E_M_Michael_McIntyr.png","TRUE","pictures/stimuli/E","pictures/stimuli/E","F","M","4","5c0d109e73986d0001785b39","07/12/2022, 08:53:14",-0.86382892931549,"33","Female","right",0,0,0,0,FALSE,"E_F_Julie_Walters.png E_M_Michael_McIntyr.png"
1775,"E_M_Simon_Pegg.png","P_M_keir_starmer.png","FALSE","pictures/stimuli/E","pictures/stimuli/P","M","M","5","5c0d109e73986d0001785b39","07/12/2022, 08:53:14",0.00918966946080272,"33","Female","right",0,0,0,0,FALSE,"E_M_Simon_Pegg.png P_M_keir_starmer.png"
2297,"E_F_Dawn_Roma_French.png","E_F_Jennifer_Saunders.png","TRUE","pictures/stimuli/E","pictures/stimuli/E","F","F","5","5c0d109e73986d0001785b39","07/12/2022, 08:53:14",0.00918966946080272,"33","Female","right",0,0,0,0,FALSE,"E_F_Dawn_Roma_French.png E_F_Jennifer_Saunders.png"
1825,"E_M_Russell_Howard.png","P_M_jeremy_corbyn.png","FALSE","pictures/stimuli/E","pictures/stimuli/P","M","M","5","5c0d109e73986d0001785b39","07/12/2022, 08:53:14",0.00918966946080272,"33","Female","right",0,0,0,0,FALSE,"E_M_Russell_Howard.png P_M_jeremy_corbyn.png"
2782,"E_M_Simon_Pegg.png","P_M_Tony_Blair.png","FALSE","pictures/stimuli/E","pictures/stimuli/P","M","M","4","5c0d109e73986d0001785b39","07/12/2022, 08:53:14",-0.86382892931549,"33","Female","right",0,1,0,0,TRUE,"E_M_Simon_Pegg.png P_M_Tony_Blair.png"
2599,"E_M_Ewan_McGregor.png","P_M_jeremy_corbyn.png","FALSE","pictures/stimuli/E","pictures/stimuli/P","M","M","6","5c0d109e73986d0001785b39","07/12/2022, 08:53:14",0.882208268237096,"33","Female","right",0,0,0,0,FALSE,"E_M_Ewan_McGregor.png P_M_jeremy_corbyn.png"
4311,"E_F_Jennifer_Saunders.png","E_M_Jimmy_Carr.png","TRUE","pictures/stimuli/E","pictures/stimuli/E","F","M","6","5c0d109e73986d0001785b39","07/12/2022, 08:53:14",0.882208268237096,"33","Female","right",0,0,0,0,FALSE,"E_F_Jennifer_Saunders.png E_M_Jimmy_Carr.png"
5879,"E_F_Sarah_Millican.png","E_M_Russell_Howard.png","TRUE","pictures/stimuli/E","pictures/stimuli/E","F","M","6","5c0d109e73986d0001785b39","07/12/2022, 08:53:14",0.882208268237096,"33","Female","right",0,0,0,0,FALSE,"E_F_Sarah_Millican.png E_M_Russell_Howard.png"
3798,"E_F_Dawn_Roma_French.png","P_F_Theresa_May.png","FALSE","pictures/stimuli/E","pictures/stimuli/P","F","F","6","5c0d109e73986d0001785b39","07/12/2022, 08:53:14",0.882208268237096,"33","Female","right",0,1,0,0,TRUE,"E_F_Dawn_Roma_French.png P_F_Theresa_May.png"
2322,"E_M_Simon_Pegg.png","P_M_jeremy_corbyn.png","FALSE","pictures/stimuli/E","pictures/stimuli/P","M","M","6","5c0d109e73986d0001785b39","07/12/2022, 08:53:14",0.882208268237096,"33","Female","right",0,0,0,0,FALSE,"E_M_Simon_Pegg.png P_M_jeremy_corbyn.png"
2103,"E_M_Jimmy_Carr.png","P_F_nicola_sturge.png","FALSE","pictures/stimuli/E","pictures/stimuli/P","M","F","4","5c0d109e73986d0001785b39","07/12/2022, 08:53:14",-0.86382892931549,"33","Female","right",0,0,0,0,FALSE,"E_M_Jimmy_Carr.png P_F_nicola_sturge.png"
2127,"E_F_Sarah_Millican.png","P_M_Sajid_Javid.png","FALSE","pictures/stimuli/E","pictures/stimuli/P","F","M","5","5c0d109e73986d0001785b39","07/12/2022, 08:53:14",0.00918966946080272,"33","Female","right",0,0,0,0,FALSE,"E_F_Sarah_Millican.png P_M_Sajid_Javid.png"
1990,"E_M_Jimmy_Carr.png","P_M_Michael_Gove.png","FALSE","pictures/stimuli/E","pictures/stimuli/P","M","M","3","5c0d109e73986d0001785b39","07/12/2022, 08:53:14",-1.73684752809178,"33","Female","right",0,0,0,0,FALSE,"E_M_Jimmy_Carr.png P_M_Michael_Gove.png"
3697,"P_M_Michael_Gove.png","P_M_Tony_Blair.png","TRUE","pictures/stimuli/P","pictures/stimuli/P","M","M","2","5c0d109e73986d0001785b39","07/12/2022, 08:53:14",-2.60986612686808,"33","Female","right",0,1,0,0,TRUE,"P_M_Michael_Gove.png P_M_Tony_Blair.png"
2967,"E_M_Ewan_McGregor.png","E_M_Simon_Pegg.png","TRUE","pictures/stimuli/E","pictures/stimuli/E","M","M","5","5c0d109e73986d0001785b39","07/12/2022, 08:53:14",0.00918966946080272,"33","Female","right",0,0,0,0,FALSE,"E_M_Ewan_McGregor.png E_M_Simon_Pegg.png"
2933,"E_F_Jennifer_Saunders.png","E_M_Simon_Pegg.png","TRUE","pictures/stimuli/E","pictures/stimuli/E","F","M","6","5c0d109e73986d0001785b39","07/12/2022, 08:53:14",0.882208268237096,"33","Female","right",0,0,0,0,FALSE,"E_F_Jennifer_Saunders.png E_M_Simon_Pegg.png"
1711,"P_M_nigel_farage.png","P_M_Tony_Blair.png","TRUE","pictures/stimuli/P","pictures/stimuli/P","M","M","3","5c0d109e73986d0001785b39","07/12/2022, 08:53:14",-1.73684752809178,"33","Female","right",0,1,0,0,TRUE,"P_M_nigel_farage.png P_M_Tony_Blair.png"
1820,"P_F_nicola_sturge.png","P_M_Tony_Blair.png","TRUE","pictures/stimuli/P","pictures/stimuli/P","F","M","4","5c0d109e73986d0001785b39","07/12/2022, 08:53:14",-0.86382892931549,"33","Female","right",0,1,0,0,TRUE,"P_F_nicola_sturge.png P_M_Tony_Blair.png"
1751,"E_M_Russell_Howard.png","E_M_Simon_Pegg.png","TRUE","pictures/stimuli/E","pictures/stimuli/E","M","M","4","5c0d109e73986d0001785b39","07/12/2022, 08:53:14",-0.86382892931549,"33","Female","right",0,0,0,0,FALSE,"E_M_Russell_Howard.png E_M_Simon_Pegg.png"
5015,"E_F_Julie_Walters.png","P_M_jeremy_corbyn.png","FALSE","pictures/stimuli/E","pictures/stimuli/P","F","M","5","5c0d109e73986d0001785b39","07/12/2022, 08:53:14",0.00918966946080272,"33","Female","right",0,0,0,0,FALSE,"E_F_Julie_Walters.png P_M_jeremy_corbyn.png"
1791,"E_M_Ewan_McGregor.png","E_M_Peter_Kay.png","TRUE","pictures/stimuli/E","pictures/stimuli/E","M","M","4","5c0d109e73986d0001785b39","07/12/2022, 08:53:14",-0.86382892931549,"33","Female","right",0,0,0,0,FALSE,"E_M_Ewan_McGregor.png E_M_Peter_Kay.png"
2000,"E_M_Michael_McIntyr.png","P_M_nigel_farage.png","FALSE","pictures/stimuli/E","pictures/stimuli/P","M","M","2","5c0d109e73986d0001785b39","07/12/2022, 08:53:14",-2.60986612686808,"33","Female","right",0,0,0,0,FALSE,"E_M_Michael_McIntyr.png P_M_nigel_farage.png"
1767,"E_M_Simon_Pegg.png","P_F_nicola_sturge.png","FALSE","pictures/stimuli/E","pictures/stimuli/P","M","F","6","5c0d109e73986d0001785b39","07/12/2022, 08:53:14",0.882208268237096,"33","Female","right",0,0,0,0,FALSE,"E_M_Simon_Pegg.png P_F_nicola_sturge.png"
1517,"P_M_keir_starmer.png","P_M_nigel_farage.png","TRUE","pictures/stimuli/P","pictures/stimuli/P","M","M","4","5c0d109e73986d0001785b39","07/12/2022, 08:53:14",-0.86382892931549,"33","Female","right",0,0,0,0,FALSE,"P_M_keir_starmer.png P_M_nigel_farage.png"
2151,"P_M_Gordon_Brown.png","P_M_Sajid_Javid.png","TRUE","pictures/stimuli/P","pictures/stimuli/P","M","M","6","5c0d109e73986d0001785b39","07/12/2022, 08:53:14",0.882208268237096,"33","Female","right",1,0,0,0,TRUE,"P_M_Gordon_Brown.png P_M_Sajid_Javid.png"
2815,"E_M_Peter_Kay.png","P_M_nigel_farage.png","FALSE","pictures/stimuli/E","pictures/stimuli/P","M","M","6","5c0d109e73986d0001785b39","07/12/2022, 08:53:14",0.882208268237096,"33","Female","right",0,0,0,0,FALSE,"E_M_Peter_Kay.png P_M_nigel_farage.png"
3652,"E_F_Julie_Walters.png","P_M_david_camer.png","FALSE","pictures/stimuli/E","pictures/stimuli/P","F","M","4","5c0d109e73986d0001785b39","07/12/2022, 08:53:14",-0.86382892931549,"33","Female","right",0,0,0,0,FALSE,"E_F_Julie_Walters.png P_M_david_camer.png"
1943,"E_F_Jennifer_Saunders.png","P_M_david_camer.png","FALSE","pictures/stimuli/E","pictures/stimuli/P","F","M","4","5c0d109e73986d0001785b39","07/12/2022, 08:53:14",-0.86382892931549,"33","Female","right",0,0,0,0,FALSE,"E_F_Jennifer_Saunders.png P_M_david_camer.png"
3264,"E_F_Dawn_Roma_French.png","E_F_Julie_Walters.png","TRUE","pictures/stimuli/E","pictures/stimuli/E","F","F","6","5c0d109e73986d0001785b39","07/12/2022, 08:53:14",0.882208268237096,"33","Female","right",0,0,0,0,FALSE,"E_F_Dawn_Roma_French.png E_F_Julie_Walters.png"
3414,"E_F_Sarah_Millican.png","P_M_Michael_Gove.png","FALSE","pictures/stimuli/E","pictures/stimuli/P","F","M","6","5c0d109e73986d0001785b39","07/12/2022, 08:53:14",0.882208268237096,"33","Female","right",0,0,0,0,FALSE,"E_F_Sarah_Millican.png P_M_Michael_Gove.png"
1550,"E_F_Sarah_Millican.png","P_M_Tony_Blair.png","FALSE","pictures/stimuli/E","pictures/stimuli/P","F","M","6","5c0d109e73986d0001785b39","07/12/2022, 08:53:14",0.882208268237096,"33","Female","right",0,1,0,0,TRUE,"E_F_Sarah_Millican.png P_M_Tony_Blair.png"
1775,"E_F_Sarah_Millican.png","P_M_jeremy_corbyn.png","FALSE","pictures/stimuli/E","pictures/stimuli/P","F","M","6","5c0d109e73986d0001785b39","07/12/2022, 08:53:14",0.882208268237096,"33","Female","right",0,0,0,0,FALSE,"E_F_Sarah_Millican.png P_M_jeremy_corbyn.png"
2671,"E_F_Dawn_Roma_French.png","P_F_nicola_sturge.png","FALSE","pictures/stimuli/E","pictures/stimuli/P","F","F","5","5c0d109e73986d0001785b39","07/12/2022, 08:53:14",0.00918966946080272,"33","Female","right",0,0,0,0,FALSE,"E_F_Dawn_Roma_French.png P_F_nicola_sturge.png"
2430,"E_M_Peter_Kay.png","P_M_david_camer.png","FALSE","pictures/stimuli/E","pictures/stimuli/P","M","M","6","5c0d109e73986d0001785b39","07/12/2022, 08:53:14",0.882208268237096,"33","Female","right",0,0,0,0,FALSE,"E_M_Peter_Kay.png P_M_david_camer.png"
1958,"P_F_Theresa_May.png","P_M_keir_starmer.png","TRUE","pictures/stimuli/P","pictures/stimuli/P","F","M","5","5c0d109e73986d0001785b39","07/12/2022, 08:53:14",0.00918966946080272,"33","Female","right",1,0,0,0,TRUE,"P_F_Theresa_May.png P_M_keir_starmer.png"
2351,"E_M_Simon_Pegg.png","P_F_Theresa_May.png","FALSE","pictures/stimuli/E","pictures/stimuli/P","M","F","6","5c0d109e73986d0001785b39","07/12/2022, 08:53:14",0.882208268237096,"33","Female","right",0,1,0,0,TRUE,"E_M_Simon_Pegg.png P_F_Theresa_May.png"
2297,"E_F_Dawn_Roma_French.png","E_M_Peter_Kay.png","TRUE","pictures/stimuli/E","pictures/stimuli/E","F","M","6","5c0d109e73986d0001785b39","07/12/2022, 08:53:14",0.882208268237096,"33","Female","right",0,0,0,0,FALSE,"E_F_Dawn_Roma_French.png E_M_Peter_Kay.png"
2080,"E_M_Ewan_McGregor.png","P_M_nigel_farage.png","FALSE","pictures/stimuli/E","pictures/stimuli/P","M","M","6","5c0d109e73986d0001785b39","07/12/2022, 08:53:14",0.882208268237096,"33","Female","right",0,0,0,0,FALSE,"E_M_Ewan_McGregor.png P_M_nigel_farage.png"
2022,"P_M_Michael_Gove.png","P_M_Sajid_Javid.png","TRUE","pictures/stimuli/P","pictures/stimuli/P","M","M","6","5c0d109e73986d0001785b39","07/12/2022, 08:53:14",0.882208268237096,"33","Female","right",0,0,0,0,FALSE,"P_M_Michael_Gove.png P_M_Sajid_Javid.png"
2409,"P_F_nicola_sturge.png","P_M_nigel_farage.png","TRUE","pictures/stimuli/P","pictures/stimuli/P","F","M","5","5c0d109e73986d0001785b39","07/12/2022, 08:53:14",0.00918966946080272,"33","Female","right",0,0,0,0,FALSE,"P_F_nicola_sturge.png P_M_nigel_farage.png"
1590,"E_M_Peter_Kay.png","P_F_nicola_sturge.png","FALSE","pictures/stimuli/E","pictures/stimuli/P","M","F","6","5c0d109e73986d0001785b39","07/12/2022, 08:53:14",0.882208268237096,"33","Female","right",0,0,0,0,FALSE,"E_M_Peter_Kay.png P_F_nicola_sturge.png"
2495,"E_M_Michael_McIntyr.png","P_M_Sajid_Javid.png","FALSE","pictures/stimuli/E","pictures/stimuli/P","M","M","5","5c0d109e73986d0001785b39","07/12/2022, 08:53:14",0.00918966946080272,"33","Female","right",0,0,0,0,FALSE,"E_M_Michael_McIntyr.png P_M_Sajid_Javid.png"
1759,"E_F_Julie_Walters.png","P_M_keir_starmer.png","FALSE","pictures/stimuli/E","pictures/stimuli/P","F","M","4","5c0d109e73986d0001785b39","07/12/2022, 08:53:14",-0.86382892931549,"33","Female","right",0,0,0,0,FALSE,"E_F_Julie_Walters.png P_M_keir_starmer.png"
2840,"E_M_Jimmy_Carr.png","P_M_david_camer.png","FALSE","pictures/stimuli/E","pictures/stimuli/P","M","M","3","5c0d109e73986d0001785b39","07/12/2022, 08:53:14",-1.73684752809178,"33","Female","right",0,0,0,0,FALSE,"E_M_Jimmy_Carr.png P_M_david_camer.png"
1615,"E_F_Dawn_Roma_French.png","P_M_nigel_farage.png","FALSE","pictures/stimuli/E","pictures/stimuli/P","F","M","6","5c0d109e73986d0001785b39","07/12/2022, 08:53:14",0.882208268237096,"33","Female","right",0,0,0,0,FALSE,"E_F_Dawn_Roma_French.png P_M_nigel_farage.png"
2887,"E_F_Julie_Walters.png","E_M_Jimmy_Carr.png","TRUE","pictures/stimuli/E","pictures/stimuli/E","F","M","4","5c0d109e73986d0001785b39","07/12/2022, 08:53:14",-0.86382892931549,"33","Female","right",0,0,0,0,FALSE,"E_F_Julie_Walters.png E_M_Jimmy_Carr.png"
2031,"E_M_Michael_McIntyr.png","P_M_Michael_Gove.png","FALSE","pictures/stimuli/E","pictures/stimuli/P","M","M","5","5c0d109e73986d0001785b39","07/12/2022, 08:53:14",0.00918966946080272,"33","Female","right",0,0,0,0,FALSE,"E_M_Michael_McIntyr.png P_M_Michael_Gove.png"
2105,"E_F_Julie_Walters.png","P_F_nicola_sturge.png","FALSE","pictures/stimuli/E","pictures/stimuli/P","F","F","3","5c0d109e73986d0001785b39","07/12/2022, 08:53:14",-1.73684752809178,"33","Female","right",0,0,0,0,FALSE,"E_F_Julie_Walters.png P_F_nicola_sturge.png"
2152,"E_F_Sarah_Millican.png","E_M_Simon_Pegg.png","TRUE","pictures/stimuli/E","pictures/stimuli/E","F","M","6","5c0d109e73986d0001785b39","07/12/2022, 08:53:14",0.882208268237096,"33","Female","right",0,0,0,0,FALSE,"E_F_Sarah_Millican.png E_M_Simon_Pegg.png"
2351,"E_F_Dawn_Roma_French.png","P_M_Gordon_Brown.png","FALSE","pictures/stimuli/E","pictures/stimuli/P","F","M","6","5c0d109e73986d0001785b39","07/12/2022, 08:53:14",0.882208268237096,"33","Female","right",0,1,0,0,TRUE,"E_F_Dawn_Roma_French.png P_M_Gordon_Brown.png"
3064,"P_F_Theresa_May.png","P_M_Tony_Blair.png","TRUE","pictures/stimuli/P","pictures/stimuli/P","F","M","5","5c0d109e73986d0001785b39","07/12/2022, 08:53:14",0.00918966946080272,"33","Female","right",1,1,0,0,TRUE,"P_F_Theresa_May.png P_M_Tony_Blair.png"
2183,"E_M_Peter_Kay.png","P_M_keir_starmer.png","FALSE","pictures/stimuli/E","pictures/stimuli/P","M","M","6","5c0d109e73986d0001785b39","07/12/2022, 08:53:14",0.882208268237096,"33","Female","right",0,0,0,0,FALSE,"E_M_Peter_Kay.png P_M_keir_starmer.png"
2223,"P_F_Theresa_May.png","P_M_david_camer.png","TRUE","pictures/stimuli/P","pictures/stimuli/P","F","M","5","5c0d109e73986d0001785b39","07/12/2022, 08:53:14",0.00918966946080272,"33","Female","right",1,0,0,0,TRUE,"P_F_Theresa_May.png P_M_david_camer.png"
3199,"E_F_Jennifer_Saunders.png","P_M_Michael_Gove.png","FALSE","pictures/stimuli/E","pictures/stimuli/P","F","M","6","5c0d109e73986d0001785b39","07/12/2022, 08:53:14",0.882208268237096,"33","Female","right",0,0,0,0,FALSE,"E_F_Jennifer_Saunders.png P_M_Michael_Gove.png"
1566,"E_F_Jennifer_Saunders.png","P_F_nicola_sturge.png","FALSE","pictures/stimuli/E","pictures/stimuli/P","F","F","3","5c0d109e73986d0001785b39","07/12/2022, 08:53:14",-1.73684752809178,"33","Female","right",0,0,0,0,FALSE,"E_F_Jennifer_Saunders.png P_F_nicola_sturge.png"
2477,"E_F_Julie_Walters.png","P_M_Sajid_Javid.png","FALSE","pictures/stimuli/E","pictures/stimuli/P","F","M","6","5c0d109e73986d0001785b39","07/12/2022, 08:53:14",0.882208268237096,"33","Female","right",0,0,0,0,FALSE,"E_F_Julie_Walters.png P_M_Sajid_Javid.png"
3678,"P_F_nicola_sturge.png","P_M_Gordon_Brown.png","TRUE","pictures/stimuli/P","pictures/stimuli/P","F","M","6","5c0d109e73986d0001785b39","07/12/2022, 08:53:14",0.882208268237096,"33","Female","right",0,1,0,0,TRUE,"P_F_nicola_sturge.png P_M_Gordon_Brown.png"
1790,"P_M_Sajid_Javid.png","P_M_Tony_Blair.png","TRUE","pictures/stimuli/P","pictures/stimuli/P","M","M","6","5c0d109e73986d0001785b39","07/12/2022, 08:53:14",0.882208268237096,"33","Female","right",0,1,0,0,TRUE,"P_M_Sajid_Javid.png P_M_Tony_Blair.png"
4936,"E_M_Russell_Howard.png","P_M_Michael_Gove.png","FALSE","pictures/stimuli/E","pictures/stimuli/P","M","M","6","5c0d109e73986d0001785b39","07/12/2022, 08:53:14",0.882208268237096,"33","Female","right",0,0,0,0,FALSE,"E_M_Russell_Howard.png P_M_Michael_Gove.png"
2390,"E_M_Russell_Howard.png","P_M_Gordon_Brown.png","FALSE","pictures/stimuli/E","pictures/stimuli/P","M","M","6","5c0d109e73986d0001785b39","07/12/2022, 08:53:14",0.882208268237096,"33","Female","right",0,1,0,0,TRUE,"E_M_Russell_Howard.png P_M_Gordon_Brown.png"
1958,"E_F_Dawn_Roma_French.png","E_M_Jimmy_Carr.png","TRUE","pictures/stimuli/E","pictures/stimuli/E","F","M","6","5c0d109e73986d0001785b39","07/12/2022, 08:53:14",0.882208268237096,"33","Female","right",0,0,0,0,FALSE,"E_F_Dawn_Roma_French.png E_M_Jimmy_Carr.png"
5000,"E_F_Dawn_Roma_French.png","P_M_Sajid_Javid.png","FALSE","pictures/stimuli/E","pictures/stimuli/P","F","M","6","5c0d109e73986d0001785b39","07/12/2022, 08:53:14",0.882208268237096,"33","Female","right",0,0,0,0,FALSE,"E_F_Dawn_Roma_French.png P_M_Sajid_Javid.png"
1899,"E_M_Ewan_McGregor.png","P_M_Gordon_Brown.png","FALSE","pictures/stimuli/E","pictures/stimuli/P","M","M","6","5c0d109e73986d0001785b39","07/12/2022, 08:53:14",0.882208268237096,"33","Female","right",0,1,0,0,TRUE,"E_M_Ewan_McGregor.png P_M_Gordon_Brown.png"
1587,"P_M_david_camer.png","P_M_Tony_Blair.png","TRUE","pictures/stimuli/P","pictures/stimuli/P","M","M","4","5c0d109e73986d0001785b39","07/12/2022, 08:53:14",-0.86382892931549,"33","Female","right",0,1,0,0,TRUE,"P_M_david_camer.png P_M_Tony_Blair.png"
1847,"P_M_david_camer.png","P_M_Michael_Gove.png","TRUE","pictures/stimuli/P","pictures/stimuli/P","M","M","3","5c0d109e73986d0001785b39","07/12/2022, 08:53:14",-1.73684752809178,"33","Female","right",0,0,0,0,FALSE,"P_M_david_camer.png P_M_Michael_Gove.png"
1722,"E_F_Jennifer_Saunders.png","E_M_Russell_Howard.png","TRUE","pictures/stimuli/E","pictures/stimuli/E","F","M","5","5c0d109e73986d0001785b39","07/12/2022, 08:53:14",0.00918966946080272,"33","Female","right",0,0,0,0,FALSE,"E_F_Jennifer_Saunders.png E_M_Russell_Howard.png"
1383,"E_F_Jennifer_Saunders.png","E_M_Peter_Kay.png","TRUE","pictures/stimuli/E","pictures/stimuli/E","F","M","6","5c0d109e73986d0001785b39","07/12/2022, 08:53:14",0.882208268237096,"33","Female","right",0,0,0,0,FALSE,"E_F_Jennifer_Saunders.png E_M_Peter_Kay.png"
1835,"E_M_Simon_Pegg.png","P_M_Michael_Gove.png","FALSE","pictures/stimuli/E","pictures/stimuli/P","M","M","6","5c0d109e73986d0001785b39","07/12/2022, 08:53:14",0.882208268237096,"33","Female","right",0,0,0,0,FALSE,"E_M_Simon_Pegg.png P_M_Michael_Gove.png"
1543,"E_F_Sarah_Millican.png","P_M_keir_starmer.png","FALSE","pictures/stimuli/E","pictures/stimuli/P","F","M","6","5c0d109e73986d0001785b39","07/12/2022, 08:53:14",0.882208268237096,"33","Female","right",0,0,0,0,FALSE,"E_F_Sarah_Millican.png P_M_keir_starmer.png"
1443,"E_F_Dawn_Roma_French.png","P_M_david_camer.png","FALSE","pictures/stimuli/E","pictures/stimuli/P","F","M","6","5c0d109e73986d0001785b39","07/12/2022, 08:53:14",0.882208268237096,"33","Female","right",0,0,0,0,FALSE,"E_F_Dawn_Roma_French.png P_M_david_camer.png"
2319,"E_M_Jimmy_Carr.png","E_M_Russell_Howard.png","TRUE","pictures/stimuli/E","pictures/stimuli/E","M","M","5","5c0d109e73986d0001785b39","07/12/2022, 08:53:14",0.00918966946080272,"33","Female","right",0,0,0,0,FALSE,"E_M_Jimmy_Carr.png E_M_Russell_Howard.png"
1479,"E_M_Simon_Pegg.png","P_M_Gordon_Brown.png","FALSE","pictures/stimuli/E","pictures/stimuli/P","M","M","6","5c0d109e73986d0001785b39","07/12/2022, 08:53:14",0.882208268237096,"33","Female","right",0,1,0,0,TRUE,"E_M_Simon_Pegg.png P_M_Gordon_Brown.png"
2535,"P_F_nicola_sturge.png","P_M_jeremy_corbyn.png","TRUE","pictures/stimuli/P","pictures/stimuli/P","F","M","6","5c0d109e73986d0001785b39","07/12/2022, 08:53:14",0.882208268237096,"33","Female","right",0,0,0,0,FALSE,"P_F_nicola_sturge.png P_M_jeremy_corbyn.png"
1645,"P_M_david_camer.png","P_M_Sajid_Javid.png","TRUE","pictures/stimuli/P","pictures/stimuli/P","M","M","6","5c0d109e73986d0001785b39","07/12/2022, 08:53:14",0.882208268237096,"33","Female","right",0,0,0,0,FALSE,"P_M_david_camer.png P_M_Sajid_Javid.png"
1443,"E_M_Ewan_McGregor.png","P_M_keir_starmer.png","FALSE","pictures/stimuli/E","pictures/stimuli/P","M","M","5","5c0d109e73986d0001785b39","07/12/2022, 08:53:14",0.00918966946080272,"33","Female","right",0,0,0,0,FALSE,"E_M_Ewan_McGregor.png P_M_keir_starmer.png"
1751,"E_M_Jimmy_Carr.png","P_M_keir_starmer.png","FALSE","pictures/stimuli/E","pictures/stimuli/P","M","M","5","5c0d109e73986d0001785b39","07/12/2022, 08:53:14",0.00918966946080272,"33","Female","right",0,0,0,0,FALSE,"E_M_Jimmy_Carr.png P_M_keir_starmer.png"
3654,"E_F_Julie_Walters.png","P_M_Gordon_Brown.png","FALSE","pictures/stimuli/E","pictures/stimuli/P","F","M","5","5c0d109e73986d0001785b39","07/12/2022, 08:53:14",0.00918966946080272,"33","Female","right",0,1,0,0,TRUE,"E_F_Julie_Walters.png P_M_Gordon_Brown.png"
1951,"E_F_Jennifer_Saunders.png","E_F_Sarah_Millican.png","TRUE","pictures/stimuli/E","pictures/stimuli/E","F","F","6","5c0d109e73986d0001785b39","07/12/2022, 08:53:14",0.882208268237096,"33","Female","right",0,0,0,0,FALSE,"E_F_Jennifer_Saunders.png E_F_Sarah_Millican.png"
1695,"E_F_Julie_Walters.png","P_M_Tony_Blair.png","FALSE","pictures/stimuli/E","pictures/stimuli/P","F","M","5","5c0d109e73986d0001785b39","07/12/2022, 08:53:14",0.00918966946080272,"33","Female","right",0,1,0,0,TRUE,"E_F_Julie_Walters.png P_M_Tony_Blair.png"
1687,"E_F_Sarah_Millican.png","P_M_Gordon_Brown.png","FALSE","pictures/stimuli/E","pictures/stimuli/P","F","M","6","5c0d109e73986d0001785b39","07/12/2022, 08:53:14",0.882208268237096,"33","Female","right",0,1,0,0,TRUE,"E_F_Sarah_Millican.png P_M_Gordon_Brown.png"
3452,"E_F_Dawn_Roma_French.png","E_M_Michael_McIntyr.png","TRUE","pictures/stimuli/E","pictures/stimuli/E","F","M","4","5c0d109e73986d0001785b39","07/12/2022, 08:53:14",-0.86382892931549,"33","Female","right",0,0,0,0,FALSE,"E_F_Dawn_Roma_French.png E_M_Michael_McIntyr.png"
4383,"E_F_Dawn_Roma_French.png","E_F_Sarah_Millican.png","TRUE","pictures/stimuli/E","pictures/stimuli/E","F","F","4","5c0d109e73986d0001785b39","07/12/2022, 08:53:14",-0.86382892931549,"33","Female","right",0,0,0,0,FALSE,"E_F_Dawn_Roma_French.png E_F_Sarah_Millican.png"
2759,"E_M_Peter_Kay.png","E_M_Simon_Pegg.png","TRUE","pictures/stimuli/E","pictures/stimuli/E","M","M","6","5c0d109e73986d0001785b39","07/12/2022, 08:53:14",0.882208268237096,"33","Female","right",0,0,0,0,FALSE,"E_M_Peter_Kay.png E_M_Simon_Pegg.png"
1899,"E_M_Peter_Kay.png","E_M_Russell_Howard.png","TRUE","pictures/stimuli/E","pictures/stimuli/E","M","M","5","5c0d109e73986d0001785b39","07/12/2022, 08:53:14",0.00918966946080272,"33","Female","right",0,0,0,0,FALSE,"E_M_Peter_Kay.png E_M_Russell_Howard.png"
1815,"E_F_Jennifer_Saunders.png","E_F_Julie_Walters.png","TRUE","pictures/stimuli/E","pictures/stimuli/E","F","F","2","5c0d109e73986d0001785b39","07/12/2022, 08:53:14",-2.60986612686808,"33","Female","right",0,0,0,0,FALSE,"E_F_Jennifer_Saunders.png E_F_Julie_Walters.png"
1438,"E_F_Jennifer_Saunders.png","P_M_nigel_farage.png","FALSE","pictures/stimuli/E","pictures/stimuli/P","F","M","4","5c0d109e73986d0001785b39","07/12/2022, 08:53:14",-0.86382892931549,"33","Female","right",0,0,0,0,FALSE,"E_F_Jennifer_Saunders.png P_M_nigel_farage.png"
2039,"E_M_Jimmy_Carr.png","P_M_Tony_Blair.png","FALSE","pictures/stimuli/E","pictures/stimuli/P","M","M","5","5c0d109e73986d0001785b39","07/12/2022, 08:53:14",0.00918966946080272,"33","Female","right",0,1,0,0,TRUE,"E_M_Jimmy_Carr.png P_M_Tony_Blair.png"
1845,"E_F_Dawn_Roma_French.png","P_M_jeremy_corbyn.png","FALSE","pictures/stimuli/E","pictures/stimuli/P","F","M","6","5c0d109e73986d0001785b39","07/12/2022, 08:53:14",0.882208268237096,"33","Female","right",0,0,0,0,FALSE,"E_F_Dawn_Roma_French.png P_M_jeremy_corbyn.png"
2135,"E_M_Ewan_McGregor.png","P_M_Tony_Blair.png","FALSE","pictures/stimuli/E","pictures/stimuli/P","M","M","5","5c0d109e73986d0001785b39","07/12/2022, 08:53:14",0.00918966946080272,"33","Female","right",0,1,0,0,TRUE,"E_M_Ewan_McGregor.png P_M_Tony_Blair.png"
3398,"E_M_Ewan_McGregor.png","P_M_Michael_Gove.png","FALSE","pictures/stimuli/E","pictures/stimuli/P","M","M","6","5c0d109e73986d0001785b39","07/12/2022, 08:53:14",0.882208268237096,"33","Female","right",0,0,0,0,FALSE,"E_M_Ewan_McGregor.png P_M_Michael_Gove.png"
1398,"P_F_nicola_sturge.png","P_M_Sajid_Javid.png","TRUE","pictures/stimuli/P","pictures/stimuli/P","F","M","6","5c0d109e73986d0001785b39","07/12/2022, 08:53:14",0.882208268237096,"33","Female","right",0,0,0,0,FALSE,"P_F_nicola_sturge.png P_M_Sajid_Javid.png"
1650,"E_M_Jimmy_Carr.png","E_M_Michael_McIntyr.png","TRUE","pictures/stimuli/E","pictures/stimuli/E","M","M","6","5c0d109e73986d0001785b39","07/12/2022, 08:53:14",0.882208268237096,"33","Female","right",0,0,0,0,FALSE,"E_M_Jimmy_Carr.png E_M_Michael_McIntyr.png"
1704,"P_F_Theresa_May.png","P_M_Gordon_Brown.png","TRUE","pictures/stimuli/P","pictures/stimuli/P","F","M","6","5c0d109e73986d0001785b39","07/12/2022, 08:53:14",0.882208268237096,"33","Female","right",1,1,0,0,TRUE,"P_F_Theresa_May.png P_M_Gordon_Brown.png"
1768,"E_F_Sarah_Millican.png","P_F_Theresa_May.png","FALSE","pictures/stimuli/E","pictures/stimuli/P","F","F","6","5c0d109e73986d0001785b39","07/12/2022, 08:53:14",0.882208268237096,"33","Female","right",0,1,0,0,TRUE,"E_F_Sarah_Millican.png P_F_Theresa_May.png"
2534,"E_F_Jennifer_Saunders.png","P_M_keir_starmer.png","FALSE","pictures/stimuli/E","pictures/stimuli/P","F","M","4","5c0d109e73986d0001785b39","07/12/2022, 08:53:14",-0.86382892931549,"33","Female","right",0,0,0,0,FALSE,"E_F_Jennifer_Saunders.png P_M_keir_starmer.png"
1559,"E_F_Julie_Walters.png","E_F_Sarah_Millican.png","TRUE","pictures/stimuli/E","pictures/stimuli/E","F","F","6","5c0d109e73986d0001785b39","07/12/2022, 08:53:14",0.882208268237096,"33","Female","right",0,0,0,0,FALSE,"E_F_Julie_Walters.png E_F_Sarah_Millican.png"
1671,"P_M_keir_starmer.png","P_M_Tony_Blair.png","TRUE","pictures/stimuli/P","pictures/stimuli/P","M","M","3","5c0d109e73986d0001785b39","07/12/2022, 08:53:14",-1.73684752809178,"33","Female","right",0,1,0,0,TRUE,"P_M_keir_starmer.png P_M_Tony_Blair.png"
1624,"E_M_Peter_Kay.png","P_M_jeremy_corbyn.png","FALSE","pictures/stimuli/E","pictures/stimuli/P","M","M","6","5c0d109e73986d0001785b39","07/12/2022, 08:53:14",0.882208268237096,"33","Female","right",0,0,0,0,FALSE,"E_M_Peter_Kay.png P_M_jeremy_corbyn.png"
1832,"P_M_david_camer.png","P_M_jeremy_corbyn.png","TRUE","pictures/stimuli/P","pictures/stimuli/P","M","M","3","5c0d109e73986d0001785b39","07/12/2022, 08:53:14",-1.73684752809178,"33","Female","right",0,0,0,0,FALSE,"P_M_david_camer.png P_M_jeremy_corbyn.png"
2399,"P_M_jeremy_corbyn.png","P_M_Michael_Gove.png","TRUE","pictures/stimuli/P","pictures/stimuli/P","M","M","5","5c0d109e73986d0001785b39","07/12/2022, 08:53:14",0.00918966946080272,"33","Female","right",0,0,0,0,FALSE,"P_M_jeremy_corbyn.png P_M_Michael_Gove.png"
2296,"E_F_Sarah_Millican.png","P_F_nicola_sturge.png","FALSE","pictures/stimuli/E","pictures/stimuli/P","F","F","6","5c0d109e73986d0001785b39","07/12/2022, 08:53:14",0.882208268237096,"33","Female","right",0,0,0,0,FALSE,"E_F_Sarah_Millican.png P_F_nicola_sturge.png"
1631,"E_M_Ewan_McGregor.png","E_M_Russell_Howard.png","TRUE","pictures/stimuli/E","pictures/stimuli/E","M","M","5","5c0d109e73986d0001785b39","07/12/2022, 08:53:14",0.00918966946080272,"33","Female","right",0,0,0,0,FALSE,"E_M_Ewan_McGregor.png E_M_Russell_Howard.png"
1519,"E_M_Michael_McIntyr.png","P_M_david_camer.png","FALSE","pictures/stimuli/E","pictures/stimuli/P","M","M","6","5c0d109e73986d0001785b39","07/12/2022, 08:53:14",0.882208268237096,"33","Female","right",0,0,0,0,FALSE,"E_M_Michael_McIntyr.png P_M_david_camer.png"
1818,"E_M_Russell_Howard.png","P_M_nigel_farage.png","FALSE","pictures/stimuli/E","pictures/stimuli/P","M","M","5","5c0d109e73986d0001785b39","07/12/2022, 08:53:14",0.00918966946080272,"33","Female","right",0,0,0,0,FALSE,"E_M_Russell_Howard.png P_M_nigel_farage.png"
3295,"E_M_Jimmy_Carr.png","P_F_Theresa_May.png","FALSE","pictures/stimuli/E","pictures/stimuli/P","M","F","6","5c0d109e73986d0001785b39","07/12/2022, 08:53:14",0.882208268237096,"33","Female","right",0,1,0,0,TRUE,"E_M_Jimmy_Carr.png P_F_Theresa_May.png"
1951,"E_F_Jennifer_Saunders.png","P_M_jeremy_corbyn.png","FALSE","pictures/stimuli/E","pictures/stimuli/P","F","M","5","5c0d109e73986d0001785b39","07/12/2022, 08:53:14",0.00918966946080272,"33","Female","right",0,0,0,0,FALSE,"E_F_Jennifer_Saunders.png P_M_jeremy_corbyn.png"
1535,"E_F_Dawn_Roma_French.png","P_M_Michael_Gove.png","FALSE","pictures/stimuli/E","pictures/stimuli/P","F","M","6","5c0d109e73986d0001785b39","07/12/2022, 08:53:14",0.882208268237096,"33","Female","right",0,0,0,0,FALSE,"E_F_Dawn_Roma_French.png P_M_Michael_Gove.png"
2038,"E_M_Jimmy_Carr.png","P_M_Sajid_Javid.png","FALSE","pictures/stimuli/E","pictures/stimuli/P","M","M","6","5c0d109e73986d0001785b39","07/12/2022, 08:53:14",0.882208268237096,"33","Female","right",0,0,0,0,FALSE,"E_M_Jimmy_Carr.png P_M_Sajid_Javid.png"
1602,"E_M_Michael_McIntyr.png","P_M_Tony_Blair.png","FALSE","pictures/stimuli/E","pictures/stimuli/P","M","M","5","5c0d109e73986d0001785b39","07/12/2022, 08:53:14",0.00918966946080272,"33","Female","right",0,1,0,0,TRUE,"E_M_Michael_McIntyr.png P_M_Tony_Blair.png"
1782,"E_M_Russell_Howard.png","P_M_david_camer.png","FALSE","pictures/stimuli/E","pictures/stimuli/P","M","M","4","5c0d109e73986d0001785b39","07/12/2022, 08:53:14",-0.86382892931549,"33","Female","right",0,0,0,0,FALSE,"E_M_Russell_Howard.png P_M_david_camer.png"
5175,"P_M_Gordon_Brown.png","P_M_Tony_Blair.png","TRUE","pictures/stimuli/P","pictures/stimuli/P","M","M","2","5c0d109e73986d0001785b39","07/12/2022, 08:53:14",-2.60986612686808,"33","Female","right",1,1,0,0,TRUE,"P_M_Gordon_Brown.png P_M_Tony_Blair.png"
1652,"E_M_Michael_McIntyr.png","P_F_Theresa_May.png","FALSE","pictures/stimuli/E","pictures/stimuli/P","M","F","6","5c0d109e73986d0001785b39","07/12/2022, 08:53:14",0.882208268237096,"33","Female","right",0,1,0,0,TRUE,"E_M_Michael_McIntyr.png P_F_Theresa_May.png"
1478,"P_M_david_camer.png","P_M_Gordon_Brown.png","TRUE","pictures/stimuli/P","pictures/stimuli/P","M","M","3","5c0d109e73986d0001785b39","07/12/2022, 08:53:14",-1.73684752809178,"33","Female","right",0,1,0,0,TRUE,"P_M_david_camer.png P_M_Gordon_Brown.png"
1522,"E_M_Russell_Howard.png","P_M_keir_starmer.png","FALSE","pictures/stimuli/E","pictures/stimuli/P","M","M","5","5c0d109e73986d0001785b39","07/12/2022, 08:53:14",0.00918966946080272,"33","Female","right",0,0,0,0,FALSE,"E_M_Russell_Howard.png P_M_keir_starmer.png"
1351,"E_F_Dawn_Roma_French.png","P_M_Tony_Blair.png","FALSE","pictures/stimuli/E","pictures/stimuli/P","F","M","6","5c0d109e73986d0001785b39","07/12/2022, 08:53:14",0.882208268237096,"33","Female","right",0,1,0,0,TRUE,"E_F_Dawn_Roma_French.png P_M_Tony_Blair.png"
3008,"E_M_Jimmy_Carr.png","E_M_Peter_Kay.png","TRUE","pictures/stimuli/E","pictures/stimuli/E","M","M","5","5c0d109e73986d0001785b39","07/12/2022, 08:53:14",0.00918966946080272,"33","Female","right",0,0,0,0,FALSE,"E_M_Jimmy_Carr.png E_M_Peter_Kay.png"
1310,"P_M_keir_starmer.png","P_M_Michael_Gove.png","TRUE","pictures/stimuli/P","pictures/stimuli/P","M","M","4","5c0d109e73986d0001785b39","07/12/2022, 08:53:14",-0.86382892931549,"33","Female","right",0,0,0,0,FALSE,"P_M_keir_starmer.png P_M_Michael_Gove.png"
1470,"E_F_Julie_Walters.png","P_F_Theresa_May.png","FALSE","pictures/stimuli/E","pictures/stimuli/P","F","F","2","5c0d109e73986d0001785b39","07/12/2022, 08:53:14",-2.60986612686808,"33","Female","right",0,1,0,0,TRUE,"E_F_Julie_Walters.png P_F_Theresa_May.png"
3527,"P_F_Theresa_May.png","P_M_Sajid_Javid.png","TRUE","pictures/stimuli/P","pictures/stimuli/P","F","M","6","5c0d109e73986d0001785b39","07/12/2022, 08:53:14",0.882208268237096,"33","Female","right",1,0,0,0,TRUE,"P_F_Theresa_May.png P_M_Sajid_Javid.png"
1511,"E_M_Michael_McIntyr.png","E_M_Simon_Pegg.png","TRUE","pictures/stimuli/E","pictures/stimuli/E","M","M","6","5c0d109e73986d0001785b39","07/12/2022, 08:53:14",0.882208268237096,"33","Female","right",0,0,0,0,FALSE,"E_M_Michael_McIntyr.png E_M_Simon_Pegg.png"
1423,"E_M_Ewan_McGregor.png","P_M_david_camer.png","FALSE","pictures/stimuli/E","pictures/stimuli/P","M","M","5","5c0d109e73986d0001785b39","07/12/2022, 08:53:14",0.00918966946080272,"33","Female","right",0,0,0,0,FALSE,"E_M_Ewan_McGregor.png P_M_david_camer.png"
1423,"E_M_Peter_Kay.png","P_M_Michael_Gove.png","FALSE","pictures/stimuli/E","pictures/stimuli/P","M","M","6","5c0d109e73986d0001785b39","07/12/2022, 08:53:14",0.882208268237096,"33","Female","right",0,0,0,0,FALSE,"E_M_Peter_Kay.png P_M_Michael_Gove.png"
2566,"P_F_Theresa_May.png","P_M_jeremy_corbyn.png","TRUE","pictures/stimuli/P","pictures/stimuli/P","F","M","4","5c0d109e73986d0001785b39","07/12/2022, 08:53:14",-0.86382892931549,"33","Female","right",1,0,0,0,TRUE,"P_F_Theresa_May.png P_M_jeremy_corbyn.png"
2014,"E_F_Jennifer_Saunders.png","P_M_Gordon_Brown.png","FALSE","pictures/stimuli/E","pictures/stimuli/P","F","M","6","5c0d109e73986d0001785b39","07/12/2022, 08:53:14",0.882208268237096,"33","Female","right",0,1,0,0,TRUE,"E_F_Jennifer_Saunders.png P_M_Gordon_Brown.png"
2083,"E_F_Sarah_Millican.png","E_M_Ewan_McGregor.png","TRUE","pictures/stimuli/E","pictures/stimuli/E","F","M","6","5c0d109e73986d0001785b39","07/12/2022, 08:53:14",0.882208268237096,"33","Female","right",0,0,0,0,FALSE,"E_F_Sarah_Millican.png E_M_Ewan_McGregor.png"
2206,"P_M_nigel_farage.png","P_M_Sajid_Javid.png","TRUE","pictures/stimuli/P","pictures/stimuli/P","M","M","6","5c0d109e73986d0001785b39","07/12/2022, 08:53:14",0.882208268237096,"33","Female","right",0,0,0,0,FALSE,"P_M_nigel_farage.png P_M_Sajid_Javid.png"
2334,"P_M_keir_starmer.png","P_M_Sajid_Javid.png","TRUE","pictures/stimuli/P","pictures/stimuli/P","M","M","5","5c0d109e73986d0001785b39","07/12/2022, 08:53:14",0.00918966946080272,"33","Female","right",0,0,0,0,FALSE,"P_M_keir_starmer.png P_M_Sajid_Javid.png"
1486,"E_M_Ewan_McGregor.png","P_F_Theresa_May.png","FALSE","pictures/stimuli/E","pictures/stimuli/P","M","F","5","5c0d109e73986d0001785b39","07/12/2022, 08:53:14",0.00918966946080272,"33","Female","right",0,1,0,0,TRUE,"E_M_Ewan_McGregor.png P_F_Theresa_May.png"
1646,"P_F_nicola_sturge.png","P_M_keir_starmer.png","TRUE","pictures/stimuli/P","pictures/stimuli/P","F","M","5","5c0d109e73986d0001785b39","07/12/2022, 08:53:14",0.00918966946080272,"33","Female","right",0,0,0,0,FALSE,"P_F_nicola_sturge.png P_M_keir_starmer.png"
1324,"E_F_Sarah_Millican.png","E_M_Jimmy_Carr.png","TRUE","pictures/stimuli/E","pictures/stimuli/E","F","M","6","5c0d109e73986d0001785b39","07/12/2022, 08:53:14",0.882208268237096,"33","Female","right",0,0,0,0,FALSE,"E_F_Sarah_Millican.png E_M_Jimmy_Carr.png"
1528,"E_F_Julie_Walters.png","E_M_Simon_Pegg.png","TRUE","pictures/stimuli/E","pictures/stimuli/E","F","M","6","5c0d109e73986d0001785b39","07/12/2022, 08:53:14",0.882208268237096,"33","Female","right",0,0,0,0,FALSE,"E_F_Julie_Walters.png E_M_Simon_Pegg.png"
1503,"E_M_Jimmy_Carr.png","P_M_nigel_farage.png","FALSE","pictures/stimuli/E","pictures/stimuli/P","M","M","4","5c0d109e73986d0001785b39","07/12/2022, 08:53:14",-0.86382892931549,"33","Female","right",0,0,0,0,FALSE,"E_M_Jimmy_Carr.png P_M_nigel_farage.png"
1512,"P_F_nicola_sturge.png","P_F_Theresa_May.png","TRUE","pictures/stimuli/P","pictures/stimuli/P","F","F","2","5c0d109e73986d0001785b39","07/12/2022, 08:53:14",-2.60986612686808,"33","Female","right",0,1,0,0,TRUE,"P_F_nicola_sturge.png P_F_Theresa_May.png"
3783,"P_M_david_camer.png","P_M_keir_starmer.png","TRUE","pictures/stimuli/P","pictures/stimuli/P","M","M","2","5c0d109e73986d0001785b39","07/12/2022, 08:53:14",-2.60986612686808,"33","Female","right",0,0,0,0,FALSE,"P_M_david_camer.png P_M_keir_starmer.png"
1302,"P_M_Gordon_Brown.png","P_M_nigel_farage.png","TRUE","pictures/stimuli/P","pictures/stimuli/P","M","M","4","5c0d109e73986d0001785b39","07/12/2022, 08:53:14",-0.86382892931549,"33","Female","right",1,0,0,0,TRUE,"P_M_Gordon_Brown.png P_M_nigel_farage.png"
1865,"E_M_Peter_Kay.png","P_M_Sajid_Javid.png","FALSE","pictures/stimuli/E","pictures/stimuli/P","M","M","6","5c0d109e73986d0001785b39","07/12/2022, 08:53:14",0.882208268237096,"33","Female","right",0,0,0,0,FALSE,"E_M_Peter_Kay.png P_M_Sajid_Javid.png"
1325,"E_F_Sarah_Millican.png","P_M_david_camer.png","FALSE","pictures/stimuli/E","pictures/stimuli/P","F","M","6","5c0d109e73986d0001785b39","07/12/2022, 08:53:14",0.882208268237096,"33","Female","right",0,0,0,0,FALSE,"E_F_Sarah_Millican.png P_M_david_camer.png"
1499,"E_M_Simon_Pegg.png","P_M_david_camer.png","FALSE","pictures/stimuli/E","pictures/stimuli/P","M","M","6","5c0d109e73986d0001785b39","07/12/2022, 08:53:14",0.882208268237096,"33","Female","right",0,0,0,0,FALSE,"E_M_Simon_Pegg.png P_M_david_camer.png"
1646,"P_F_nicola_sturge.png","P_M_Michael_Gove.png","TRUE","pictures/stimuli/P","pictures/stimuli/P","F","M","5","5c0d109e73986d0001785b39","07/12/2022, 08:53:14",0.00918966946080272,"33","Female","right",0,0,0,0,FALSE,"P_F_nicola_sturge.png P_M_Michael_Gove.png"
2900,"E_F_Jennifer_Saunders.png","E_M_Michael_McIntyr.png","TRUE","pictures/stimuli/E","pictures/stimuli/E","F","M","6","5c0d109e73986d0001785b39","07/12/2022, 08:53:14",0.882208268237096,"33","Female","right",0,0,0,0,FALSE,"E_F_Jennifer_Saunders.png E_M_Michael_McIntyr.png"
2295,"E_F_Sarah_Millican.png","E_M_Michael_McIntyr.png","TRUE","pictures/stimuli/E","pictures/stimuli/E","F","M","5","5c0d109e73986d0001785b39","07/12/2022, 08:53:14",0.00918966946080272,"33","Female","right",0,0,0,0,FALSE,"E_F_Sarah_Millican.png E_M_Michael_McIntyr.png"
1692,"P_F_Theresa_May.png","P_M_nigel_farage.png","TRUE","pictures/stimuli/P","pictures/stimuli/P","F","M","6","5c0d109e73986d0001785b39","07/12/2022, 08:53:14",0.882208268237096,"33","Female","right",1,0,0,0,TRUE,"P_F_Theresa_May.png P_M_nigel_farage.png"
1447,"E_F_Jennifer_Saunders.png","P_M_Sajid_Javid.png","FALSE","pictures/stimuli/E","pictures/stimuli/P","F","M","6","5c0d109e73986d0001785b39","07/12/2022, 08:53:14",0.882208268237096,"33","Female","right",0,0,0,0,FALSE,"E_F_Jennifer_Saunders.png P_M_Sajid_Javid.png"
1479,"E_M_Russell_Howard.png","P_F_Theresa_May.png","FALSE","pictures/stimuli/E","pictures/stimuli/P","M","F","5","5c0d109e73986d0001785b39","07/12/2022, 08:53:14",0.00918966946080272,"33","Female","right",0,1,0,0,TRUE,"E_M_Russell_Howard.png P_F_Theresa_May.png"
1575,"E_F_Dawn_Roma_French.png","P_M_keir_starmer.png","FALSE","pictures/stimuli/E","pictures/stimuli/P","F","M","4","5c0d109e73986d0001785b39","07/12/2022, 08:53:14",-0.86382892931549,"33","Female","right",0,0,0,0,FALSE,"E_F_Dawn_Roma_French.png P_M_keir_starmer.png"
2639,"E_F_Julie_Walters.png","P_M_nigel_farage.png","FALSE","pictures/stimuli/E","pictures/stimuli/P","F","M","5","5c0d109e73986d0001785b39","07/12/2022, 08:53:14",0.00918966946080272,"33","Female","right",0,0,0,0,FALSE,"E_F_Julie_Walters.png P_M_nigel_farage.png"
1455,"E_F_Dawn_Roma_French.png","E_M_Simon_Pegg.png","TRUE","pictures/stimuli/E","pictures/stimuli/E","F","M","6","5c0d109e73986d0001785b39","07/12/2022, 08:53:14",0.882208268237096,"33","Female","right",0,0,0,0,FALSE,"E_F_Dawn_Roma_French.png E_M_Simon_Pegg.png"
1319,"E_M_Jimmy_Carr.png","P_M_Gordon_Brown.png","FALSE","pictures/stimuli/E","pictures/stimuli/P","M","M","4","5c0d109e73986d0001785b39","07/12/2022, 08:53:14",-0.86382892931549,"33","Female","right",0,1,0,0,TRUE,"E_M_Jimmy_Carr.png P_M_Gordon_Brown.png"
1711,"E_M_Michael_McIntyr.png","E_M_Russell_Howard.png","TRUE","pictures/stimuli/E","pictures/stimuli/E","M","M","6","5c0d109e73986d0001785b39","07/12/2022, 08:53:14",0.882208268237096,"33","Female","right",0,0,0,0,FALSE,"E_M_Michael_McIntyr.png E_M_Russell_Howard.png"
1366,"E_M_Russell_Howard.png","P_M_Tony_Blair.png","FALSE","pictures/stimuli/E","pictures/stimuli/P","M","M","5","5c0d109e73986d0001785b39","07/12/2022, 08:53:14",0.00918966946080272,"33","Female","right",0,1,0,0,TRUE,"E_M_Russell_Howard.png P_M_Tony_Blair.png"
3134,"E_M_Ewan_McGregor.png","P_F_nicola_sturge.png","FALSE","pictures/stimuli/E","pictures/stimuli/P","M","F","6","5c0d109e73986d0001785b39","07/12/2022, 08:53:14",0.882208268237096,"33","Female","right",0,0,0,0,FALSE,"E_M_Ewan_McGregor.png P_F_nicola_sturge.png"
1343,"E_M_Jimmy_Carr.png","E_M_Simon_Pegg.png","TRUE","pictures/stimuli/E","pictures/stimuli/E","M","M","4","5c0d109e73986d0001785b39","07/12/2022, 08:53:14",-0.86382892931549,"33","Female","right",0,0,0,0,FALSE,"E_M_Jimmy_Carr.png E_M_Simon_Pegg.png"
1639,"E_M_Ewan_McGregor.png","E_M_Michael_McIntyr.png","TRUE","pictures/stimuli/E","pictures/stimuli/E","M","M","6","5c0d109e73986d0001785b39","07/12/2022, 08:53:14",0.882208268237096,"33","Female","right",0,0,0,0,FALSE,"E_M_Ewan_McGregor.png E_M_Michael_McIntyr.png"
1507,"E_M_Ewan_McGregor.png","E_M_Jimmy_Carr.png","TRUE","pictures/stimuli/E","pictures/stimuli/E","M","M","4","5c0d109e73986d0001785b39","07/12/2022, 08:53:14",-0.86382892931549,"33","Female","right",0,0,0,0,FALSE,"E_M_Ewan_McGregor.png E_M_Jimmy_Carr.png"
1686,"P_M_Gordon_Brown.png","P_M_jeremy_corbyn.png","TRUE","pictures/stimuli/P","pictures/stimuli/P","M","M","5","5c0d109e73986d0001785b39","07/12/2022, 08:53:14",0.00918966946080272,"33","Female","right",1,0,0,0,TRUE,"P_M_Gordon_Brown.png P_M_jeremy_corbyn.png"
6340,"E_M_Michael_McIntyr.png","E_M_Peter_Kay.png","TRUE","pictures/stimuli/E","pictures/stimuli/E","M","M","6","5c5603640ee758000100cb5b","07/12/2022, 13:54:11",0.520699159496419,"27","Female","right",0,0,0,0,FALSE,"E_M_Michael_McIntyr.png E_M_Peter_Kay.png"
6247,"E_F_Julie_Walters.png","P_F_Theresa_May.png","FALSE","pictures/stimuli/E","pictures/stimuli/P","F","F","3","5c5603640ee758000100cb5b","07/12/2022, 13:54:11",-2.5078571763501,"27","Female","right",0,0,0,0,FALSE,"E_F_Julie_Walters.png P_F_Theresa_May.png"
5391,"E_M_Michael_McIntyr.png","E_M_Russell_Howard.png","TRUE","pictures/stimuli/E","pictures/stimuli/E","M","M","6","5c5603640ee758000100cb5b","07/12/2022, 13:54:11",0.520699159496419,"27","Female","right",0,0,0,0,FALSE,"E_M_Michael_McIntyr.png E_M_Russell_Howard.png"
5650,"P_F_nicola_sturge.png","P_M_Gordon_Brown.png","TRUE","pictures/stimuli/P","pictures/stimuli/P","F","M","6","5c5603640ee758000100cb5b","07/12/2022, 13:54:11",0.520699159496419,"27","Female","right",0,0,0,0,FALSE,"P_F_nicola_sturge.png P_M_Gordon_Brown.png"
5272,"E_F_Jennifer_Saunders.png","P_M_nigel_farage.png","FALSE","pictures/stimuli/E","pictures/stimuli/P","F","M","3","5c5603640ee758000100cb5b","07/12/2022, 13:54:11",-2.5078571763501,"27","Female","right",0,0,0,0,FALSE,"E_F_Jennifer_Saunders.png P_M_nigel_farage.png"
3999,"P_F_nicola_sturge.png","P_M_nigel_farage.png","TRUE","pictures/stimuli/P","pictures/stimuli/P","F","M","3","5c5603640ee758000100cb5b","07/12/2022, 13:54:11",-2.5078571763501,"27","Female","right",0,0,0,0,FALSE,"P_F_nicola_sturge.png P_M_nigel_farage.png"
5876,"E_M_Jimmy_Carr.png","P_M_david_camer.png","FALSE","pictures/stimuli/E","pictures/stimuli/P","M","M","5","5c5603640ee758000100cb5b","07/12/2022, 13:54:11",-0.488819619119086,"27","Female","right",0,0,0,0,FALSE,"E_M_Jimmy_Carr.png P_M_david_camer.png"
4595,"E_F_Julie_Walters.png","E_M_Peter_Kay.png","TRUE","pictures/stimuli/E","pictures/stimuli/E","F","M","3","5c5603640ee758000100cb5b","07/12/2022, 13:54:11",-2.5078571763501,"27","Female","right",0,0,0,0,FALSE,"E_F_Julie_Walters.png E_M_Peter_Kay.png"
6194,"P_F_Theresa_May.png","P_M_Tony_Blair.png","TRUE","pictures/stimuli/P","pictures/stimuli/P","F","M","3","5c5603640ee758000100cb5b","07/12/2022, 13:54:11",-2.5078571763501,"27","Female","right",0,0,0,0,FALSE,"P_F_Theresa_May.png P_M_Tony_Blair.png"
4303,"E_F_Dawn_Roma_French.png","P_M_david_camer.png","FALSE","pictures/stimuli/E","pictures/stimuli/P","F","M","6","5c5603640ee758000100cb5b","07/12/2022, 13:54:11",0.520699159496419,"27","Female","right",0,0,0,0,FALSE,"E_F_Dawn_Roma_French.png P_M_david_camer.png"
3772,"E_F_Dawn_Roma_French.png","E_F_Sarah_Millican.png","TRUE","pictures/stimuli/E","pictures/stimuli/E","F","F","6","5c5603640ee758000100cb5b","07/12/2022, 13:54:11",0.520699159496419,"27","Female","right",0,0,0,0,FALSE,"E_F_Dawn_Roma_French.png E_F_Sarah_Millican.png"
2849,"E_F_Sarah_Millican.png","E_M_Jimmy_Carr.png","TRUE","pictures/stimuli/E","pictures/stimuli/E","F","M","6","5c5603640ee758000100cb5b","07/12/2022, 13:54:11",0.520699159496419,"27","Female","right",0,0,0,0,FALSE,"E_F_Sarah_Millican.png E_M_Jimmy_Carr.png"
15636,"E_M_Jimmy_Carr.png","P_M_Tony_Blair.png","FALSE","pictures/stimuli/E","pictures/stimuli/P","M","M","6","5c5603640ee758000100cb5b","07/12/2022, 13:54:11",0.520699159496419,"27","Female","right",0,0,0,0,FALSE,"E_M_Jimmy_Carr.png P_M_Tony_Blair.png"
2734,"E_F_Dawn_Roma_French.png","E_M_Jimmy_Carr.png","TRUE","pictures/stimuli/E","pictures/stimuli/E","F","M","6","5c5603640ee758000100cb5b","07/12/2022, 13:54:11",0.520699159496419,"27","Female","right",0,0,0,0,FALSE,"E_F_Dawn_Roma_French.png E_M_Jimmy_Carr.png"
6030,"E_M_Ewan_McGregor.png","P_M_Michael_Gove.png","FALSE","pictures/stimuli/E","pictures/stimuli/P","M","M","6","5c5603640ee758000100cb5b","07/12/2022, 13:54:11",0.520699159496419,"27","Female","right",0,0,0,0,FALSE,"E_M_Ewan_McGregor.png P_M_Michael_Gove.png"
16294,"E_M_Peter_Kay.png","P_M_keir_starmer.png","FALSE","pictures/stimuli/E","pictures/stimuli/P","M","M","3","5c5603640ee758000100cb5b","07/12/2022, 13:54:11",-2.5078571763501,"27","Female","right",0,0,0,0,FALSE,"E_M_Peter_Kay.png P_M_keir_starmer.png"
5058,"E_F_Julie_Walters.png","E_M_Ewan_McGregor.png","TRUE","pictures/stimuli/E","pictures/stimuli/E","F","M","2","5c5603640ee758000100cb5b","07/12/2022, 13:54:11",-3.5173759549656,"27","Female","right",0,0,0,0,FALSE,"E_F_Julie_Walters.png E_M_Ewan_McGregor.png"
5011,"E_M_Jimmy_Carr.png","E_M_Michael_McIntyr.png","TRUE","pictures/stimuli/E","pictures/stimuli/E","M","M","6","5c5603640ee758000100cb5b","07/12/2022, 13:54:11",0.520699159496419,"27","Female","right",0,0,0,0,FALSE,"E_M_Jimmy_Carr.png E_M_Michael_McIntyr.png"
10253,"E_M_Jimmy_Carr.png","P_M_keir_starmer.png","FALSE","pictures/stimuli/E","pictures/stimuli/P","M","M","3","5c5603640ee758000100cb5b","07/12/2022, 13:54:11",-2.5078571763501,"27","Female","right",0,0,0,0,FALSE,"E_M_Jimmy_Carr.png P_M_keir_starmer.png"
3327,"E_F_Dawn_Roma_French.png","P_M_Tony_Blair.png","FALSE","pictures/stimuli/E","pictures/stimuli/P","F","M","6","5c5603640ee758000100cb5b","07/12/2022, 13:54:11",0.520699159496419,"27","Female","right",0,0,0,0,FALSE,"E_F_Dawn_Roma_French.png P_M_Tony_Blair.png"
3078,"E_F_Dawn_Roma_French.png","P_M_Gordon_Brown.png","FALSE","pictures/stimuli/E","pictures/stimuli/P","F","M","4","5c5603640ee758000100cb5b","07/12/2022, 13:54:11",-1.49833839773459,"27","Female","right",0,0,0,0,FALSE,"E_F_Dawn_Roma_French.png P_M_Gordon_Brown.png"
3187,"E_M_Michael_McIntyr.png","P_M_Tony_Blair.png","FALSE","pictures/stimuli/E","pictures/stimuli/P","M","M","6","5c5603640ee758000100cb5b","07/12/2022, 13:54:11",0.520699159496419,"27","Female","right",0,0,0,0,FALSE,"E_M_Michael_McIntyr.png P_M_Tony_Blair.png"
5357,"E_M_Ewan_McGregor.png","E_M_Peter_Kay.png","TRUE","pictures/stimuli/E","pictures/stimuli/E","M","M","5","5c5603640ee758000100cb5b","07/12/2022, 13:54:11",-0.488819619119086,"27","Female","right",0,0,0,0,FALSE,"E_M_Ewan_McGregor.png E_M_Peter_Kay.png"
3218,"E_F_Julie_Walters.png","P_M_keir_starmer.png","FALSE","pictures/stimuli/E","pictures/stimuli/P","F","M","3","5c5603640ee758000100cb5b","07/12/2022, 13:54:11",-2.5078571763501,"27","Female","right",0,0,0,0,FALSE,"E_F_Julie_Walters.png P_M_keir_starmer.png"
4332,"E_M_Jimmy_Carr.png","P_F_nicola_sturge.png","FALSE","pictures/stimuli/E","pictures/stimuli/P","M","F","2","5c5603640ee758000100cb5b","07/12/2022, 13:54:11",-3.5173759549656,"27","Female","right",0,0,0,0,FALSE,"E_M_Jimmy_Carr.png P_F_nicola_sturge.png"
5640,"E_M_Ewan_McGregor.png","E_M_Russell_Howard.png","TRUE","pictures/stimuli/E","pictures/stimuli/E","M","M","6","5c5603640ee758000100cb5b","07/12/2022, 13:54:11",0.520699159496419,"27","Female","right",0,0,0,0,FALSE,"E_M_Ewan_McGregor.png E_M_Russell_Howard.png"
6403,"E_M_Peter_Kay.png","P_M_david_camer.png","FALSE","pictures/stimuli/E","pictures/stimuli/P","M","M","4","5c5603640ee758000100cb5b","07/12/2022, 13:54:11",-1.49833839773459,"27","Female","right",0,0,0,0,FALSE,"E_M_Peter_Kay.png P_M_david_camer.png"
4228,"E_M_Peter_Kay.png","P_F_nicola_sturge.png","FALSE","pictures/stimuli/E","pictures/stimuli/P","M","F","6","5c5603640ee758000100cb5b","07/12/2022, 13:54:11",0.520699159496419,"27","Female","right",0,0,0,0,FALSE,"E_M_Peter_Kay.png P_F_nicola_sturge.png"
2238,"E_M_Jimmy_Carr.png","P_F_Theresa_May.png","FALSE","pictures/stimuli/E","pictures/stimuli/P","M","F","6","5c5603640ee758000100cb5b","07/12/2022, 13:54:11",0.520699159496419,"27","Female","right",0,0,0,0,FALSE,"E_M_Jimmy_Carr.png P_F_Theresa_May.png"
2958,"P_M_david_camer.png","P_M_Sajid_Javid.png","TRUE","pictures/stimuli/P","pictures/stimuli/P","M","M","6","5c5603640ee758000100cb5b","07/12/2022, 13:54:11",0.520699159496419,"27","Female","right",0,0,0,0,FALSE,"P_M_david_camer.png P_M_Sajid_Javid.png"
1559,"E_M_Ewan_McGregor.png","P_M_Sajid_Javid.png","FALSE","pictures/stimuli/E","pictures/stimuli/P","M","M","6","5c5603640ee758000100cb5b","07/12/2022, 13:54:11",0.520699159496419,"27","Female","right",0,0,0,0,FALSE,"E_M_Ewan_McGregor.png P_M_Sajid_Javid.png"
2344,"P_M_david_camer.png","P_M_Gordon_Brown.png","TRUE","pictures/stimuli/P","pictures/stimuli/P","M","M","6","5c5603640ee758000100cb5b","07/12/2022, 13:54:11",0.520699159496419,"27","Female","right",0,0,0,0,FALSE,"P_M_david_camer.png P_M_Gordon_Brown.png"
3878,"E_M_Simon_Pegg.png","P_M_david_camer.png","FALSE","pictures/stimuli/E","pictures/stimuli/P","M","M","5","5c5603640ee758000100cb5b","07/12/2022, 13:54:11",-0.488819619119086,"27","Female","right",0,0,0,0,FALSE,"E_M_Simon_Pegg.png P_M_david_camer.png"
1894,"E_F_Dawn_Roma_French.png","E_F_Jennifer_Saunders.png","TRUE","pictures/stimuli/E","pictures/stimuli/E","F","F","6","5c5603640ee758000100cb5b","07/12/2022, 13:54:11",0.520699159496419,"27","Female","right",0,0,0,0,FALSE,"E_F_Dawn_Roma_French.png E_F_Jennifer_Saunders.png"
2052,"E_F_Sarah_Millican.png","P_M_Michael_Gove.png","FALSE","pictures/stimuli/E","pictures/stimuli/P","F","M","6","5c5603640ee758000100cb5b","07/12/2022, 13:54:11",0.520699159496419,"27","Female","right",0,0,0,0,FALSE,"E_F_Sarah_Millican.png P_M_Michael_Gove.png"
6699,"P_M_Michael_Gove.png","P_M_Sajid_Javid.png","TRUE","pictures/stimuli/P","pictures/stimuli/P","M","M","5","5c5603640ee758000100cb5b","07/12/2022, 13:54:11",-0.488819619119086,"27","Female","right",0,0,0,0,FALSE,"P_M_Michael_Gove.png P_M_Sajid_Javid.png"
1666,"E_M_Ewan_McGregor.png","P_M_Gordon_Brown.png","FALSE","pictures/stimuli/E","pictures/stimuli/P","M","M","6","5c5603640ee758000100cb5b","07/12/2022, 13:54:11",0.520699159496419,"27","Female","right",0,0,0,0,FALSE,"E_M_Ewan_McGregor.png P_M_Gordon_Brown.png"
3474,"E_F_Jennifer_Saunders.png","P_F_Theresa_May.png","FALSE","pictures/stimuli/E","pictures/stimuli/P","F","F","5","5c5603640ee758000100cb5b","07/12/2022, 13:54:11",-0.488819619119086,"27","Female","right",0,0,0,0,FALSE,"E_F_Jennifer_Saunders.png P_F_Theresa_May.png"
5466,"P_F_nicola_sturge.png","P_M_Sajid_Javid.png","TRUE","pictures/stimuli/P","pictures/stimuli/P","F","M","6","5c5603640ee758000100cb5b","07/12/2022, 13:54:11",0.520699159496419,"27","Female","right",0,0,0,0,FALSE,"P_F_nicola_sturge.png P_M_Sajid_Javid.png"
2297,"E_M_Michael_McIntyr.png","P_M_keir_starmer.png","FALSE","pictures/stimuli/E","pictures/stimuli/P","M","M","6","5c5603640ee758000100cb5b","07/12/2022, 13:54:11",0.520699159496419,"27","Female","right",0,0,0,0,FALSE,"E_M_Michael_McIntyr.png P_M_keir_starmer.png"
4964,"E_M_Russell_Howard.png","E_M_Simon_Pegg.png","TRUE","pictures/stimuli/E","pictures/stimuli/E","M","M","5","5c5603640ee758000100cb5b","07/12/2022, 13:54:11",-0.488819619119086,"27","Female","right",0,0,0,0,FALSE,"E_M_Russell_Howard.png E_M_Simon_Pegg.png"
4244,"E_F_Jennifer_Saunders.png","P_F_nicola_sturge.png","FALSE","pictures/stimuli/E","pictures/stimuli/P","F","F","3","5c5603640ee758000100cb5b","07/12/2022, 13:54:11",-2.5078571763501,"27","Female","right",0,0,0,0,FALSE,"E_F_Jennifer_Saunders.png P_F_nicola_sturge.png"
5029,"E_F_Julie_Walters.png","E_F_Sarah_Millican.png","TRUE","pictures/stimuli/E","pictures/stimuli/E","F","F","5","5c5603640ee758000100cb5b","07/12/2022, 13:54:11",-0.488819619119086,"27","Female","right",0,0,0,0,FALSE,"E_F_Julie_Walters.png E_F_Sarah_Millican.png"
7025,"E_M_Ewan_McGregor.png","P_M_david_camer.png","FALSE","pictures/stimuli/E","pictures/stimuli/P","M","M","3","5c5603640ee758000100cb5b","07/12/2022, 13:54:11",-2.5078571763501,"27","Female","right",0,0,0,0,FALSE,"E_M_Ewan_McGregor.png P_M_david_camer.png"
2566,"P_M_Michael_Gove.png","P_M_Tony_Blair.png","TRUE","pictures/stimuli/P","pictures/stimuli/P","M","M","6","5c5603640ee758000100cb5b","07/12/2022, 13:54:11",0.520699159496419,"27","Female","right",0,0,0,0,FALSE,"P_M_Michael_Gove.png P_M_Tony_Blair.png"
3180,"E_F_Julie_Walters.png","P_M_Sajid_Javid.png","FALSE","pictures/stimuli/E","pictures/stimuli/P","F","M","6","5c5603640ee758000100cb5b","07/12/2022, 13:54:11",0.520699159496419,"27","Female","right",0,0,0,0,FALSE,"E_F_Julie_Walters.png P_M_Sajid_Javid.png"
3734,"E_F_Sarah_Millican.png","E_M_Peter_Kay.png","TRUE","pictures/stimuli/E","pictures/stimuli/E","F","M","3","5c5603640ee758000100cb5b","07/12/2022, 13:54:11",-2.5078571763501,"27","Female","right",0,0,0,0,FALSE,"E_F_Sarah_Millican.png E_M_Peter_Kay.png"
2077,"E_F_Sarah_Millican.png","P_M_jeremy_corbyn.png","FALSE","pictures/stimuli/E","pictures/stimuli/P","F","M","6","5c5603640ee758000100cb5b","07/12/2022, 13:54:11",0.520699159496419,"27","Female","right",0,0,0,0,FALSE,"E_F_Sarah_Millican.png P_M_jeremy_corbyn.png"
2915,"E_F_Jennifer_Saunders.png","P_M_jeremy_corbyn.png","FALSE","pictures/stimuli/E","pictures/stimuli/P","F","M","6","5c5603640ee758000100cb5b","07/12/2022, 13:54:11",0.520699159496419,"27","Female","right",0,0,0,0,FALSE,"E_F_Jennifer_Saunders.png P_M_jeremy_corbyn.png"
5944,"E_F_Jennifer_Saunders.png","P_M_keir_starmer.png","FALSE","pictures/stimuli/E","pictures/stimuli/P","F","M","5","5c5603640ee758000100cb5b","07/12/2022, 13:54:11",-0.488819619119086,"27","Female","right",0,0,0,0,FALSE,"E_F_Jennifer_Saunders.png P_M_keir_starmer.png"
10197,"P_F_nicola_sturge.png","P_M_Michael_Gove.png","TRUE","pictures/stimuli/P","pictures/stimuli/P","F","M","6","5c5603640ee758000100cb5b","07/12/2022, 13:54:11",0.520699159496419,"27","Female","right",0,0,0,0,FALSE,"P_F_nicola_sturge.png P_M_Michael_Gove.png"
12432,"E_M_Simon_Pegg.png","P_M_Michael_Gove.png","FALSE","pictures/stimuli/E","pictures/stimuli/P","M","M","6","5c5603640ee758000100cb5b","07/12/2022, 13:54:11",0.520699159496419,"27","Female","right",0,0,0,0,FALSE,"E_M_Simon_Pegg.png P_M_Michael_Gove.png"
3576,"P_M_Sajid_Javid.png","P_M_Tony_Blair.png","TRUE","pictures/stimuli/P","pictures/stimuli/P","M","M","6","5c5603640ee758000100cb5b","07/12/2022, 13:54:11",0.520699159496419,"27","Female","right",0,0,0,0,FALSE,"P_M_Sajid_Javid.png P_M_Tony_Blair.png"
3133,"E_M_Ewan_McGregor.png","E_M_Simon_Pegg.png","TRUE","pictures/stimuli/E","pictures/stimuli/E","M","M","6","5c5603640ee758000100cb5b","07/12/2022, 13:54:11",0.520699159496419,"27","Female","right",0,0,0,0,FALSE,"E_M_Ewan_McGregor.png E_M_Simon_Pegg.png"
4059,"E_M_Peter_Kay.png","P_M_Gordon_Brown.png","FALSE","pictures/stimuli/E","pictures/stimuli/P","M","M","6","5c5603640ee758000100cb5b","07/12/2022, 13:54:11",0.520699159496419,"27","Female","right",0,0,0,0,FALSE,"E_M_Peter_Kay.png P_M_Gordon_Brown.png"
4323,"P_F_Theresa_May.png","P_M_nigel_farage.png","TRUE","pictures/stimuli/P","pictures/stimuli/P","F","M","5","5c5603640ee758000100cb5b","07/12/2022, 13:54:11",-0.488819619119086,"27","Female","right",0,0,0,0,FALSE,"P_F_Theresa_May.png P_M_nigel_farage.png"
7202,"E_F_Dawn_Roma_French.png","P_M_jeremy_corbyn.png","FALSE","pictures/stimuli/E","pictures/stimuli/P","F","M","6","5c5603640ee758000100cb5b","07/12/2022, 13:54:11",0.520699159496419,"27","Female","right",0,0,0,0,FALSE,"E_F_Dawn_Roma_French.png P_M_jeremy_corbyn.png"
8962,"E_F_Sarah_Millican.png","E_M_Ewan_McGregor.png","TRUE","pictures/stimuli/E","pictures/stimuli/E","F","M","6","5c5603640ee758000100cb5b","07/12/2022, 13:54:11",0.520699159496419,"27","Female","right",0,0,0,0,FALSE,"E_F_Sarah_Millican.png E_M_Ewan_McGregor.png"
1423,"E_F_Jennifer_Saunders.png","E_M_Simon_Pegg.png","TRUE","pictures/stimuli/E","pictures/stimuli/E","F","M","6","5c5603640ee758000100cb5b","07/12/2022, 13:54:11",0.520699159496419,"27","Female","right",0,0,0,0,FALSE,"E_F_Jennifer_Saunders.png E_M_Simon_Pegg.png"
2433,"P_M_Michael_Gove.png","P_M_nigel_farage.png","TRUE","pictures/stimuli/P","pictures/stimuli/P","M","M","6","5c5603640ee758000100cb5b","07/12/2022, 13:54:11",0.520699159496419,"27","Female","right",0,0,0,0,FALSE,"P_M_Michael_Gove.png P_M_nigel_farage.png"
5213,"E_F_Julie_Walters.png","P_M_Tony_Blair.png","FALSE","pictures/stimuli/E","pictures/stimuli/P","F","M","4","5c5603640ee758000100cb5b","07/12/2022, 13:54:11",-1.49833839773459,"27","Female","right",0,0,0,0,FALSE,"E_F_Julie_Walters.png P_M_Tony_Blair.png"
2698,"E_M_Jimmy_Carr.png","P_M_jeremy_corbyn.png","FALSE","pictures/stimuli/E","pictures/stimuli/P","M","M","6","5c5603640ee758000100cb5b","07/12/2022, 13:54:11",0.520699159496419,"27","Female","right",0,0,0,0,FALSE,"E_M_Jimmy_Carr.png P_M_jeremy_corbyn.png"
3009,"E_M_Simon_Pegg.png","P_M_nigel_farage.png","FALSE","pictures/stimuli/E","pictures/stimuli/P","M","M","6","5c5603640ee758000100cb5b","07/12/2022, 13:54:11",0.520699159496419,"27","Female","right",0,0,0,0,FALSE,"E_M_Simon_Pegg.png P_M_nigel_farage.png"
3855,"E_M_Russell_Howard.png","P_M_keir_starmer.png","FALSE","pictures/stimuli/E","pictures/stimuli/P","M","M","4","5c5603640ee758000100cb5b","07/12/2022, 13:54:11",-1.49833839773459,"27","Female","right",0,0,0,0,FALSE,"E_M_Russell_Howard.png P_M_keir_starmer.png"
3109,"E_F_Julie_Walters.png","P_M_david_camer.png","FALSE","pictures/stimuli/E","pictures/stimuli/P","F","M","6","5c5603640ee758000100cb5b","07/12/2022, 13:54:11",0.520699159496419,"27","Female","right",0,0,0,0,FALSE,"E_F_Julie_Walters.png P_M_david_camer.png"
1990,"E_M_Russell_Howard.png","P_F_nicola_sturge.png","FALSE","pictures/stimuli/E","pictures/stimuli/P","M","F","6","5c5603640ee758000100cb5b","07/12/2022, 13:54:11",0.520699159496419,"27","Female","right",0,0,0,0,FALSE,"E_M_Russell_Howard.png P_F_nicola_sturge.png"
10099,"E_F_Jennifer_Saunders.png","E_M_Ewan_McGregor.png","TRUE","pictures/stimuli/E","pictures/stimuli/E","F","M","5","5c5603640ee758000100cb5b","07/12/2022, 13:54:11",-0.488819619119086,"27","Female","right",0,0,0,0,FALSE,"E_F_Jennifer_Saunders.png E_M_Ewan_McGregor.png"
1809,"E_M_Michael_McIntyr.png","E_M_Simon_Pegg.png","TRUE","pictures/stimuli/E","pictures/stimuli/E","M","M","6","5c5603640ee758000100cb5b","07/12/2022, 13:54:11",0.520699159496419,"27","Female","right",0,0,0,0,FALSE,"E_M_Michael_McIntyr.png E_M_Simon_Pegg.png"
2591,"E_M_Simon_Pegg.png","P_M_Sajid_Javid.png","FALSE","pictures/stimuli/E","pictures/stimuli/P","M","M","6","5c5603640ee758000100cb5b","07/12/2022, 13:54:11",0.520699159496419,"27","Female","right",0,0,0,0,FALSE,"E_M_Simon_Pegg.png P_M_Sajid_Javid.png"
4231,"E_F_Dawn_Roma_French.png","P_M_keir_starmer.png","FALSE","pictures/stimuli/E","pictures/stimuli/P","F","M","5","5c5603640ee758000100cb5b","07/12/2022, 13:54:11",-0.488819619119086,"27","Female","right",0,0,0,0,FALSE,"E_F_Dawn_Roma_French.png P_M_keir_starmer.png"
1847,"E_F_Dawn_Roma_French.png","E_F_Julie_Walters.png","TRUE","pictures/stimuli/E","pictures/stimuli/E","F","F","6","5c5603640ee758000100cb5b","07/12/2022, 13:54:11",0.520699159496419,"27","Female","right",0,0,0,0,FALSE,"E_F_Dawn_Roma_French.png E_F_Julie_Walters.png"
10645,"E_M_Russell_Howard.png","P_M_jeremy_corbyn.png","FALSE","pictures/stimuli/E","pictures/stimuli/P","M","M","6","5c5603640ee758000100cb5b","07/12/2022, 13:54:11",0.520699159496419,"27","Female","right",0,0,0,0,FALSE,"E_M_Russell_Howard.png P_M_jeremy_corbyn.png"
73028,"E_M_Ewan_McGregor.png","P_M_jeremy_corbyn.png","FALSE","pictures/stimuli/E","pictures/stimuli/P","M","M","6","5c5603640ee758000100cb5b","07/12/2022, 13:54:11",0.520699159496419,"27","Female","right",0,0,0,0,TRUE,"E_M_Ewan_McGregor.png P_M_jeremy_corbyn.png"
7448,"P_M_nigel_farage.png","P_M_Sajid_Javid.png","TRUE","pictures/stimuli/P","pictures/stimuli/P","M","M","6","5c5603640ee758000100cb5b","07/12/2022, 13:54:11",0.520699159496419,"27","Female","right",0,0,0,0,FALSE,"P_M_nigel_farage.png P_M_Sajid_Javid.png"
3326,"E_F_Sarah_Millican.png","P_M_Gordon_Brown.png","FALSE","pictures/stimuli/E","pictures/stimuli/P","F","M","6","5c5603640ee758000100cb5b","07/12/2022, 13:54:11",0.520699159496419,"27","Female","right",0,0,0,0,FALSE,"E_F_Sarah_Millican.png P_M_Gordon_Brown.png"
3256,"E_F_Dawn_Roma_French.png","P_F_nicola_sturge.png","FALSE","pictures/stimuli/E","pictures/stimuli/P","F","F","6","5c5603640ee758000100cb5b","07/12/2022, 13:54:11",0.520699159496419,"27","Female","right",0,0,0,0,FALSE,"E_F_Dawn_Roma_French.png P_F_nicola_sturge.png"
5315,"E_F_Jennifer_Saunders.png","E_F_Sarah_Millican.png","TRUE","pictures/stimuli/E","pictures/stimuli/E","F","F","6","5c5603640ee758000100cb5b","07/12/2022, 13:54:11",0.520699159496419,"27","Female","right",0,0,0,0,FALSE,"E_F_Jennifer_Saunders.png E_F_Sarah_Millican.png"
5919,"E_F_Sarah_Millican.png","P_F_Theresa_May.png","FALSE","pictures/stimuli/E","pictures/stimuli/P","F","F","6","5c5603640ee758000100cb5b","07/12/2022, 13:54:11",0.520699159496419,"27","Female","right",0,0,0,0,FALSE,"E_F_Sarah_Millican.png P_F_Theresa_May.png"
41209,"E_M_Russell_Howard.png","P_M_Sajid_Javid.png","FALSE","pictures/stimuli/E","pictures/stimuli/P","M","M","6","5c5603640ee758000100cb5b","07/12/2022, 13:54:11",0.520699159496419,"27","Female","right",0,0,0,0,TRUE,"E_M_Russell_Howard.png P_M_Sajid_Javid.png"
11641,"E_F_Jennifer_Saunders.png","P_M_Gordon_Brown.png","FALSE","pictures/stimuli/E","pictures/stimuli/P","F","M","6","5c5603640ee758000100cb5b","07/12/2022, 13:54:11",0.520699159496419,"27","Female","right",0,0,0,0,FALSE,"E_F_Jennifer_Saunders.png P_M_Gordon_Brown.png"
8111,"P_M_david_camer.png","P_M_Michael_Gove.png","TRUE","pictures/stimuli/P","pictures/stimuli/P","M","M","5","5c5603640ee758000100cb5b","07/12/2022, 13:54:11",-0.488819619119086,"27","Female","right",0,0,0,0,FALSE,"P_M_david_camer.png P_M_Michael_Gove.png"
5886,"E_F_Dawn_Roma_French.png","P_M_Sajid_Javid.png","FALSE","pictures/stimuli/E","pictures/stimuli/P","F","M","6","5c5603640ee758000100cb5b","07/12/2022, 13:54:11",0.520699159496419,"27","Female","right",0,0,0,0,FALSE,"E_F_Dawn_Roma_French.png P_M_Sajid_Javid.png"
4765,"P_M_Gordon_Brown.png","P_M_nigel_farage.png","TRUE","pictures/stimuli/P","pictures/stimuli/P","M","M","6","5c5603640ee758000100cb5b","07/12/2022, 13:54:11",0.520699159496419,"27","Female","right",0,0,0,0,FALSE,"P_M_Gordon_Brown.png P_M_nigel_farage.png"
2901,"P_M_jeremy_corbyn.png","P_M_Sajid_Javid.png","TRUE","pictures/stimuli/P","pictures/stimuli/P","M","M","6","5c5603640ee758000100cb5b","07/12/2022, 13:54:11",0.520699159496419,"27","Female","right",0,0,0,0,FALSE,"P_M_jeremy_corbyn.png P_M_Sajid_Javid.png"
2538,"P_M_keir_starmer.png","P_M_Sajid_Javid.png","TRUE","pictures/stimuli/P","pictures/stimuli/P","M","M","6","5c5603640ee758000100cb5b","07/12/2022, 13:54:11",0.520699159496419,"27","Female","right",0,0,0,0,FALSE,"P_M_keir_starmer.png P_M_Sajid_Javid.png"
2413,"E_M_Michael_McIntyr.png","P_F_nicola_sturge.png","FALSE","pictures/stimuli/E","pictures/stimuli/P","M","F","6","5c5603640ee758000100cb5b","07/12/2022, 13:54:11",0.520699159496419,"27","Female","right",0,0,0,0,FALSE,"E_M_Michael_McIntyr.png P_F_nicola_sturge.png"
4554,"E_F_Dawn_Roma_French.png","E_M_Peter_Kay.png","TRUE","pictures/stimuli/E","pictures/stimuli/E","F","M","4","5c5603640ee758000100cb5b","07/12/2022, 13:54:11",-1.49833839773459,"27","Female","right",0,0,0,0,FALSE,"E_F_Dawn_Roma_French.png E_M_Peter_Kay.png"
3635,"E_M_Russell_Howard.png","P_M_Michael_Gove.png","FALSE","pictures/stimuli/E","pictures/stimuli/P","M","M","6","5c5603640ee758000100cb5b","07/12/2022, 13:54:11",0.520699159496419,"27","Female","right",0,0,0,0,FALSE,"E_M_Russell_Howard.png P_M_Michael_Gove.png"
3931,"E_F_Jennifer_Saunders.png","P_M_Michael_Gove.png","FALSE","pictures/stimuli/E","pictures/stimuli/P","F","M","6","5c5603640ee758000100cb5b","07/12/2022, 13:54:11",0.520699159496419,"27","Female","right",0,0,0,0,FALSE,"E_F_Jennifer_Saunders.png P_M_Michael_Gove.png"
5348,"E_F_Julie_Walters.png","E_M_Jimmy_Carr.png","TRUE","pictures/stimuli/E","pictures/stimuli/E","F","M","6","5c5603640ee758000100cb5b","07/12/2022, 13:54:11",0.520699159496419,"27","Female","right",0,0,0,0,FALSE,"E_F_Julie_Walters.png E_M_Jimmy_Carr.png"
3572,"E_M_Jimmy_Carr.png","E_M_Peter_Kay.png","TRUE","pictures/stimuli/E","pictures/stimuli/E","M","M","6","5c5603640ee758000100cb5b","07/12/2022, 13:54:11",0.520699159496419,"27","Female","right",0,0,0,0,FALSE,"E_M_Jimmy_Carr.png E_M_Peter_Kay.png"
1820,"P_F_nicola_sturge.png","P_M_jeremy_corbyn.png","TRUE","pictures/stimuli/P","pictures/stimuli/P","F","M","6","5c5603640ee758000100cb5b","07/12/2022, 13:54:11",0.520699159496419,"27","Female","right",0,0,0,0,FALSE,"P_F_nicola_sturge.png P_M_jeremy_corbyn.png"
1543,"E_M_Michael_McIntyr.png","P_F_Theresa_May.png","FALSE","pictures/stimuli/E","pictures/stimuli/P","M","F","6","5c5603640ee758000100cb5b","07/12/2022, 13:54:11",0.520699159496419,"27","Female","right",0,0,0,0,FALSE,"E_M_Michael_McIntyr.png P_F_Theresa_May.png"
7863,"E_F_Dawn_Roma_French.png","P_M_Michael_Gove.png","FALSE","pictures/stimuli/E","pictures/stimuli/P","F","M","6","5c5603640ee758000100cb5b","07/12/2022, 13:54:11",0.520699159496419,"27","Female","right",0,0,0,0,FALSE,"E_F_Dawn_Roma_French.png P_M_Michael_Gove.png"
2397,"E_F_Dawn_Roma_French.png","E_M_Ewan_McGregor.png","TRUE","pictures/stimuli/E","pictures/stimuli/E","F","M","6","5c5603640ee758000100cb5b","07/12/2022, 13:54:11",0.520699159496419,"27","Female","right",0,0,0,0,FALSE,"E_F_Dawn_Roma_French.png E_M_Ewan_McGregor.png"
3598,"E_M_Simon_Pegg.png","P_M_jeremy_corbyn.png","FALSE","pictures/stimuli/E","pictures/stimuli/P","M","M","4","5c5603640ee758000100cb5b","07/12/2022, 13:54:11",-1.49833839773459,"27","Female","right",0,0,0,0,FALSE,"E_M_Simon_Pegg.png P_M_jeremy_corbyn.png"
2735,"E_F_Jennifer_Saunders.png","P_M_Sajid_Javid.png","FALSE","pictures/stimuli/E","pictures/stimuli/P","F","M","6","5c5603640ee758000100cb5b","07/12/2022, 13:54:11",0.520699159496419,"27","Female","right",0,0,0,0,FALSE,"E_F_Jennifer_Saunders.png P_M_Sajid_Javid.png"
2709,"E_M_Ewan_McGregor.png","P_F_nicola_sturge.png","FALSE","pictures/stimuli/E","pictures/stimuli/P","M","F","5","5c5603640ee758000100cb5b","07/12/2022, 13:54:11",-0.488819619119086,"27","Female","right",0,0,0,0,FALSE,"E_M_Ewan_McGregor.png P_F_nicola_sturge.png"
3845,"P_F_Theresa_May.png","P_M_Michael_Gove.png","TRUE","pictures/stimuli/P","pictures/stimuli/P","F","M","5","5c5603640ee758000100cb5b","07/12/2022, 13:54:11",-0.488819619119086,"27","Female","right",0,0,0,0,FALSE,"P_F_Theresa_May.png P_M_Michael_Gove.png"
3113,"E_M_Michael_McIntyr.png","P_M_nigel_farage.png","FALSE","pictures/stimuli/E","pictures/stimuli/P","M","M","5","5c5603640ee758000100cb5b","07/12/2022, 13:54:11",-0.488819619119086,"27","Female","right",0,0,0,0,FALSE,"E_M_Michael_McIntyr.png P_M_nigel_farage.png"
1801,"P_M_Gordon_Brown.png","P_M_Sajid_Javid.png","TRUE","pictures/stimuli/P","pictures/stimuli/P","M","M","6","5c5603640ee758000100cb5b","07/12/2022, 13:54:11",0.520699159496419,"27","Female","right",0,0,0,0,FALSE,"P_M_Gordon_Brown.png P_M_Sajid_Javid.png"
2249,"E_M_Peter_Kay.png","P_M_Michael_Gove.png","FALSE","pictures/stimuli/E","pictures/stimuli/P","M","M","6","5c5603640ee758000100cb5b","07/12/2022, 13:54:11",0.520699159496419,"27","Female","right",0,0,0,0,FALSE,"E_M_Peter_Kay.png P_M_Michael_Gove.png"
2584,"E_M_Russell_Howard.png","P_M_david_camer.png","FALSE","pictures/stimuli/E","pictures/stimuli/P","M","M","6","5c5603640ee758000100cb5b","07/12/2022, 13:54:11",0.520699159496419,"27","Female","right",0,0,0,0,FALSE,"E_M_Russell_Howard.png P_M_david_camer.png"
3696,"E_M_Ewan_McGregor.png","P_M_Tony_Blair.png","FALSE","pictures/stimuli/E","pictures/stimuli/P","M","M","4","5c5603640ee758000100cb5b","07/12/2022, 13:54:11",-1.49833839773459,"27","Female","right",0,0,0,0,FALSE,"E_M_Ewan_McGregor.png P_M_Tony_Blair.png"
2829,"E_M_Jimmy_Carr.png","E_M_Simon_Pegg.png","TRUE","pictures/stimuli/E","pictures/stimuli/E","M","M","6","5c5603640ee758000100cb5b","07/12/2022, 13:54:11",0.520699159496419,"27","Female","right",0,0,0,0,FALSE,"E_M_Jimmy_Carr.png E_M_Simon_Pegg.png"
2484,"P_F_Theresa_May.png","P_M_Gordon_Brown.png","TRUE","pictures/stimuli/P","pictures/stimuli/P","F","M","4","5c5603640ee758000100cb5b","07/12/2022, 13:54:11",-1.49833839773459,"27","Female","right",0,0,0,0,FALSE,"P_F_Theresa_May.png P_M_Gordon_Brown.png"
1259,"E_M_Simon_Pegg.png","P_F_Theresa_May.png","FALSE","pictures/stimuli/E","pictures/stimuli/P","M","F","6","5c5603640ee758000100cb5b","07/12/2022, 13:54:11",0.520699159496419,"27","Female","right",0,0,0,0,FALSE,"E_M_Simon_Pegg.png P_F_Theresa_May.png"
1837,"E_M_Michael_McIntyr.png","P_M_Gordon_Brown.png","FALSE","pictures/stimuli/E","pictures/stimuli/P","M","M","6","5c5603640ee758000100cb5b","07/12/2022, 13:54:11",0.520699159496419,"27","Female","right",0,0,0,0,FALSE,"E_M_Michael_McIntyr.png P_M_Gordon_Brown.png"
6914,"E_M_Peter_Kay.png","P_M_Tony_Blair.png","FALSE","pictures/stimuli/E","pictures/stimuli/P","M","M","6","5c5603640ee758000100cb5b","07/12/2022, 13:54:11",0.520699159496419,"27","Female","right",0,0,0,0,FALSE,"E_M_Peter_Kay.png P_M_Tony_Blair.png"
6162,"P_M_Gordon_Brown.png","P_M_Tony_Blair.png","TRUE","pictures/stimuli/P","pictures/stimuli/P","M","M","6","5c5603640ee758000100cb5b","07/12/2022, 13:54:11",0.520699159496419,"27","Female","right",0,0,0,0,FALSE,"P_M_Gordon_Brown.png P_M_Tony_Blair.png"
1973,"E_F_Sarah_Millican.png","P_M_keir_starmer.png","FALSE","pictures/stimuli/E","pictures/stimuli/P","F","M","6","5c5603640ee758000100cb5b","07/12/2022, 13:54:11",0.520699159496419,"27","Female","right",0,0,0,0,FALSE,"E_F_Sarah_Millican.png P_M_keir_starmer.png"
1612,"E_F_Sarah_Millican.png","P_M_Sajid_Javid.png","FALSE","pictures/stimuli/E","pictures/stimuli/P","F","M","6","5c5603640ee758000100cb5b","07/12/2022, 13:54:11",0.520699159496419,"27","Female","right",0,0,0,0,FALSE,"E_F_Sarah_Millican.png P_M_Sajid_Javid.png"
1297,"P_M_david_camer.png","P_M_jeremy_corbyn.png","TRUE","pictures/stimuli/P","pictures/stimuli/P","M","M","6","5c5603640ee758000100cb5b","07/12/2022, 13:54:11",0.520699159496419,"27","Female","right",0,0,0,0,FALSE,"P_M_david_camer.png P_M_jeremy_corbyn.png"
2150,"E_F_Dawn_Roma_French.png","P_F_Theresa_May.png","FALSE","pictures/stimuli/E","pictures/stimuli/P","F","F","6","5c5603640ee758000100cb5b","07/12/2022, 13:54:11",0.520699159496419,"27","Female","right",0,0,0,0,FALSE,"E_F_Dawn_Roma_French.png P_F_Theresa_May.png"
3676,"P_M_keir_starmer.png","P_M_Tony_Blair.png","TRUE","pictures/stimuli/P","pictures/stimuli/P","M","M","6","5c5603640ee758000100cb5b","07/12/2022, 13:54:11",0.520699159496419,"27","Female","right",0,0,0,0,FALSE,"P_M_keir_starmer.png P_M_Tony_Blair.png"
1748,"E_M_Peter_Kay.png","P_M_Sajid_Javid.png","FALSE","pictures/stimuli/E","pictures/stimuli/P","M","M","6","5c5603640ee758000100cb5b","07/12/2022, 13:54:11",0.520699159496419,"27","Female","right",0,0,0,0,FALSE,"E_M_Peter_Kay.png P_M_Sajid_Javid.png"
1457,"E_F_Jennifer_Saunders.png","E_M_Jimmy_Carr.png","TRUE","pictures/stimuli/E","pictures/stimuli/E","F","M","6","5c5603640ee758000100cb5b","07/12/2022, 13:54:11",0.520699159496419,"27","Female","right",0,0,0,0,FALSE,"E_F_Jennifer_Saunders.png E_M_Jimmy_Carr.png"
3272,"E_F_Dawn_Roma_French.png","E_M_Michael_McIntyr.png","TRUE","pictures/stimuli/E","pictures/stimuli/E","F","M","3","5c5603640ee758000100cb5b","07/12/2022, 13:54:11",-2.5078571763501,"27","Female","right",0,0,0,0,FALSE,"E_F_Dawn_Roma_French.png E_M_Michael_McIntyr.png"
2301,"E_M_Ewan_McGregor.png","E_M_Jimmy_Carr.png","TRUE","pictures/stimuli/E","pictures/stimuli/E","M","M","6","5c5603640ee758000100cb5b","07/12/2022, 13:54:11",0.520699159496419,"27","Female","right",0,0,0,0,FALSE,"E_M_Ewan_McGregor.png E_M_Jimmy_Carr.png"
2472,"E_F_Sarah_Millican.png","P_M_Tony_Blair.png","FALSE","pictures/stimuli/E","pictures/stimuli/P","F","M","6","5c5603640ee758000100cb5b","07/12/2022, 13:54:11",0.520699159496419,"27","Female","right",0,0,0,0,FALSE,"E_F_Sarah_Millican.png P_M_Tony_Blair.png"
2179,"E_F_Jennifer_Saunders.png","E_F_Julie_Walters.png","TRUE","pictures/stimuli/E","pictures/stimuli/E","F","F","3","5c5603640ee758000100cb5b","07/12/2022, 13:54:11",-2.5078571763501,"27","Female","right",0,0,0,0,FALSE,"E_F_Jennifer_Saunders.png E_F_Julie_Walters.png"
2545,"E_M_Russell_Howard.png","P_M_nigel_farage.png","FALSE","pictures/stimuli/E","pictures/stimuli/P","M","M","6","5c5603640ee758000100cb5b","07/12/2022, 13:54:11",0.520699159496419,"27","Female","right",0,0,0,0,FALSE,"E_M_Russell_Howard.png P_M_nigel_farage.png"
1696,"E_F_Julie_Walters.png","E_M_Michael_McIntyr.png","TRUE","pictures/stimuli/E","pictures/stimuli/E","F","M","6","5c5603640ee758000100cb5b","07/12/2022, 13:54:11",0.520699159496419,"27","Female","right",0,0,0,0,FALSE,"E_F_Julie_Walters.png E_M_Michael_McIntyr.png"
2189,"E_M_Jimmy_Carr.png","P_M_nigel_farage.png","FALSE","pictures/stimuli/E","pictures/stimuli/P","M","M","6","5c5603640ee758000100cb5b","07/12/2022, 13:54:11",0.520699159496419,"27","Female","right",0,0,0,0,FALSE,"E_M_Jimmy_Carr.png P_M_nigel_farage.png"
1553,"E_F_Dawn_Roma_French.png","P_M_nigel_farage.png","FALSE","pictures/stimuli/E","pictures/stimuli/P","F","M","6","5c5603640ee758000100cb5b","07/12/2022, 13:54:11",0.520699159496419,"27","Female","right",0,0,0,0,FALSE,"E_F_Dawn_Roma_French.png P_M_nigel_farage.png"
3457,"E_F_Sarah_Millican.png","E_M_Russell_Howard.png","TRUE","pictures/stimuli/E","pictures/stimuli/E","F","M","5","5c5603640ee758000100cb5b","07/12/2022, 13:54:11",-0.488819619119086,"27","Female","right",0,0,0,0,FALSE,"E_F_Sarah_Millican.png E_M_Russell_Howard.png"
1568,"E_M_Ewan_McGregor.png","E_M_Michael_McIntyr.png","TRUE","pictures/stimuli/E","pictures/stimuli/E","M","M","6","5c5603640ee758000100cb5b","07/12/2022, 13:54:11",0.520699159496419,"27","Female","right",0,0,0,0,FALSE,"E_M_Ewan_McGregor.png E_M_Michael_McIntyr.png"
1855,"E_M_Jimmy_Carr.png","P_M_Michael_Gove.png","FALSE","pictures/stimuli/E","pictures/stimuli/P","M","M","6","5c5603640ee758000100cb5b","07/12/2022, 13:54:11",0.520699159496419,"27","Female","right",0,0,0,0,FALSE,"E_M_Jimmy_Carr.png P_M_Michael_Gove.png"
4432,"E_F_Julie_Walters.png","E_M_Simon_Pegg.png","TRUE","pictures/stimuli/E","pictures/stimuli/E","F","M","6","5c5603640ee758000100cb5b","07/12/2022, 13:54:11",0.520699159496419,"27","Female","right",0,0,0,0,FALSE,"E_F_Julie_Walters.png E_M_Simon_Pegg.png"
5104,"E_F_Julie_Walters.png","P_M_jeremy_corbyn.png","FALSE","pictures/stimuli/E","pictures/stimuli/P","F","M","6","5c5603640ee758000100cb5b","07/12/2022, 13:54:11",0.520699159496419,"27","Female","right",0,0,0,0,FALSE,"E_F_Julie_Walters.png P_M_jeremy_corbyn.png"
1230,"P_F_Theresa_May.png","P_M_Sajid_Javid.png","TRUE","pictures/stimuli/P","pictures/stimuli/P","F","M","6","5c5603640ee758000100cb5b","07/12/2022, 13:54:11",0.520699159496419,"27","Female","right",0,0,0,0,FALSE,"P_F_Theresa_May.png P_M_Sajid_Javid.png"
12820,"E_F_Julie_Walters.png","P_F_nicola_sturge.png","FALSE","pictures/stimuli/E","pictures/stimuli/P","F","F","3","5c5603640ee758000100cb5b","07/12/2022, 13:54:11",-2.5078571763501,"27","Female","right",0,0,0,0,FALSE,"E_F_Julie_Walters.png P_F_nicola_sturge.png"
1628,"E_F_Sarah_Millican.png","E_M_Michael_McIntyr.png","TRUE","pictures/stimuli/E","pictures/stimuli/E","F","M","6","5c5603640ee758000100cb5b","07/12/2022, 13:54:11",0.520699159496419,"27","Female","right",0,0,0,0,FALSE,"E_F_Sarah_Millican.png E_M_Michael_McIntyr.png"
2049,"P_F_nicola_sturge.png","P_M_keir_starmer.png","TRUE","pictures/stimuli/P","pictures/stimuli/P","F","M","6","5c5603640ee758000100cb5b","07/12/2022, 13:54:11",0.520699159496419,"27","Female","right",0,0,0,0,FALSE,"P_F_nicola_sturge.png P_M_keir_starmer.png"
1767,"E_M_Simon_Pegg.png","P_M_Tony_Blair.png","FALSE","pictures/stimuli/E","pictures/stimuli/P","M","M","6","5c5603640ee758000100cb5b","07/12/2022, 13:54:11",0.520699159496419,"27","Female","right",0,0,0,0,FALSE,"E_M_Simon_Pegg.png P_M_Tony_Blair.png"
2197,"E_F_Julie_Walters.png","P_M_Gordon_Brown.png","FALSE","pictures/stimuli/E","pictures/stimuli/P","F","M","6","5c5603640ee758000100cb5b","07/12/2022, 13:54:11",0.520699159496419,"27","Female","right",0,0,0,0,FALSE,"E_F_Julie_Walters.png P_M_Gordon_Brown.png"
1594,"E_M_Michael_McIntyr.png","P_M_Sajid_Javid.png","FALSE","pictures/stimuli/E","pictures/stimuli/P","M","M","6","5c5603640ee758000100cb5b","07/12/2022, 13:54:11",0.520699159496419,"27","Female","right",0,0,0,0,FALSE,"E_M_Michael_McIntyr.png P_M_Sajid_Javid.png"
2431,"P_M_keir_starmer.png","P_M_Michael_Gove.png","TRUE","pictures/stimuli/P","pictures/stimuli/P","M","M","6","5c5603640ee758000100cb5b","07/12/2022, 13:54:11",0.520699159496419,"27","Female","right",0,0,0,0,FALSE,"P_M_keir_starmer.png P_M_Michael_Gove.png"
2132,"P_M_jeremy_corbyn.png","P_M_keir_starmer.png","TRUE","pictures/stimuli/P","pictures/stimuli/P","M","M","6","5c5603640ee758000100cb5b","07/12/2022, 13:54:11",0.520699159496419,"27","Female","right",0,0,0,0,FALSE,"P_M_jeremy_corbyn.png P_M_keir_starmer.png"
1070,"E_M_Jimmy_Carr.png","P_M_Sajid_Javid.png","FALSE","pictures/stimuli/E","pictures/stimuli/P","M","M","6","5c5603640ee758000100cb5b","07/12/2022, 13:54:11",0.520699159496419,"27","Female","right",0,0,0,0,FALSE,"E_M_Jimmy_Carr.png P_M_Sajid_Javid.png"
1731,"P_M_Gordon_Brown.png","P_M_Michael_Gove.png","TRUE","pictures/stimuli/P","pictures/stimuli/P","M","M","6","5c5603640ee758000100cb5b","07/12/2022, 13:54:11",0.520699159496419,"27","Female","right",0,0,0,0,FALSE,"P_M_Gordon_Brown.png P_M_Michael_Gove.png"
7490,"E_M_Jimmy_Carr.png","E_M_Russell_Howard.png","TRUE","pictures/stimuli/E","pictures/stimuli/E","M","M","6","5c5603640ee758000100cb5b","07/12/2022, 13:54:11",0.520699159496419,"27","Female","right",0,0,0,0,FALSE,"E_M_Jimmy_Carr.png E_M_Russell_Howard.png"
2744,"E_M_Ewan_McGregor.png","P_F_Theresa_May.png","FALSE","pictures/stimuli/E","pictures/stimuli/P","M","F","4","5c5603640ee758000100cb5b","07/12/2022, 13:54:11",-1.49833839773459,"27","Female","right",0,0,0,0,FALSE,"E_M_Ewan_McGregor.png P_F_Theresa_May.png"
1580,"P_M_keir_starmer.png","P_M_nigel_farage.png","TRUE","pictures/stimuli/P","pictures/stimuli/P","M","M","6","5c5603640ee758000100cb5b","07/12/2022, 13:54:11",0.520699159496419,"27","Female","right",0,0,0,0,FALSE,"P_M_keir_starmer.png P_M_nigel_farage.png"
2440,"E_M_Peter_Kay.png","P_M_jeremy_corbyn.png","FALSE","pictures/stimuli/E","pictures/stimuli/P","M","M","6","5c5603640ee758000100cb5b","07/12/2022, 13:54:11",0.520699159496419,"27","Female","right",0,0,0,0,FALSE,"E_M_Peter_Kay.png P_M_jeremy_corbyn.png"
1410,"E_F_Sarah_Millican.png","E_M_Simon_Pegg.png","TRUE","pictures/stimuli/E","pictures/stimuli/E","F","M","6","5c5603640ee758000100cb5b","07/12/2022, 13:54:11",0.520699159496419,"27","Female","right",0,0,0,0,FALSE,"E_F_Sarah_Millican.png E_M_Simon_Pegg.png"
2885,"P_M_david_camer.png","P_M_Tony_Blair.png","TRUE","pictures/stimuli/P","pictures/stimuli/P","M","M","3","5c5603640ee758000100cb5b","07/12/2022, 13:54:11",-2.5078571763501,"27","Female","right",0,0,0,0,FALSE,"P_M_david_camer.png P_M_Tony_Blair.png"
1575,"E_M_Russell_Howard.png","P_M_Tony_Blair.png","FALSE","pictures/stimuli/E","pictures/stimuli/P","M","M","6","5c5603640ee758000100cb5b","07/12/2022, 13:54:11",0.520699159496419,"27","Female","right",0,0,0,0,FALSE,"E_M_Russell_Howard.png P_M_Tony_Blair.png"
10235,"P_M_Gordon_Brown.png","P_M_keir_starmer.png","TRUE","pictures/stimuli/P","pictures/stimuli/P","M","M","6","5c5603640ee758000100cb5b","07/12/2022, 13:54:11",0.520699159496419,"27","Female","right",0,0,0,0,FALSE,"P_M_Gordon_Brown.png P_M_keir_starmer.png"
2203,"P_F_Theresa_May.png","P_M_david_camer.png","TRUE","pictures/stimuli/P","pictures/stimuli/P","F","M","6","5c5603640ee758000100cb5b","07/12/2022, 13:54:11",0.520699159496419,"27","Female","right",0,0,0,0,FALSE,"P_F_Theresa_May.png P_M_david_camer.png"
1081,"E_M_Michael_McIntyr.png","P_M_david_camer.png","FALSE","pictures/stimuli/E","pictures/stimuli/P","M","M","6","5c5603640ee758000100cb5b","07/12/2022, 13:54:11",0.520699159496419,"27","Female","right",0,0,0,0,FALSE,"E_M_Michael_McIntyr.png P_M_david_camer.png"
5090,"P_F_Theresa_May.png","P_M_jeremy_corbyn.png","TRUE","pictures/stimuli/P","pictures/stimuli/P","F","M","4","5c5603640ee758000100cb5b","07/12/2022, 13:54:11",-1.49833839773459,"27","Female","right",0,0,0,0,FALSE,"P_F_Theresa_May.png P_M_jeremy_corbyn.png"
3525,"P_F_nicola_sturge.png","P_F_Theresa_May.png","TRUE","pictures/stimuli/P","pictures/stimuli/P","F","F","5","5c5603640ee758000100cb5b","07/12/2022, 13:54:11",-0.488819619119086,"27","Female","right",0,0,0,0,FALSE,"P_F_nicola_sturge.png P_F_Theresa_May.png"
1303,"E_F_Dawn_Roma_French.png","E_M_Russell_Howard.png","TRUE","pictures/stimuli/E","pictures/stimuli/E","F","M","6","5c5603640ee758000100cb5b","07/12/2022, 13:54:11",0.520699159496419,"27","Female","right",0,0,0,0,FALSE,"E_F_Dawn_Roma_French.png E_M_Russell_Howard.png"
2720,"E_M_Russell_Howard.png","P_M_Gordon_Brown.png","FALSE","pictures/stimuli/E","pictures/stimuli/P","M","M","4","5c5603640ee758000100cb5b","07/12/2022, 13:54:11",-1.49833839773459,"27","Female","right",0,0,0,0,FALSE,"E_M_Russell_Howard.png P_M_Gordon_Brown.png"
3852,"E_M_Simon_Pegg.png","P_M_keir_starmer.png","FALSE","pictures/stimuli/E","pictures/stimuli/P","M","M","6","5c5603640ee758000100cb5b","07/12/2022, 13:54:11",0.520699159496419,"27","Female","right",0,0,0,0,FALSE,"E_M_Simon_Pegg.png P_M_keir_starmer.png"
2062,"E_M_Peter_Kay.png","E_M_Simon_Pegg.png","TRUE","pictures/stimuli/E","pictures/stimuli/E","M","M","6","5c5603640ee758000100cb5b","07/12/2022, 13:54:11",0.520699159496419,"27","Female","right",0,0,0,0,FALSE,"E_M_Peter_Kay.png E_M_Simon_Pegg.png"
2487,"P_M_jeremy_corbyn.png","P_M_Tony_Blair.png","TRUE","pictures/stimuli/P","pictures/stimuli/P","M","M","6","5c5603640ee758000100cb5b","07/12/2022, 13:54:11",0.520699159496419,"27","Female","right",0,0,0,0,FALSE,"P_M_jeremy_corbyn.png P_M_Tony_Blair.png"
1619,"E_F_Jennifer_Saunders.png","E_M_Peter_Kay.png","TRUE","pictures/stimuli/E","pictures/stimuli/E","F","M","6","5c5603640ee758000100cb5b","07/12/2022, 13:54:11",0.520699159496419,"27","Female","right",0,0,0,0,FALSE,"E_F_Jennifer_Saunders.png E_M_Peter_Kay.png"
1438,"P_M_jeremy_corbyn.png","P_M_Michael_Gove.png","TRUE","pictures/stimuli/P","pictures/stimuli/P","M","M","6","5c5603640ee758000100cb5b","07/12/2022, 13:54:11",0.520699159496419,"27","Female","right",0,0,0,0,FALSE,"P_M_jeremy_corbyn.png P_M_Michael_Gove.png"
2328,"E_F_Dawn_Roma_French.png","E_M_Simon_Pegg.png","TRUE","pictures/stimuli/E","pictures/stimuli/E","F","M","6","5c5603640ee758000100cb5b","07/12/2022, 13:54:11",0.520699159496419,"27","Female","right",0,0,0,0,FALSE,"E_F_Dawn_Roma_French.png E_M_Simon_Pegg.png"
1233,"E_F_Jennifer_Saunders.png","P_M_Tony_Blair.png","FALSE","pictures/stimuli/E","pictures/stimuli/P","F","M","6","5c5603640ee758000100cb5b","07/12/2022, 13:54:11",0.520699159496419,"27","Female","right",0,0,0,0,FALSE,"E_F_Jennifer_Saunders.png P_M_Tony_Blair.png"
4507,"P_M_Gordon_Brown.png","P_M_jeremy_corbyn.png","TRUE","pictures/stimuli/P","pictures/stimuli/P","M","M","6","5c5603640ee758000100cb5b","07/12/2022, 13:54:11",0.520699159496419,"27","Female","right",0,0,0,0,FALSE,"P_M_Gordon_Brown.png P_M_jeremy_corbyn.png"
1409,"P_F_nicola_sturge.png","P_M_Tony_Blair.png","TRUE","pictures/stimuli/P","pictures/stimuli/P","F","M","6","5c5603640ee758000100cb5b","07/12/2022, 13:54:11",0.520699159496419,"27","Female","right",0,0,0,0,FALSE,"P_F_nicola_sturge.png P_M_Tony_Blair.png"
1656,"E_F_Julie_Walters.png","P_M_Michael_Gove.png","FALSE","pictures/stimuli/E","pictures/stimuli/P","F","M","6","5c5603640ee758000100cb5b","07/12/2022, 13:54:11",0.520699159496419,"27","Female","right",0,0,0,0,FALSE,"E_F_Julie_Walters.png P_M_Michael_Gove.png"
1378,"P_M_jeremy_corbyn.png","P_M_nigel_farage.png","TRUE","pictures/stimuli/P","pictures/stimuli/P","M","M","6","5c5603640ee758000100cb5b","07/12/2022, 13:54:11",0.520699159496419,"27","Female","right",0,0,0,0,FALSE,"P_M_jeremy_corbyn.png P_M_nigel_farage.png"
3145,"P_F_Theresa_May.png","P_M_keir_starmer.png","TRUE","pictures/stimuli/P","pictures/stimuli/P","F","M","6","5c5603640ee758000100cb5b","07/12/2022, 13:54:11",0.520699159496419,"27","Female","right",0,0,0,0,FALSE,"P_F_Theresa_May.png P_M_keir_starmer.png"
1264,"E_M_Peter_Kay.png","E_M_Russell_Howard.png","TRUE","pictures/stimuli/E","pictures/stimuli/E","M","M","6","5c5603640ee758000100cb5b","07/12/2022, 13:54:11",0.520699159496419,"27","Female","right",0,0,0,0,FALSE,"E_M_Peter_Kay.png E_M_Russell_Howard.png"
4140,"E_F_Jennifer_Saunders.png","E_M_Russell_Howard.png","TRUE","pictures/stimuli/E","pictures/stimuli/E","F","M","4","5c5603640ee758000100cb5b","07/12/2022, 13:54:11",-1.49833839773459,"27","Female","right",0,0,0,0,FALSE,"E_F_Jennifer_Saunders.png E_M_Russell_Howard.png"
1742,"E_F_Sarah_Millican.png","P_M_david_camer.png","FALSE","pictures/stimuli/E","pictures/stimuli/P","F","M","6","5c5603640ee758000100cb5b","07/12/2022, 13:54:11",0.520699159496419,"27","Female","right",0,0,0,0,FALSE,"E_F_Sarah_Millican.png P_M_david_camer.png"
1212,"E_F_Julie_Walters.png","P_M_nigel_farage.png","FALSE","pictures/stimuli/E","pictures/stimuli/P","F","M","6","5c5603640ee758000100cb5b","07/12/2022, 13:54:11",0.520699159496419,"27","Female","right",0,0,0,0,FALSE,"E_F_Julie_Walters.png P_M_nigel_farage.png"
4954,"E_F_Sarah_Millican.png","P_F_nicola_sturge.png","FALSE","pictures/stimuli/E","pictures/stimuli/P","F","F","6","5c5603640ee758000100cb5b","07/12/2022, 13:54:11",0.520699159496419,"27","Female","right",0,0,0,0,FALSE,"E_F_Sarah_Millican.png P_F_nicola_sturge.png"
8236,"E_F_Sarah_Millican.png","P_M_nigel_farage.png","FALSE","pictures/stimuli/E","pictures/stimuli/P","F","M","6","5c5603640ee758000100cb5b","07/12/2022, 13:54:11",0.520699159496419,"27","Female","right",0,0,0,0,FALSE,"E_F_Sarah_Millican.png P_M_nigel_farage.png"
1313,"E_M_Simon_Pegg.png","P_F_nicola_sturge.png","FALSE","pictures/stimuli/E","pictures/stimuli/P","M","F","6","5c5603640ee758000100cb5b","07/12/2022, 13:54:11",0.520699159496419,"27","Female","right",0,0,0,0,FALSE,"E_M_Simon_Pegg.png P_F_nicola_sturge.png"
2076,"P_M_nigel_farage.png","P_M_Tony_Blair.png","TRUE","pictures/stimuli/P","pictures/stimuli/P","M","M","6","5c5603640ee758000100cb5b","07/12/2022, 13:54:11",0.520699159496419,"27","Female","right",0,0,0,0,FALSE,"P_M_nigel_farage.png P_M_Tony_Blair.png"
1236,"E_F_Jennifer_Saunders.png","E_M_Michael_McIntyr.png","TRUE","pictures/stimuli/E","pictures/stimuli/E","F","M","6","5c5603640ee758000100cb5b","07/12/2022, 13:54:11",0.520699159496419,"27","Female","right",0,0,0,0,FALSE,"E_F_Jennifer_Saunders.png E_M_Michael_McIntyr.png"
1669,"P_M_david_camer.png","P_M_nigel_farage.png","TRUE","pictures/stimuli/P","pictures/stimuli/P","M","M","6","5c5603640ee758000100cb5b","07/12/2022, 13:54:11",0.520699159496419,"27","Female","right",0,0,0,0,FALSE,"P_M_david_camer.png P_M_nigel_farage.png"
3777,"E_M_Simon_Pegg.png","P_M_Gordon_Brown.png","FALSE","pictures/stimuli/E","pictures/stimuli/P","M","M","5","5c5603640ee758000100cb5b","07/12/2022, 13:54:11",-0.488819619119086,"27","Female","right",0,0,0,0,FALSE,"E_M_Simon_Pegg.png P_M_Gordon_Brown.png"
4298,"P_M_david_camer.png","P_M_keir_starmer.png","TRUE","pictures/stimuli/P","pictures/stimuli/P","M","M","5","5c5603640ee758000100cb5b","07/12/2022, 13:54:11",-0.488819619119086,"27","Female","right",0,0,0,0,FALSE,"P_M_david_camer.png P_M_keir_starmer.png"
2309,"E_M_Peter_Kay.png","P_M_nigel_farage.png","FALSE","pictures/stimuli/E","pictures/stimuli/P","M","M","6","5c5603640ee758000100cb5b","07/12/2022, 13:54:11",0.520699159496419,"27","Female","right",0,0,0,0,FALSE,"E_M_Peter_Kay.png P_M_nigel_farage.png"
1531,"E_M_Michael_McIntyr.png","P_M_Michael_Gove.png","FALSE","pictures/stimuli/E","pictures/stimuli/P","M","M","6","5c5603640ee758000100cb5b","07/12/2022, 13:54:11",0.520699159496419,"27","Female","right",0,0,0,0,FALSE,"E_M_Michael_McIntyr.png P_M_Michael_Gove.png"
1423,"E_M_Ewan_McGregor.png","P_M_keir_starmer.png","FALSE","pictures/stimuli/E","pictures/stimuli/P","M","M","6","5c5603640ee758000100cb5b","07/12/2022, 13:54:11",0.520699159496419,"27","Female","right",0,0,0,0,FALSE,"E_M_Ewan_McGregor.png P_M_keir_starmer.png"
2362,"E_M_Ewan_McGregor.png","P_M_nigel_farage.png","FALSE","pictures/stimuli/E","pictures/stimuli/P","M","M","6","5c5603640ee758000100cb5b","07/12/2022, 13:54:11",0.520699159496419,"27","Female","right",0,0,0,0,FALSE,"E_M_Ewan_McGregor.png P_M_nigel_farage.png"
1919,"E_F_Julie_Walters.png","E_M_Russell_Howard.png","TRUE","pictures/stimuli/E","pictures/stimuli/E","F","M","6","5c5603640ee758000100cb5b","07/12/2022, 13:54:11",0.520699159496419,"27","Female","right",0,0,0,0,FALSE,"E_F_Julie_Walters.png E_M_Russell_Howard.png"
1880,"E_M_Peter_Kay.png","P_F_Theresa_May.png","FALSE","pictures/stimuli/E","pictures/stimuli/P","M","F","6","5c5603640ee758000100cb5b","07/12/2022, 13:54:11",0.520699159496419,"27","Female","right",0,0,0,0,FALSE,"E_M_Peter_Kay.png P_F_Theresa_May.png"
1846,"E_M_Russell_Howard.png","P_F_Theresa_May.png","FALSE","pictures/stimuli/E","pictures/stimuli/P","M","F","6","5c5603640ee758000100cb5b","07/12/2022, 13:54:11",0.520699159496419,"27","Female","right",0,0,0,0,FALSE,"E_M_Russell_Howard.png P_F_Theresa_May.png"
1820,"E_M_Jimmy_Carr.png","P_M_Gordon_Brown.png","FALSE","pictures/stimuli/E","pictures/stimuli/P","M","M","6","5c5603640ee758000100cb5b","07/12/2022, 13:54:11",0.520699159496419,"27","Female","right",0,0,0,0,FALSE,"E_M_Jimmy_Carr.png P_M_Gordon_Brown.png"
1565,"P_F_nicola_sturge.png","P_M_david_camer.png","TRUE","pictures/stimuli/P","pictures/stimuli/P","F","M","6","5c5603640ee758000100cb5b","07/12/2022, 13:54:11",0.520699159496419,"27","Female","right",0,0,0,0,FALSE,"P_F_nicola_sturge.png P_M_david_camer.png"
2558,"E_M_Michael_McIntyr.png","P_M_jeremy_corbyn.png","FALSE","pictures/stimuli/E","pictures/stimuli/P","M","M","5","5c5603640ee758000100cb5b","07/12/2022, 13:54:11",-0.488819619119086,"27","Female","right",0,0,0,0,FALSE,"E_M_Michael_McIntyr.png P_M_jeremy_corbyn.png"
2475,"E_F_Jennifer_Saunders.png","P_M_david_camer.png","FALSE","pictures/stimuli/E","pictures/stimuli/P","F","M","5","5c5603640ee758000100cb5b","07/12/2022, 13:54:11",-0.488819619119086,"27","Female","right",0,0,0,0,FALSE,"E_F_Jennifer_Saunders.png P_M_david_camer.png"
