"RT","img_1","img_2","isSameProffesion","img1proffesion","img2proffesion","img1Gender","img2Gender","keyPressed","participant","time","normlised_keyPress","age","gender","handedness","isFamiliar_img1","isFamiliar_img2","vividness_img1","vividness_img2","reject_trial","pair"
4051,"E_F_Julie_Walters.png","E_M_Jimmy_Carr.png","TRUE","pictures/stimuli/E","pictures/stimuli/E","F","M","6","55057a56fdf99b5b566a70bb","06/30/2022, 11:50:03",0.683648440869291,"29","Female","right",1,1,0,0,FALSE,"E_F_Julie_Walters.png E_M_Jimmy_Carr.png"
4638,"E_F_Dawn_Roma_French.png","P_M_nigel_farage.png","FALSE","pictures/stimuli/E","pictures/stimuli/P","F","M","6","55057a56fdf99b5b566a70bb","06/30/2022, 11:50:03",0.683648440869291,"29","Female","right",1,1,0,0,FALSE,"E_F_Dawn_Roma_French.png P_M_nigel_farage.png"
4424,"E_M_Peter_Kay.png","P_M_nigel_farage.png","FALSE","pictures/stimuli/E","pictures/stimuli/P","M","M","5","55057a56fdf99b5b566a70bb","06/30/2022, 11:50:03",-1.14583330230205,"29","Female","right",1,1,0,0,FALSE,"E_M_Peter_Kay.png P_M_nigel_farage.png"
2783,"E_F_Dawn_Roma_French.png","E_M_Jimmy_Carr.png","TRUE","pictures/stimuli/E","pictures/stimuli/E","F","M","6","55057a56fdf99b5b566a70bb","06/30/2022, 11:50:03",0.683648440869291,"29","Female","right",1,1,0,0,FALSE,"E_F_Dawn_Roma_French.png E_M_Jimmy_Carr.png"
4420,"E_M_Russell_Howard.png","P_F_nicola_sturge.png","FALSE","pictures/stimuli/E","pictures/stimuli/P","M","F","6","55057a56fdf99b5b566a70bb","06/30/2022, 11:50:03",0.683648440869291,"29","Female","right",1,1,0,0,FALSE,"E_M_Russell_Howard.png P_F_nicola_sturge.png"
4183,"E_M_Jimmy_Carr.png","P_M_Tony_Blair.png","FALSE","pictures/stimuli/E","pictures/stimuli/P","M","M","5","55057a56fdf99b5b566a70bb","06/30/2022, 11:50:03",-1.14583330230205,"29","Female","right",1,1,0,0,FALSE,"E_M_Jimmy_Carr.png P_M_Tony_Blair.png"
3103,"P_F_Theresa_May.png","P_M_Tony_Blair.png","TRUE","pictures/stimuli/P","pictures/stimuli/P","F","M","6","55057a56fdf99b5b566a70bb","06/30/2022, 11:50:03",0.683648440869291,"29","Female","right",1,1,0,0,FALSE,"P_F_Theresa_May.png P_M_Tony_Blair.png"
5191,"E_F_Julie_Walters.png","P_M_keir_starmer.png","FALSE","pictures/stimuli/E","pictures/stimuli/P","F","M","6","55057a56fdf99b5b566a70bb","06/30/2022, 11:50:03",0.683648440869291,"29","Female","right",1,1,0,0,FALSE,"E_F_Julie_Walters.png P_M_keir_starmer.png"
6125,"E_F_Sarah_Millican.png","E_M_Jimmy_Carr.png","TRUE","pictures/stimuli/E","pictures/stimuli/E","F","M","4","55057a56fdf99b5b566a70bb","06/30/2022, 11:50:03",-2.9753150454734,"29","Female","right",1,1,0,0,FALSE,"E_F_Sarah_Millican.png E_M_Jimmy_Carr.png"
2444,"E_F_Julie_Walters.png","P_M_nigel_farage.png","FALSE","pictures/stimuli/E","pictures/stimuli/P","F","M","6","55057a56fdf99b5b566a70bb","06/30/2022, 11:50:03",0.683648440869291,"29","Female","right",1,1,0,0,FALSE,"E_F_Julie_Walters.png P_M_nigel_farage.png"
4743,"P_M_Gordon_Brown.png","P_M_Michael_Gove.png","TRUE","pictures/stimuli/P","pictures/stimuli/P","M","M","5","55057a56fdf99b5b566a70bb","06/30/2022, 11:50:03",-1.14583330230205,"29","Female","right",1,1,0,0,FALSE,"P_M_Gordon_Brown.png P_M_Michael_Gove.png"
5593,"E_M_Ewan_McGregor.png","E_M_Russell_Howard.png","TRUE","pictures/stimuli/E","pictures/stimuli/E","M","M","5","55057a56fdf99b5b566a70bb","06/30/2022, 11:50:03",-1.14583330230205,"29","Female","right",1,1,0,0,FALSE,"E_M_Ewan_McGregor.png E_M_Russell_Howard.png"
4545,"E_F_Dawn_Roma_French.png","E_F_Jennifer_Saunders.png","TRUE","pictures/stimuli/E","pictures/stimuli/E","F","F","5","55057a56fdf99b5b566a70bb","06/30/2022, 11:50:03",-1.14583330230205,"29","Female","right",1,0,0,0,TRUE,"E_F_Dawn_Roma_French.png E_F_Jennifer_Saunders.png"
2692,"E_F_Dawn_Roma_French.png","E_M_Simon_Pegg.png","TRUE","pictures/stimuli/E","pictures/stimuli/E","F","M","6","55057a56fdf99b5b566a70bb","06/30/2022, 11:50:03",0.683648440869291,"29","Female","right",1,1,0,0,FALSE,"E_F_Dawn_Roma_French.png E_M_Simon_Pegg.png"
5244,"P_M_david_camer.png","P_M_keir_starmer.png","TRUE","pictures/stimuli/P","pictures/stimuli/P","M","M","6","55057a56fdf99b5b566a70bb","06/30/2022, 11:50:03",0.683648440869291,"29","Female","right",1,1,0,0,FALSE,"P_M_david_camer.png P_M_keir_starmer.png"
3179,"E_M_Michael_McIntyr.png","P_M_nigel_farage.png","FALSE","pictures/stimuli/E","pictures/stimuli/P","M","M","6","55057a56fdf99b5b566a70bb","06/30/2022, 11:50:03",0.683648440869291,"29","Female","right",1,1,0,0,FALSE,"E_M_Michael_McIntyr.png P_M_nigel_farage.png"
2654,"P_M_nigel_farage.png","P_M_Sajid_Javid.png","TRUE","pictures/stimuli/P","pictures/stimuli/P","M","M","6","55057a56fdf99b5b566a70bb","06/30/2022, 11:50:03",0.683648440869291,"29","Female","right",1,0,0,0,TRUE,"P_M_nigel_farage.png P_M_Sajid_Javid.png"
7412,"E_F_Dawn_Roma_French.png","P_M_Michael_Gove.png","FALSE","pictures/stimuli/E","pictures/stimuli/P","F","M","6","55057a56fdf99b5b566a70bb","06/30/2022, 11:50:03",0.683648440869291,"29","Female","right",1,1,0,0,FALSE,"E_F_Dawn_Roma_French.png P_M_Michael_Gove.png"
2860,"E_M_Simon_Pegg.png","P_M_nigel_farage.png","FALSE","pictures/stimuli/E","pictures/stimuli/P","M","M","6","55057a56fdf99b5b566a70bb","06/30/2022, 11:50:03",0.683648440869291,"29","Female","right",1,1,0,0,FALSE,"E_M_Simon_Pegg.png P_M_nigel_farage.png"
3872,"E_M_Russell_Howard.png","P_M_Michael_Gove.png","FALSE","pictures/stimuli/E","pictures/stimuli/P","M","M","6","55057a56fdf99b5b566a70bb","06/30/2022, 11:50:03",0.683648440869291,"29","Female","right",1,1,0,0,FALSE,"E_M_Russell_Howard.png P_M_Michael_Gove.png"
4094,"E_M_Jimmy_Carr.png","P_F_nicola_sturge.png","FALSE","pictures/stimuli/E","pictures/stimuli/P","M","F","5","55057a56fdf99b5b566a70bb","06/30/2022, 11:50:03",-1.14583330230205,"29","Female","right",1,1,0,0,FALSE,"E_M_Jimmy_Carr.png P_F_nicola_sturge.png"
2331,"P_F_nicola_sturge.png","P_M_Gordon_Brown.png","TRUE","pictures/stimuli/P","pictures/stimuli/P","F","M","6","55057a56fdf99b5b566a70bb","06/30/2022, 11:50:03",0.683648440869291,"29","Female","right",1,1,0,0,FALSE,"P_F_nicola_sturge.png P_M_Gordon_Brown.png"
7398,"P_M_david_camer.png","P_M_Gordon_Brown.png","TRUE","pictures/stimuli/P","pictures/stimuli/P","M","M","5","55057a56fdf99b5b566a70bb","06/30/2022, 11:50:03",-1.14583330230205,"29","Female","right",1,1,0,0,FALSE,"P_M_david_camer.png P_M_Gordon_Brown.png"
3359,"E_M_Michael_McIntyr.png","P_M_Michael_Gove.png","FALSE","pictures/stimuli/E","pictures/stimuli/P","M","M","5","55057a56fdf99b5b566a70bb","06/30/2022, 11:50:03",-1.14583330230205,"29","Female","right",1,1,0,0,FALSE,"E_M_Michael_McIntyr.png P_M_Michael_Gove.png"
2562,"P_M_keir_starmer.png","P_M_Sajid_Javid.png","TRUE","pictures/stimuli/P","pictures/stimuli/P","M","M","6","55057a56fdf99b5b566a70bb","06/30/2022, 11:50:03",0.683648440869291,"29","Female","right",1,0,0,0,TRUE,"P_M_keir_starmer.png P_M_Sajid_Javid.png"
3362,"P_M_david_camer.png","P_M_jeremy_corbyn.png","TRUE","pictures/stimuli/P","pictures/stimuli/P","M","M","6","55057a56fdf99b5b566a70bb","06/30/2022, 11:50:03",0.683648440869291,"29","Female","right",1,1,0,0,FALSE,"P_M_david_camer.png P_M_jeremy_corbyn.png"
5181,"E_M_Ewan_McGregor.png","P_F_nicola_sturge.png","FALSE","pictures/stimuli/E","pictures/stimuli/P","M","F","5","55057a56fdf99b5b566a70bb","06/30/2022, 11:50:03",-1.14583330230205,"29","Female","right",1,1,0,0,FALSE,"E_M_Ewan_McGregor.png P_F_nicola_sturge.png"
2605,"E_M_Ewan_McGregor.png","E_M_Peter_Kay.png","TRUE","pictures/stimuli/E","pictures/stimuli/E","M","M","6","55057a56fdf99b5b566a70bb","06/30/2022, 11:50:03",0.683648440869291,"29","Female","right",1,1,0,0,FALSE,"E_M_Ewan_McGregor.png E_M_Peter_Kay.png"
2295,"E_M_Peter_Kay.png","P_M_david_camer.png","FALSE","pictures/stimuli/E","pictures/stimuli/P","M","M","6","55057a56fdf99b5b566a70bb","06/30/2022, 11:50:03",0.683648440869291,"29","Female","right",1,1,0,0,FALSE,"E_M_Peter_Kay.png P_M_david_camer.png"
2341,"E_F_Jennifer_Saunders.png","E_M_Simon_Pegg.png","TRUE","pictures/stimuli/E","pictures/stimuli/E","F","M","6","55057a56fdf99b5b566a70bb","06/30/2022, 11:50:03",0.683648440869291,"29","Female","right",0,1,0,0,TRUE,"E_F_Jennifer_Saunders.png E_M_Simon_Pegg.png"
2676,"E_M_Michael_McIntyr.png","P_M_jeremy_corbyn.png","FALSE","pictures/stimuli/E","pictures/stimuli/P","M","M","6","55057a56fdf99b5b566a70bb","06/30/2022, 11:50:03",0.683648440869291,"29","Female","right",1,1,0,0,FALSE,"E_M_Michael_McIntyr.png P_M_jeremy_corbyn.png"
7994,"E_M_Russell_Howard.png","P_M_Tony_Blair.png","FALSE","pictures/stimuli/E","pictures/stimuli/P","M","M","4","55057a56fdf99b5b566a70bb","06/30/2022, 11:50:03",-2.9753150454734,"29","Female","right",1,1,0,0,FALSE,"E_M_Russell_Howard.png P_M_Tony_Blair.png"
3852,"P_M_Gordon_Brown.png","P_M_nigel_farage.png","TRUE","pictures/stimuli/P","pictures/stimuli/P","M","M","5","55057a56fdf99b5b566a70bb","06/30/2022, 11:50:03",-1.14583330230205,"29","Female","right",1,1,0,0,FALSE,"P_M_Gordon_Brown.png P_M_nigel_farage.png"
2740,"E_F_Sarah_Millican.png","P_M_nigel_farage.png","FALSE","pictures/stimuli/E","pictures/stimuli/P","F","M","6","55057a56fdf99b5b566a70bb","06/30/2022, 11:50:03",0.683648440869291,"29","Female","right",1,1,0,0,FALSE,"E_F_Sarah_Millican.png P_M_nigel_farage.png"
2843,"E_F_Dawn_Roma_French.png","P_M_keir_starmer.png","FALSE","pictures/stimuli/E","pictures/stimuli/P","F","M","6","55057a56fdf99b5b566a70bb","06/30/2022, 11:50:03",0.683648440869291,"29","Female","right",1,1,0,0,FALSE,"E_F_Dawn_Roma_French.png P_M_keir_starmer.png"
6056,"E_F_Sarah_Millican.png","P_M_Tony_Blair.png","FALSE","pictures/stimuli/E","pictures/stimuli/P","F","M","5","55057a56fdf99b5b566a70bb","06/30/2022, 11:50:03",-1.14583330230205,"29","Female","right",1,1,0,0,FALSE,"E_F_Sarah_Millican.png P_M_Tony_Blair.png"
5268,"E_F_Julie_Walters.png","P_M_david_camer.png","FALSE","pictures/stimuli/E","pictures/stimuli/P","F","M","6","55057a56fdf99b5b566a70bb","06/30/2022, 11:50:03",0.683648440869291,"29","Female","right",1,1,0,0,FALSE,"E_F_Julie_Walters.png P_M_david_camer.png"
4171,"E_M_Ewan_McGregor.png","P_M_Gordon_Brown.png","FALSE","pictures/stimuli/E","pictures/stimuli/P","M","M","6","55057a56fdf99b5b566a70bb","06/30/2022, 11:50:03",0.683648440869291,"29","Female","right",1,1,0,0,FALSE,"E_M_Ewan_McGregor.png P_M_Gordon_Brown.png"
2721,"E_F_Jennifer_Saunders.png","P_M_jeremy_corbyn.png","FALSE","pictures/stimuli/E","pictures/stimuli/P","F","M","6","55057a56fdf99b5b566a70bb","06/30/2022, 11:50:03",0.683648440869291,"29","Female","right",0,1,0,0,TRUE,"E_F_Jennifer_Saunders.png P_M_jeremy_corbyn.png"
3652,"P_F_nicola_sturge.png","P_M_Michael_Gove.png","TRUE","pictures/stimuli/P","pictures/stimuli/P","F","M","6","55057a56fdf99b5b566a70bb","06/30/2022, 11:50:03",0.683648440869291,"29","Female","right",1,1,0,0,FALSE,"P_F_nicola_sturge.png P_M_Michael_Gove.png"
2202,"P_M_Gordon_Brown.png","P_M_Sajid_Javid.png","TRUE","pictures/stimuli/P","pictures/stimuli/P","M","M","6","55057a56fdf99b5b566a70bb","06/30/2022, 11:50:03",0.683648440869291,"29","Female","right",1,0,0,0,TRUE,"P_M_Gordon_Brown.png P_M_Sajid_Javid.png"
7181,"E_M_Ewan_McGregor.png","P_M_Tony_Blair.png","FALSE","pictures/stimuli/E","pictures/stimuli/P","M","M","5","55057a56fdf99b5b566a70bb","06/30/2022, 11:50:03",-1.14583330230205,"29","Female","right",1,1,0,0,FALSE,"E_M_Ewan_McGregor.png P_M_Tony_Blair.png"
2379,"E_F_Sarah_Millican.png","P_M_jeremy_corbyn.png","FALSE","pictures/stimuli/E","pictures/stimuli/P","F","M","6","55057a56fdf99b5b566a70bb","06/30/2022, 11:50:03",0.683648440869291,"29","Female","right",1,1,0,0,FALSE,"E_F_Sarah_Millican.png P_M_jeremy_corbyn.png"
2932,"E_F_Jennifer_Saunders.png","P_M_nigel_farage.png","FALSE","pictures/stimuli/E","pictures/stimuli/P","F","M","6","55057a56fdf99b5b566a70bb","06/30/2022, 11:50:03",0.683648440869291,"29","Female","right",0,1,0,0,TRUE,"E_F_Jennifer_Saunders.png P_M_nigel_farage.png"
3093,"E_F_Jennifer_Saunders.png","P_M_keir_starmer.png","FALSE","pictures/stimuli/E","pictures/stimuli/P","F","M","6","55057a56fdf99b5b566a70bb","06/30/2022, 11:50:03",0.683648440869291,"29","Female","right",0,1,0,0,TRUE,"E_F_Jennifer_Saunders.png P_M_keir_starmer.png"
5738,"E_F_Sarah_Millican.png","E_M_Simon_Pegg.png","TRUE","pictures/stimuli/E","pictures/stimuli/E","F","M","5","55057a56fdf99b5b566a70bb","06/30/2022, 11:50:03",-1.14583330230205,"29","Female","right",1,1,0,0,FALSE,"E_F_Sarah_Millican.png E_M_Simon_Pegg.png"
2707,"E_F_Jennifer_Saunders.png","E_M_Russell_Howard.png","TRUE","pictures/stimuli/E","pictures/stimuli/E","F","M","6","55057a56fdf99b5b566a70bb","06/30/2022, 11:50:03",0.683648440869291,"29","Female","right",0,1,0,0,TRUE,"E_F_Jennifer_Saunders.png E_M_Russell_Howard.png"
2554,"E_M_Peter_Kay.png","P_M_Gordon_Brown.png","FALSE","pictures/stimuli/E","pictures/stimuli/P","M","M","5","55057a56fdf99b5b566a70bb","06/30/2022, 11:50:03",-1.14583330230205,"29","Female","right",1,1,0,0,FALSE,"E_M_Peter_Kay.png P_M_Gordon_Brown.png"
2983,"P_M_david_camer.png","P_M_Tony_Blair.png","TRUE","pictures/stimuli/P","pictures/stimuli/P","M","M","6","55057a56fdf99b5b566a70bb","06/30/2022, 11:50:03",0.683648440869291,"29","Female","right",1,1,0,0,FALSE,"P_M_david_camer.png P_M_Tony_Blair.png"
2528,"P_M_keir_starmer.png","P_M_Michael_Gove.png","TRUE","pictures/stimuli/P","pictures/stimuli/P","M","M","6","55057a56fdf99b5b566a70bb","06/30/2022, 11:50:03",0.683648440869291,"29","Female","right",1,1,0,0,FALSE,"P_M_keir_starmer.png P_M_Michael_Gove.png"
2648,"E_M_Michael_McIntyr.png","P_F_nicola_sturge.png","FALSE","pictures/stimuli/E","pictures/stimuli/P","M","F","6","55057a56fdf99b5b566a70bb","06/30/2022, 11:50:03",0.683648440869291,"29","Female","right",1,1,0,0,FALSE,"E_M_Michael_McIntyr.png P_F_nicola_sturge.png"
5396,"E_F_Jennifer_Saunders.png","P_F_Theresa_May.png","FALSE","pictures/stimuli/E","pictures/stimuli/P","F","F","5","55057a56fdf99b5b566a70bb","06/30/2022, 11:50:03",-1.14583330230205,"29","Female","right",0,1,0,0,TRUE,"E_F_Jennifer_Saunders.png P_F_Theresa_May.png"
2108,"E_M_Michael_McIntyr.png","P_M_Sajid_Javid.png","FALSE","pictures/stimuli/E","pictures/stimuli/P","M","M","6","55057a56fdf99b5b566a70bb","06/30/2022, 11:50:03",0.683648440869291,"29","Female","right",1,0,0,0,TRUE,"E_M_Michael_McIntyr.png P_M_Sajid_Javid.png"
2154,"E_F_Jennifer_Saunders.png","E_M_Jimmy_Carr.png","TRUE","pictures/stimuli/E","pictures/stimuli/E","F","M","6","55057a56fdf99b5b566a70bb","06/30/2022, 11:50:03",0.683648440869291,"29","Female","right",0,1,0,0,TRUE,"E_F_Jennifer_Saunders.png E_M_Jimmy_Carr.png"
3811,"E_F_Sarah_Millican.png","P_M_david_camer.png","FALSE","pictures/stimuli/E","pictures/stimuli/P","F","M","6","55057a56fdf99b5b566a70bb","06/30/2022, 11:50:03",0.683648440869291,"29","Female","right",1,1,0,0,FALSE,"E_F_Sarah_Millican.png P_M_david_camer.png"
3769,"E_M_Michael_McIntyr.png","E_M_Simon_Pegg.png","TRUE","pictures/stimuli/E","pictures/stimuli/E","M","M","6","55057a56fdf99b5b566a70bb","06/30/2022, 11:50:03",0.683648440869291,"29","Female","right",1,1,0,0,FALSE,"E_M_Michael_McIntyr.png E_M_Simon_Pegg.png"
3592,"E_F_Julie_Walters.png","P_M_Gordon_Brown.png","FALSE","pictures/stimuli/E","pictures/stimuli/P","F","M","6","55057a56fdf99b5b566a70bb","06/30/2022, 11:50:03",0.683648440869291,"29","Female","right",1,1,0,0,FALSE,"E_F_Julie_Walters.png P_M_Gordon_Brown.png"
6066,"P_M_keir_starmer.png","P_M_Tony_Blair.png","TRUE","pictures/stimuli/P","pictures/stimuli/P","M","M","5","55057a56fdf99b5b566a70bb","06/30/2022, 11:50:03",-1.14583330230205,"29","Female","right",1,1,0,0,FALSE,"P_M_keir_starmer.png P_M_Tony_Blair.png"
5867,"E_F_Dawn_Roma_French.png","E_F_Julie_Walters.png","TRUE","pictures/stimuli/E","pictures/stimuli/E","F","F","6","55057a56fdf99b5b566a70bb","06/30/2022, 11:50:03",0.683648440869291,"29","Female","right",1,1,0,0,FALSE,"E_F_Dawn_Roma_French.png E_F_Julie_Walters.png"
2509,"E_M_Peter_Kay.png","P_F_nicola_sturge.png","FALSE","pictures/stimuli/E","pictures/stimuli/P","M","F","6","55057a56fdf99b5b566a70bb","06/30/2022, 11:50:03",0.683648440869291,"29","Female","right",1,1,0,0,FALSE,"E_M_Peter_Kay.png P_F_nicola_sturge.png"
3072,"P_F_Theresa_May.png","P_M_david_camer.png","TRUE","pictures/stimuli/P","pictures/stimuli/P","F","M","6","55057a56fdf99b5b566a70bb","06/30/2022, 11:50:03",0.683648440869291,"29","Female","right",1,1,0,0,FALSE,"P_F_Theresa_May.png P_M_david_camer.png"
2698,"E_M_Jimmy_Carr.png","E_M_Russell_Howard.png","TRUE","pictures/stimuli/E","pictures/stimuli/E","M","M","6","55057a56fdf99b5b566a70bb","06/30/2022, 11:50:03",0.683648440869291,"29","Female","right",1,1,0,0,FALSE,"E_M_Jimmy_Carr.png E_M_Russell_Howard.png"
3378,"E_F_Jennifer_Saunders.png","E_M_Michael_McIntyr.png","TRUE","pictures/stimuli/E","pictures/stimuli/E","F","M","6","55057a56fdf99b5b566a70bb","06/30/2022, 11:50:03",0.683648440869291,"29","Female","right",0,1,0,0,TRUE,"E_F_Jennifer_Saunders.png E_M_Michael_McIntyr.png"
4773,"E_F_Julie_Walters.png","P_F_Theresa_May.png","FALSE","pictures/stimuli/E","pictures/stimuli/P","F","F","5","55057a56fdf99b5b566a70bb","06/30/2022, 11:50:03",-1.14583330230205,"29","Female","right",1,1,0,0,FALSE,"E_F_Julie_Walters.png P_F_Theresa_May.png"
2432,"P_M_jeremy_corbyn.png","P_M_nigel_farage.png","TRUE","pictures/stimuli/P","pictures/stimuli/P","M","M","6","55057a56fdf99b5b566a70bb","06/30/2022, 11:50:03",0.683648440869291,"29","Female","right",1,1,0,0,FALSE,"P_M_jeremy_corbyn.png P_M_nigel_farage.png"
2484,"E_M_Ewan_McGregor.png","P_M_nigel_farage.png","FALSE","pictures/stimuli/E","pictures/stimuli/P","M","M","6","55057a56fdf99b5b566a70bb","06/30/2022, 11:50:03",0.683648440869291,"29","Female","right",1,1,0,0,FALSE,"E_M_Ewan_McGregor.png P_M_nigel_farage.png"
5064,"E_F_Julie_Walters.png","P_F_nicola_sturge.png","FALSE","pictures/stimuli/E","pictures/stimuli/P","F","F","5","55057a56fdf99b5b566a70bb","06/30/2022, 11:50:03",-1.14583330230205,"29","Female","right",1,1,0,0,FALSE,"E_F_Julie_Walters.png P_F_nicola_sturge.png"
3792,"P_M_david_camer.png","P_M_Michael_Gove.png","TRUE","pictures/stimuli/P","pictures/stimuli/P","M","M","6","55057a56fdf99b5b566a70bb","06/30/2022, 11:50:03",0.683648440869291,"29","Female","right",1,1,0,0,FALSE,"P_M_david_camer.png P_M_Michael_Gove.png"
6513,"E_F_Dawn_Roma_French.png","E_F_Sarah_Millican.png","TRUE","pictures/stimuli/E","pictures/stimuli/E","F","F","5","55057a56fdf99b5b566a70bb","06/30/2022, 11:50:03",-1.14583330230205,"29","Female","right",1,1,0,0,FALSE,"E_F_Dawn_Roma_French.png E_F_Sarah_Millican.png"
2333,"P_M_jeremy_corbyn.png","P_M_keir_starmer.png","TRUE","pictures/stimuli/P","pictures/stimuli/P","M","M","6","55057a56fdf99b5b566a70bb","06/30/2022, 11:50:03",0.683648440869291,"29","Female","right",1,1,0,0,FALSE,"P_M_jeremy_corbyn.png P_M_keir_starmer.png"
2123,"E_M_Peter_Kay.png","P_M_jeremy_corbyn.png","FALSE","pictures/stimuli/E","pictures/stimuli/P","M","M","6","55057a56fdf99b5b566a70bb","06/30/2022, 11:50:03",0.683648440869291,"29","Female","right",1,1,0,0,FALSE,"E_M_Peter_Kay.png P_M_jeremy_corbyn.png"
2143,"E_F_Dawn_Roma_French.png","P_F_Theresa_May.png","FALSE","pictures/stimuli/E","pictures/stimuli/P","F","F","6","55057a56fdf99b5b566a70bb","06/30/2022, 11:50:03",0.683648440869291,"29","Female","right",1,1,0,0,FALSE,"E_F_Dawn_Roma_French.png P_F_Theresa_May.png"
3354,"E_F_Julie_Walters.png","E_M_Russell_Howard.png","TRUE","pictures/stimuli/E","pictures/stimuli/E","F","M","5","55057a56fdf99b5b566a70bb","06/30/2022, 11:50:03",-1.14583330230205,"29","Female","right",1,1,0,0,FALSE,"E_F_Julie_Walters.png E_M_Russell_Howard.png"
2509,"E_F_Jennifer_Saunders.png","P_M_Sajid_Javid.png","FALSE","pictures/stimuli/E","pictures/stimuli/P","F","M","6","55057a56fdf99b5b566a70bb","06/30/2022, 11:50:03",0.683648440869291,"29","Female","right",0,0,0,0,TRUE,"E_F_Jennifer_Saunders.png P_M_Sajid_Javid.png"
2311,"P_M_jeremy_corbyn.png","P_M_Michael_Gove.png","TRUE","pictures/stimuli/P","pictures/stimuli/P","M","M","6","55057a56fdf99b5b566a70bb","06/30/2022, 11:50:03",0.683648440869291,"29","Female","right",1,1,0,0,FALSE,"P_M_jeremy_corbyn.png P_M_Michael_Gove.png"
4626,"E_M_Simon_Pegg.png","P_M_jeremy_corbyn.png","FALSE","pictures/stimuli/E","pictures/stimuli/P","M","M","6","55057a56fdf99b5b566a70bb","06/30/2022, 11:50:03",0.683648440869291,"29","Female","right",1,1,0,0,FALSE,"E_M_Simon_Pegg.png P_M_jeremy_corbyn.png"
4457,"E_M_Michael_McIntyr.png","P_M_Gordon_Brown.png","FALSE","pictures/stimuli/E","pictures/stimuli/P","M","M","6","55057a56fdf99b5b566a70bb","06/30/2022, 11:50:03",0.683648440869291,"29","Female","right",1,1,0,0,FALSE,"E_M_Michael_McIntyr.png P_M_Gordon_Brown.png"
2377,"P_F_nicola_sturge.png","P_M_Sajid_Javid.png","TRUE","pictures/stimuli/P","pictures/stimuli/P","F","M","6","55057a56fdf99b5b566a70bb","06/30/2022, 11:50:03",0.683648440869291,"29","Female","right",1,0,0,0,TRUE,"P_F_nicola_sturge.png P_M_Sajid_Javid.png"
4051,"E_M_Russell_Howard.png","E_M_Simon_Pegg.png","TRUE","pictures/stimuli/E","pictures/stimuli/E","M","M","5","55057a56fdf99b5b566a70bb","06/30/2022, 11:50:03",-1.14583330230205,"29","Female","right",1,1,0,0,FALSE,"E_M_Russell_Howard.png E_M_Simon_Pegg.png"
2206,"P_F_Theresa_May.png","P_M_Michael_Gove.png","TRUE","pictures/stimuli/P","pictures/stimuli/P","F","M","6","55057a56fdf99b5b566a70bb","06/30/2022, 11:50:03",0.683648440869291,"29","Female","right",1,1,0,0,FALSE,"P_F_Theresa_May.png P_M_Michael_Gove.png"
5791,"E_M_Russell_Howard.png","P_M_nigel_farage.png","FALSE","pictures/stimuli/E","pictures/stimuli/P","M","M","5","55057a56fdf99b5b566a70bb","06/30/2022, 11:50:03",-1.14583330230205,"29","Female","right",1,1,0,0,FALSE,"E_M_Russell_Howard.png P_M_nigel_farage.png"
6152,"P_F_nicola_sturge.png","P_F_Theresa_May.png","TRUE","pictures/stimuli/P","pictures/stimuli/P","F","F","6","55057a56fdf99b5b566a70bb","06/30/2022, 11:50:03",0.683648440869291,"29","Female","right",1,1,0,0,FALSE,"P_F_nicola_sturge.png P_F_Theresa_May.png"
2699,"E_F_Julie_Walters.png","P_M_Tony_Blair.png","FALSE","pictures/stimuli/E","pictures/stimuli/P","F","M","5","55057a56fdf99b5b566a70bb","06/30/2022, 11:50:03",-1.14583330230205,"29","Female","right",1,1,0,0,FALSE,"E_F_Julie_Walters.png P_M_Tony_Blair.png"
2832,"E_M_Ewan_McGregor.png","P_F_Theresa_May.png","FALSE","pictures/stimuli/E","pictures/stimuli/P","M","F","6","55057a56fdf99b5b566a70bb","06/30/2022, 11:50:03",0.683648440869291,"29","Female","right",1,1,0,0,FALSE,"E_M_Ewan_McGregor.png P_F_Theresa_May.png"
2607,"P_M_Gordon_Brown.png","P_M_keir_starmer.png","TRUE","pictures/stimuli/P","pictures/stimuli/P","M","M","6","55057a56fdf99b5b566a70bb","06/30/2022, 11:50:03",0.683648440869291,"29","Female","right",1,1,0,0,FALSE,"P_M_Gordon_Brown.png P_M_keir_starmer.png"
2472,"E_F_Julie_Walters.png","E_F_Sarah_Millican.png","TRUE","pictures/stimuli/E","pictures/stimuli/E","F","F","6","55057a56fdf99b5b566a70bb","06/30/2022, 11:50:03",0.683648440869291,"29","Female","right",1,1,0,0,FALSE,"E_F_Julie_Walters.png E_F_Sarah_Millican.png"
2441,"E_M_Peter_Kay.png","P_M_Sajid_Javid.png","FALSE","pictures/stimuli/E","pictures/stimuli/P","M","M","6","55057a56fdf99b5b566a70bb","06/30/2022, 11:50:03",0.683648440869291,"29","Female","right",1,0,0,0,TRUE,"E_M_Peter_Kay.png P_M_Sajid_Javid.png"
4600,"P_F_Theresa_May.png","P_M_nigel_farage.png","TRUE","pictures/stimuli/P","pictures/stimuli/P","F","M","5","55057a56fdf99b5b566a70bb","06/30/2022, 11:50:03",-1.14583330230205,"29","Female","right",1,1,0,0,FALSE,"P_F_Theresa_May.png P_M_nigel_farage.png"
3118,"E_F_Julie_Walters.png","E_M_Ewan_McGregor.png","TRUE","pictures/stimuli/E","pictures/stimuli/E","F","M","5","55057a56fdf99b5b566a70bb","06/30/2022, 11:50:03",-1.14583330230205,"29","Female","right",1,1,0,0,FALSE,"E_F_Julie_Walters.png E_M_Ewan_McGregor.png"
3983,"E_F_Jennifer_Saunders.png","E_F_Julie_Walters.png","TRUE","pictures/stimuli/E","pictures/stimuli/E","F","F","5","55057a56fdf99b5b566a70bb","06/30/2022, 11:50:03",-1.14583330230205,"29","Female","right",0,1,0,0,TRUE,"E_F_Jennifer_Saunders.png E_F_Julie_Walters.png"
3245,"E_M_Ewan_McGregor.png","E_M_Simon_Pegg.png","TRUE","pictures/stimuli/E","pictures/stimuli/E","M","M","5","55057a56fdf99b5b566a70bb","06/30/2022, 11:50:03",-1.14583330230205,"29","Female","right",1,1,0,0,FALSE,"E_M_Ewan_McGregor.png E_M_Simon_Pegg.png"
2461,"P_M_Michael_Gove.png","P_M_nigel_farage.png","TRUE","pictures/stimuli/P","pictures/stimuli/P","M","M","6","55057a56fdf99b5b566a70bb","06/30/2022, 11:50:03",0.683648440869291,"29","Female","right",1,1,0,0,FALSE,"P_M_Michael_Gove.png P_M_nigel_farage.png"
4103,"E_M_Simon_Pegg.png","P_M_david_camer.png","FALSE","pictures/stimuli/E","pictures/stimuli/P","M","M","6","55057a56fdf99b5b566a70bb","06/30/2022, 11:50:03",0.683648440869291,"29","Female","right",1,1,0,0,FALSE,"E_M_Simon_Pegg.png P_M_david_camer.png"
1619,"E_M_Russell_Howard.png","P_M_Sajid_Javid.png","FALSE","pictures/stimuli/E","pictures/stimuli/P","M","M","6","55057a56fdf99b5b566a70bb","06/30/2022, 11:50:03",0.683648440869291,"29","Female","right",1,0,0,0,TRUE,"E_M_Russell_Howard.png P_M_Sajid_Javid.png"
2982,"E_M_Jimmy_Carr.png","P_M_keir_starmer.png","FALSE","pictures/stimuli/E","pictures/stimuli/P","M","M","6","55057a56fdf99b5b566a70bb","06/30/2022, 11:50:03",0.683648440869291,"29","Female","right",1,1,0,0,FALSE,"E_M_Jimmy_Carr.png P_M_keir_starmer.png"
2488,"E_M_Jimmy_Carr.png","P_M_david_camer.png","FALSE","pictures/stimuli/E","pictures/stimuli/P","M","M","6","55057a56fdf99b5b566a70bb","06/30/2022, 11:50:03",0.683648440869291,"29","Female","right",1,1,0,0,FALSE,"E_M_Jimmy_Carr.png P_M_david_camer.png"
3473,"P_M_Gordon_Brown.png","P_M_Tony_Blair.png","TRUE","pictures/stimuli/P","pictures/stimuli/P","M","M","6","55057a56fdf99b5b566a70bb","06/30/2022, 11:50:03",0.683648440869291,"29","Female","right",1,1,0,0,FALSE,"P_M_Gordon_Brown.png P_M_Tony_Blair.png"
2885,"E_M_Peter_Kay.png","P_M_keir_starmer.png","FALSE","pictures/stimuli/E","pictures/stimuli/P","M","M","6","55057a56fdf99b5b566a70bb","06/30/2022, 11:50:03",0.683648440869291,"29","Female","right",1,1,0,0,FALSE,"E_M_Peter_Kay.png P_M_keir_starmer.png"
2810,"P_M_Michael_Gove.png","P_M_Tony_Blair.png","TRUE","pictures/stimuli/P","pictures/stimuli/P","M","M","6","55057a56fdf99b5b566a70bb","06/30/2022, 11:50:03",0.683648440869291,"29","Female","right",1,1,0,0,FALSE,"P_M_Michael_Gove.png P_M_Tony_Blair.png"
2139,"P_M_Gordon_Brown.png","P_M_jeremy_corbyn.png","TRUE","pictures/stimuli/P","pictures/stimuli/P","M","M","6","55057a56fdf99b5b566a70bb","06/30/2022, 11:50:03",0.683648440869291,"29","Female","right",1,1,0,0,FALSE,"P_M_Gordon_Brown.png P_M_jeremy_corbyn.png"
2526,"E_M_Ewan_McGregor.png","E_M_Jimmy_Carr.png","TRUE","pictures/stimuli/E","pictures/stimuli/E","M","M","6","55057a56fdf99b5b566a70bb","06/30/2022, 11:50:03",0.683648440869291,"29","Female","right",1,1,0,0,FALSE,"E_M_Ewan_McGregor.png E_M_Jimmy_Carr.png"
3270,"P_F_Theresa_May.png","P_M_keir_starmer.png","TRUE","pictures/stimuli/P","pictures/stimuli/P","F","M","5","55057a56fdf99b5b566a70bb","06/30/2022, 11:50:03",-1.14583330230205,"29","Female","right",1,1,0,0,FALSE,"P_F_Theresa_May.png P_M_keir_starmer.png"
2169,"E_M_Peter_Kay.png","E_M_Simon_Pegg.png","TRUE","pictures/stimuli/E","pictures/stimuli/E","M","M","6","55057a56fdf99b5b566a70bb","06/30/2022, 11:50:03",0.683648440869291,"29","Female","right",1,1,0,0,FALSE,"E_M_Peter_Kay.png E_M_Simon_Pegg.png"
2303,"P_F_Theresa_May.png","P_M_Sajid_Javid.png","TRUE","pictures/stimuli/P","pictures/stimuli/P","F","M","6","55057a56fdf99b5b566a70bb","06/30/2022, 11:50:03",0.683648440869291,"29","Female","right",1,0,0,0,TRUE,"P_F_Theresa_May.png P_M_Sajid_Javid.png"
2927,"E_F_Jennifer_Saunders.png","P_M_Tony_Blair.png","FALSE","pictures/stimuli/E","pictures/stimuli/P","F","M","5","55057a56fdf99b5b566a70bb","06/30/2022, 11:50:03",-1.14583330230205,"29","Female","right",0,1,0,0,TRUE,"E_F_Jennifer_Saunders.png P_M_Tony_Blair.png"
2757,"E_M_Simon_Pegg.png","P_M_Michael_Gove.png","FALSE","pictures/stimuli/E","pictures/stimuli/P","M","M","6","55057a56fdf99b5b566a70bb","06/30/2022, 11:50:03",0.683648440869291,"29","Female","right",1,1,0,0,FALSE,"E_M_Simon_Pegg.png P_M_Michael_Gove.png"
2347,"E_M_Michael_McIntyr.png","P_F_Theresa_May.png","FALSE","pictures/stimuli/E","pictures/stimuli/P","M","F","6","55057a56fdf99b5b566a70bb","06/30/2022, 11:50:03",0.683648440869291,"29","Female","right",1,1,0,0,FALSE,"E_M_Michael_McIntyr.png P_F_Theresa_May.png"
3278,"E_M_Jimmy_Carr.png","P_M_Michael_Gove.png","FALSE","pictures/stimuli/E","pictures/stimuli/P","M","M","6","55057a56fdf99b5b566a70bb","06/30/2022, 11:50:03",0.683648440869291,"29","Female","right",1,1,0,0,FALSE,"E_M_Jimmy_Carr.png P_M_Michael_Gove.png"
2052,"E_M_Michael_McIntyr.png","E_M_Russell_Howard.png","TRUE","pictures/stimuli/E","pictures/stimuli/E","M","M","6","55057a56fdf99b5b566a70bb","06/30/2022, 11:50:03",0.683648440869291,"29","Female","right",1,1,0,0,FALSE,"E_M_Michael_McIntyr.png E_M_Russell_Howard.png"
2270,"E_F_Sarah_Millican.png","P_M_Sajid_Javid.png","FALSE","pictures/stimuli/E","pictures/stimuli/P","F","M","6","55057a56fdf99b5b566a70bb","06/30/2022, 11:50:03",0.683648440869291,"29","Female","right",1,0,0,0,TRUE,"E_F_Sarah_Millican.png P_M_Sajid_Javid.png"
4432,"E_F_Sarah_Millican.png","P_M_Gordon_Brown.png","FALSE","pictures/stimuli/E","pictures/stimuli/P","F","M","5","55057a56fdf99b5b566a70bb","06/30/2022, 11:50:03",-1.14583330230205,"29","Female","right",1,1,0,0,FALSE,"E_F_Sarah_Millican.png P_M_Gordon_Brown.png"
5093,"E_M_Jimmy_Carr.png","E_M_Peter_Kay.png","TRUE","pictures/stimuli/E","pictures/stimuli/E","M","M","6","55057a56fdf99b5b566a70bb","06/30/2022, 11:50:03",0.683648440869291,"29","Female","right",1,1,0,0,FALSE,"E_M_Jimmy_Carr.png E_M_Peter_Kay.png"
3357,"E_F_Jennifer_Saunders.png","P_M_david_camer.png","FALSE","pictures/stimuli/E","pictures/stimuli/P","F","M","5","55057a56fdf99b5b566a70bb","06/30/2022, 11:50:03",-1.14583330230205,"29","Female","right",0,1,0,0,TRUE,"E_F_Jennifer_Saunders.png P_M_david_camer.png"
5529,"E_M_Simon_Pegg.png","P_M_Tony_Blair.png","FALSE","pictures/stimuli/E","pictures/stimuli/P","M","M","5","55057a56fdf99b5b566a70bb","06/30/2022, 11:50:03",-1.14583330230205,"29","Female","right",1,1,0,0,FALSE,"E_M_Simon_Pegg.png P_M_Tony_Blair.png"
1940,"P_M_Sajid_Javid.png","P_M_Tony_Blair.png","TRUE","pictures/stimuli/P","pictures/stimuli/P","M","M","6","55057a56fdf99b5b566a70bb","06/30/2022, 11:50:03",0.683648440869291,"29","Female","right",0,1,0,0,TRUE,"P_M_Sajid_Javid.png P_M_Tony_Blair.png"
2201,"E_M_Peter_Kay.png","P_M_Tony_Blair.png","FALSE","pictures/stimuli/E","pictures/stimuli/P","M","M","6","55057a56fdf99b5b566a70bb","06/30/2022, 11:50:03",0.683648440869291,"29","Female","right",1,1,0,0,FALSE,"E_M_Peter_Kay.png P_M_Tony_Blair.png"
2132,"E_F_Jennifer_Saunders.png","E_M_Peter_Kay.png","TRUE","pictures/stimuli/E","pictures/stimuli/E","F","M","6","55057a56fdf99b5b566a70bb","06/30/2022, 11:50:03",0.683648440869291,"29","Female","right",0,1,0,0,TRUE,"E_F_Jennifer_Saunders.png E_M_Peter_Kay.png"
2665,"E_F_Dawn_Roma_French.png","P_M_Tony_Blair.png","FALSE","pictures/stimuli/E","pictures/stimuli/P","F","M","6","55057a56fdf99b5b566a70bb","06/30/2022, 11:50:03",0.683648440869291,"29","Female","right",1,1,0,0,FALSE,"E_F_Dawn_Roma_French.png P_M_Tony_Blair.png"
4328,"P_F_nicola_sturge.png","P_M_Tony_Blair.png","TRUE","pictures/stimuli/P","pictures/stimuli/P","F","M","6","55057a56fdf99b5b566a70bb","06/30/2022, 11:50:03",0.683648440869291,"29","Female","right",1,1,0,0,FALSE,"P_F_nicola_sturge.png P_M_Tony_Blair.png"
3378,"E_M_Michael_McIntyr.png","P_M_keir_starmer.png","FALSE","pictures/stimuli/E","pictures/stimuli/P","M","M","6","55057a56fdf99b5b566a70bb","06/30/2022, 11:50:03",0.683648440869291,"29","Female","right",1,1,0,0,FALSE,"E_M_Michael_McIntyr.png P_M_keir_starmer.png"
2455,"E_F_Julie_Walters.png","E_M_Peter_Kay.png","TRUE","pictures/stimuli/E","pictures/stimuli/E","F","M","6","55057a56fdf99b5b566a70bb","06/30/2022, 11:50:03",0.683648440869291,"29","Female","right",1,1,0,0,FALSE,"E_F_Julie_Walters.png E_M_Peter_Kay.png"
6208,"E_F_Dawn_Roma_French.png","P_M_david_camer.png","FALSE","pictures/stimuli/E","pictures/stimuli/P","F","M","6","55057a56fdf99b5b566a70bb","06/30/2022, 11:50:03",0.683648440869291,"29","Female","right",1,1,0,0,FALSE,"E_F_Dawn_Roma_French.png P_M_david_camer.png"
3019,"E_F_Jennifer_Saunders.png","P_M_Gordon_Brown.png","FALSE","pictures/stimuli/E","pictures/stimuli/P","F","M","5","55057a56fdf99b5b566a70bb","06/30/2022, 11:50:03",-1.14583330230205,"29","Female","right",0,1,0,0,TRUE,"E_F_Jennifer_Saunders.png P_M_Gordon_Brown.png"
3672,"E_F_Jennifer_Saunders.png","E_M_Ewan_McGregor.png","TRUE","pictures/stimuli/E","pictures/stimuli/E","F","M","5","55057a56fdf99b5b566a70bb","06/30/2022, 11:50:03",-1.14583330230205,"29","Female","right",0,1,0,0,TRUE,"E_F_Jennifer_Saunders.png E_M_Ewan_McGregor.png"
6076,"E_M_Jimmy_Carr.png","E_M_Michael_McIntyr.png","TRUE","pictures/stimuli/E","pictures/stimuli/E","M","M","4","55057a56fdf99b5b566a70bb","06/30/2022, 11:50:03",-2.9753150454734,"29","Female","right",1,1,0,0,FALSE,"E_M_Jimmy_Carr.png E_M_Michael_McIntyr.png"
3691,"P_F_nicola_sturge.png","P_M_nigel_farage.png","TRUE","pictures/stimuli/P","pictures/stimuli/P","F","M","6","55057a56fdf99b5b566a70bb","06/30/2022, 11:50:03",0.683648440869291,"29","Female","right",1,1,0,0,FALSE,"P_F_nicola_sturge.png P_M_nigel_farage.png"
5432,"E_F_Sarah_Millican.png","P_M_Michael_Gove.png","FALSE","pictures/stimuli/E","pictures/stimuli/P","F","M","5","55057a56fdf99b5b566a70bb","06/30/2022, 11:50:03",-1.14583330230205,"29","Female","right",1,1,0,0,FALSE,"E_F_Sarah_Millican.png P_M_Michael_Gove.png"
2616,"E_M_Ewan_McGregor.png","E_M_Michael_McIntyr.png","TRUE","pictures/stimuli/E","pictures/stimuli/E","M","M","6","55057a56fdf99b5b566a70bb","06/30/2022, 11:50:03",0.683648440869291,"29","Female","right",1,1,0,0,FALSE,"E_M_Ewan_McGregor.png E_M_Michael_McIntyr.png"
3144,"E_M_Jimmy_Carr.png","P_M_nigel_farage.png","FALSE","pictures/stimuli/E","pictures/stimuli/P","M","M","6","55057a56fdf99b5b566a70bb","06/30/2022, 11:50:03",0.683648440869291,"29","Female","right",1,1,0,0,FALSE,"E_M_Jimmy_Carr.png P_M_nigel_farage.png"
3905,"E_M_Simon_Pegg.png","P_F_nicola_sturge.png","FALSE","pictures/stimuli/E","pictures/stimuli/P","M","F","5","55057a56fdf99b5b566a70bb","06/30/2022, 11:50:03",-1.14583330230205,"29","Female","right",1,1,0,0,FALSE,"E_M_Simon_Pegg.png P_F_nicola_sturge.png"
2351,"E_M_Ewan_McGregor.png","P_M_Sajid_Javid.png","FALSE","pictures/stimuli/E","pictures/stimuli/P","M","M","6","55057a56fdf99b5b566a70bb","06/30/2022, 11:50:03",0.683648440869291,"29","Female","right",1,0,0,0,TRUE,"E_M_Ewan_McGregor.png P_M_Sajid_Javid.png"
4048,"P_M_keir_starmer.png","P_M_nigel_farage.png","TRUE","pictures/stimuli/P","pictures/stimuli/P","M","M","5","55057a56fdf99b5b566a70bb","06/30/2022, 11:50:03",-1.14583330230205,"29","Female","right",1,1,0,0,FALSE,"P_M_keir_starmer.png P_M_nigel_farage.png"
5064,"E_M_Michael_McIntyr.png","P_M_david_camer.png","FALSE","pictures/stimuli/E","pictures/stimuli/P","M","M","5","55057a56fdf99b5b566a70bb","06/30/2022, 11:50:03",-1.14583330230205,"29","Female","right",1,1,0,0,FALSE,"E_M_Michael_McIntyr.png P_M_david_camer.png"
2880,"E_F_Julie_Walters.png","E_M_Michael_McIntyr.png","TRUE","pictures/stimuli/E","pictures/stimuli/E","F","M","5","55057a56fdf99b5b566a70bb","06/30/2022, 11:50:03",-1.14583330230205,"29","Female","right",1,1,0,0,FALSE,"E_F_Julie_Walters.png E_M_Michael_McIntyr.png"
3151,"E_M_Jimmy_Carr.png","E_M_Simon_Pegg.png","TRUE","pictures/stimuli/E","pictures/stimuli/E","M","M","6","55057a56fdf99b5b566a70bb","06/30/2022, 11:50:03",0.683648440869291,"29","Female","right",1,1,0,0,FALSE,"E_M_Jimmy_Carr.png E_M_Simon_Pegg.png"
2457,"E_M_Ewan_McGregor.png","P_M_david_camer.png","FALSE","pictures/stimuli/E","pictures/stimuli/P","M","M","6","55057a56fdf99b5b566a70bb","06/30/2022, 11:50:03",0.683648440869291,"29","Female","right",1,1,0,0,FALSE,"E_M_Ewan_McGregor.png P_M_david_camer.png"
6380,"E_F_Sarah_Millican.png","E_M_Russell_Howard.png","TRUE","pictures/stimuli/E","pictures/stimuli/E","F","M","5","55057a56fdf99b5b566a70bb","06/30/2022, 11:50:03",-1.14583330230205,"29","Female","right",1,1,0,0,FALSE,"E_F_Sarah_Millican.png E_M_Russell_Howard.png"
2200,"E_F_Julie_Walters.png","P_M_Sajid_Javid.png","FALSE","pictures/stimuli/E","pictures/stimuli/P","F","M","6","55057a56fdf99b5b566a70bb","06/30/2022, 11:50:03",0.683648440869291,"29","Female","right",1,0,0,0,TRUE,"E_F_Julie_Walters.png P_M_Sajid_Javid.png"
4462,"E_F_Dawn_Roma_French.png","P_M_Gordon_Brown.png","FALSE","pictures/stimuli/E","pictures/stimuli/P","F","M","5","55057a56fdf99b5b566a70bb","06/30/2022, 11:50:03",-1.14583330230205,"29","Female","right",1,1,0,0,FALSE,"E_F_Dawn_Roma_French.png P_M_Gordon_Brown.png"
4172,"E_M_Simon_Pegg.png","P_M_keir_starmer.png","FALSE","pictures/stimuli/E","pictures/stimuli/P","M","M","6","55057a56fdf99b5b566a70bb","06/30/2022, 11:50:03",0.683648440869291,"29","Female","right",1,1,0,0,FALSE,"E_M_Simon_Pegg.png P_M_keir_starmer.png"
2230,"E_M_Simon_Pegg.png","P_F_Theresa_May.png","FALSE","pictures/stimuli/E","pictures/stimuli/P","M","F","6","55057a56fdf99b5b566a70bb","06/30/2022, 11:50:03",0.683648440869291,"29","Female","right",1,1,0,0,FALSE,"E_M_Simon_Pegg.png P_F_Theresa_May.png"
2293,"E_M_Simon_Pegg.png","P_M_Sajid_Javid.png","FALSE","pictures/stimuli/E","pictures/stimuli/P","M","M","6","55057a56fdf99b5b566a70bb","06/30/2022, 11:50:03",0.683648440869291,"29","Female","right",1,0,0,0,TRUE,"E_M_Simon_Pegg.png P_M_Sajid_Javid.png"
3155,"E_M_Peter_Kay.png","P_M_Michael_Gove.png","FALSE","pictures/stimuli/E","pictures/stimuli/P","M","M","5","55057a56fdf99b5b566a70bb","06/30/2022, 11:50:03",-1.14583330230205,"29","Female","right",1,1,0,0,FALSE,"E_M_Peter_Kay.png P_M_Michael_Gove.png"
2877,"P_F_nicola_sturge.png","P_M_keir_starmer.png","TRUE","pictures/stimuli/P","pictures/stimuli/P","F","M","5","55057a56fdf99b5b566a70bb","06/30/2022, 11:50:03",-1.14583330230205,"29","Female","right",1,1,0,0,FALSE,"P_F_nicola_sturge.png P_M_keir_starmer.png"
3301,"E_M_Russell_Howard.png","P_M_david_camer.png","FALSE","pictures/stimuli/E","pictures/stimuli/P","M","M","6","55057a56fdf99b5b566a70bb","06/30/2022, 11:50:03",0.683648440869291,"29","Female","right",1,1,0,0,FALSE,"E_M_Russell_Howard.png P_M_david_camer.png"
2327,"E_M_Jimmy_Carr.png","P_M_Sajid_Javid.png","FALSE","pictures/stimuli/E","pictures/stimuli/P","M","M","6","55057a56fdf99b5b566a70bb","06/30/2022, 11:50:03",0.683648440869291,"29","Female","right",1,0,0,0,TRUE,"E_M_Jimmy_Carr.png P_M_Sajid_Javid.png"
2374,"E_M_Peter_Kay.png","E_M_Russell_Howard.png","TRUE","pictures/stimuli/E","pictures/stimuli/E","M","M","6","55057a56fdf99b5b566a70bb","06/30/2022, 11:50:03",0.683648440869291,"29","Female","right",1,1,0,0,FALSE,"E_M_Peter_Kay.png E_M_Russell_Howard.png"
2908,"P_M_jeremy_corbyn.png","P_M_Sajid_Javid.png","TRUE","pictures/stimuli/P","pictures/stimuli/P","M","M","6","55057a56fdf99b5b566a70bb","06/30/2022, 11:50:03",0.683648440869291,"29","Female","right",1,0,0,0,TRUE,"P_M_jeremy_corbyn.png P_M_Sajid_Javid.png"
3347,"E_F_Julie_Walters.png","E_M_Simon_Pegg.png","TRUE","pictures/stimuli/E","pictures/stimuli/E","F","M","5","55057a56fdf99b5b566a70bb","06/30/2022, 11:50:03",-1.14583330230205,"29","Female","right",1,1,0,0,FALSE,"E_F_Julie_Walters.png E_M_Simon_Pegg.png"
3767,"P_M_nigel_farage.png","P_M_Tony_Blair.png","TRUE","pictures/stimuli/P","pictures/stimuli/P","M","M","4","55057a56fdf99b5b566a70bb","06/30/2022, 11:50:03",-2.9753150454734,"29","Female","right",1,1,0,0,FALSE,"P_M_nigel_farage.png P_M_Tony_Blair.png"
2167,"E_F_Dawn_Roma_French.png","E_M_Russell_Howard.png","TRUE","pictures/stimuli/E","pictures/stimuli/E","F","M","6","55057a56fdf99b5b566a70bb","06/30/2022, 11:50:03",0.683648440869291,"29","Female","right",1,1,0,0,FALSE,"E_F_Dawn_Roma_French.png E_M_Russell_Howard.png"
4812,"P_F_nicola_sturge.png","P_M_david_camer.png","TRUE","pictures/stimuli/P","pictures/stimuli/P","F","M","5","55057a56fdf99b5b566a70bb","06/30/2022, 11:50:03",-1.14583330230205,"29","Female","right",1,1,0,0,FALSE,"P_F_nicola_sturge.png P_M_david_camer.png"
2404,"E_M_Peter_Kay.png","P_F_Theresa_May.png","FALSE","pictures/stimuli/E","pictures/stimuli/P","M","F","6","55057a56fdf99b5b566a70bb","06/30/2022, 11:50:03",0.683648440869291,"29","Female","right",1,1,0,0,FALSE,"E_M_Peter_Kay.png P_F_Theresa_May.png"
3326,"P_M_david_camer.png","P_M_nigel_farage.png","TRUE","pictures/stimuli/P","pictures/stimuli/P","M","M","6","55057a56fdf99b5b566a70bb","06/30/2022, 11:50:03",0.683648440869291,"29","Female","right",1,1,0,0,FALSE,"P_M_david_camer.png P_M_nigel_farage.png"
4044,"E_F_Sarah_Millican.png","P_F_Theresa_May.png","FALSE","pictures/stimuli/E","pictures/stimuli/P","F","F","6","55057a56fdf99b5b566a70bb","06/30/2022, 11:50:03",0.683648440869291,"29","Female","right",1,1,0,0,FALSE,"E_F_Sarah_Millican.png P_F_Theresa_May.png"
3859,"E_M_Ewan_McGregor.png","P_M_jeremy_corbyn.png","FALSE","pictures/stimuli/E","pictures/stimuli/P","M","M","5","55057a56fdf99b5b566a70bb","06/30/2022, 11:50:03",-1.14583330230205,"29","Female","right",1,1,0,0,FALSE,"E_M_Ewan_McGregor.png P_M_jeremy_corbyn.png"
2092,"E_F_Dawn_Roma_French.png","P_M_jeremy_corbyn.png","FALSE","pictures/stimuli/E","pictures/stimuli/P","F","M","6","55057a56fdf99b5b566a70bb","06/30/2022, 11:50:03",0.683648440869291,"29","Female","right",1,1,0,0,FALSE,"E_F_Dawn_Roma_French.png P_M_jeremy_corbyn.png"
4697,"E_M_Russell_Howard.png","P_M_keir_starmer.png","FALSE","pictures/stimuli/E","pictures/stimuli/P","M","M","4","55057a56fdf99b5b566a70bb","06/30/2022, 11:50:03",-2.9753150454734,"29","Female","right",1,1,0,0,FALSE,"E_M_Russell_Howard.png P_M_keir_starmer.png"
3503,"E_F_Sarah_Millican.png","E_M_Michael_McIntyr.png","TRUE","pictures/stimuli/E","pictures/stimuli/E","F","M","5","55057a56fdf99b5b566a70bb","06/30/2022, 11:50:03",-1.14583330230205,"29","Female","right",1,1,0,0,FALSE,"E_F_Sarah_Millican.png E_M_Michael_McIntyr.png"
5322,"P_M_jeremy_corbyn.png","P_M_Tony_Blair.png","TRUE","pictures/stimuli/P","pictures/stimuli/P","M","M","6","55057a56fdf99b5b566a70bb","06/30/2022, 11:50:03",0.683648440869291,"29","Female","right",1,1,0,0,FALSE,"P_M_jeremy_corbyn.png P_M_Tony_Blair.png"
3972,"E_F_Dawn_Roma_French.png","P_M_Sajid_Javid.png","FALSE","pictures/stimuli/E","pictures/stimuli/P","F","M","6","55057a56fdf99b5b566a70bb","06/30/2022, 11:50:03",0.683648440869291,"29","Female","right",1,0,0,0,TRUE,"E_F_Dawn_Roma_French.png P_M_Sajid_Javid.png"
4744,"E_F_Sarah_Millican.png","P_F_nicola_sturge.png","FALSE","pictures/stimuli/E","pictures/stimuli/P","F","F","4","55057a56fdf99b5b566a70bb","06/30/2022, 11:50:03",-2.9753150454734,"29","Female","right",1,1,0,0,FALSE,"E_F_Sarah_Millican.png P_F_nicola_sturge.png"
3674,"E_M_Simon_Pegg.png","P_M_Gordon_Brown.png","FALSE","pictures/stimuli/E","pictures/stimuli/P","M","M","5","55057a56fdf99b5b566a70bb","06/30/2022, 11:50:03",-1.14583330230205,"29","Female","right",1,1,0,0,FALSE,"E_M_Simon_Pegg.png P_M_Gordon_Brown.png"
2603,"E_F_Sarah_Millican.png","P_M_keir_starmer.png","FALSE","pictures/stimuli/E","pictures/stimuli/P","F","M","5","55057a56fdf99b5b566a70bb","06/30/2022, 11:50:03",-1.14583330230205,"29","Female","right",1,1,0,0,FALSE,"E_F_Sarah_Millican.png P_M_keir_starmer.png"
2694,"P_F_Theresa_May.png","P_M_Gordon_Brown.png","TRUE","pictures/stimuli/P","pictures/stimuli/P","F","M","5","55057a56fdf99b5b566a70bb","06/30/2022, 11:50:03",-1.14583330230205,"29","Female","right",1,1,0,0,FALSE,"P_F_Theresa_May.png P_M_Gordon_Brown.png"
1789,"E_M_Michael_McIntyr.png","E_M_Peter_Kay.png","TRUE","pictures/stimuli/E","pictures/stimuli/E","M","M","6","55057a56fdf99b5b566a70bb","06/30/2022, 11:50:03",0.683648440869291,"29","Female","right",1,1,0,0,FALSE,"E_M_Michael_McIntyr.png E_M_Peter_Kay.png"
2913,"E_F_Julie_Walters.png","P_M_jeremy_corbyn.png","FALSE","pictures/stimuli/E","pictures/stimuli/P","F","M","5","55057a56fdf99b5b566a70bb","06/30/2022, 11:50:03",-1.14583330230205,"29","Female","right",1,1,0,0,FALSE,"E_F_Julie_Walters.png P_M_jeremy_corbyn.png"
2048,"P_M_Michael_Gove.png","P_M_Sajid_Javid.png","TRUE","pictures/stimuli/P","pictures/stimuli/P","M","M","6","55057a56fdf99b5b566a70bb","06/30/2022, 11:50:03",0.683648440869291,"29","Female","right",1,0,0,0,TRUE,"P_M_Michael_Gove.png P_M_Sajid_Javid.png"
4452,"E_M_Ewan_McGregor.png","P_M_Michael_Gove.png","FALSE","pictures/stimuli/E","pictures/stimuli/P","M","M","6","55057a56fdf99b5b566a70bb","06/30/2022, 11:50:03",0.683648440869291,"29","Female","right",1,1,0,0,FALSE,"E_M_Ewan_McGregor.png P_M_Michael_Gove.png"
2558,"E_F_Jennifer_Saunders.png","P_F_nicola_sturge.png","FALSE","pictures/stimuli/E","pictures/stimuli/P","F","F","5","55057a56fdf99b5b566a70bb","06/30/2022, 11:50:03",-1.14583330230205,"29","Female","right",0,1,0,0,TRUE,"E_F_Jennifer_Saunders.png P_F_nicola_sturge.png"
1860,"E_M_Jimmy_Carr.png","P_M_Gordon_Brown.png","FALSE","pictures/stimuli/E","pictures/stimuli/P","M","M","6","55057a56fdf99b5b566a70bb","06/30/2022, 11:50:03",0.683648440869291,"29","Female","right",1,1,0,0,FALSE,"E_M_Jimmy_Carr.png P_M_Gordon_Brown.png"
2801,"E_F_Julie_Walters.png","P_M_Michael_Gove.png","FALSE","pictures/stimuli/E","pictures/stimuli/P","F","M","6","55057a56fdf99b5b566a70bb","06/30/2022, 11:50:03",0.683648440869291,"29","Female","right",1,1,0,0,FALSE,"E_F_Julie_Walters.png P_M_Michael_Gove.png"
2601,"E_F_Dawn_Roma_French.png","E_M_Peter_Kay.png","TRUE","pictures/stimuli/E","pictures/stimuli/E","F","M","5","55057a56fdf99b5b566a70bb","06/30/2022, 11:50:03",-1.14583330230205,"29","Female","right",1,1,0,0,FALSE,"E_F_Dawn_Roma_French.png E_M_Peter_Kay.png"
2730,"E_M_Jimmy_Carr.png","P_M_jeremy_corbyn.png","FALSE","pictures/stimuli/E","pictures/stimuli/P","M","M","6","55057a56fdf99b5b566a70bb","06/30/2022, 11:50:03",0.683648440869291,"29","Female","right",1,1,0,0,FALSE,"E_M_Jimmy_Carr.png P_M_jeremy_corbyn.png"
1941,"P_M_david_camer.png","P_M_Sajid_Javid.png","TRUE","pictures/stimuli/P","pictures/stimuli/P","M","M","6","55057a56fdf99b5b566a70bb","06/30/2022, 11:50:03",0.683648440869291,"29","Female","right",1,0,0,0,TRUE,"P_M_david_camer.png P_M_Sajid_Javid.png"
3829,"E_F_Dawn_Roma_French.png","P_F_nicola_sturge.png","FALSE","pictures/stimuli/E","pictures/stimuli/P","F","F","5","55057a56fdf99b5b566a70bb","06/30/2022, 11:50:03",-1.14583330230205,"29","Female","right",1,1,0,0,FALSE,"E_F_Dawn_Roma_French.png P_F_nicola_sturge.png"
2892,"E_F_Dawn_Roma_French.png","E_M_Ewan_McGregor.png","TRUE","pictures/stimuli/E","pictures/stimuli/E","F","M","6","55057a56fdf99b5b566a70bb","06/30/2022, 11:50:03",0.683648440869291,"29","Female","right",1,1,0,0,FALSE,"E_F_Dawn_Roma_French.png E_M_Ewan_McGregor.png"
2915,"E_F_Sarah_Millican.png","E_M_Peter_Kay.png","TRUE","pictures/stimuli/E","pictures/stimuli/E","F","M","5","55057a56fdf99b5b566a70bb","06/30/2022, 11:50:03",-1.14583330230205,"29","Female","right",1,1,0,0,FALSE,"E_F_Sarah_Millican.png E_M_Peter_Kay.png"
4770,"E_M_Russell_Howard.png","P_F_Theresa_May.png","FALSE","pictures/stimuli/E","pictures/stimuli/P","M","F","6","55057a56fdf99b5b566a70bb","06/30/2022, 11:50:03",0.683648440869291,"29","Female","right",1,1,0,0,FALSE,"E_M_Russell_Howard.png P_F_Theresa_May.png"
3165,"E_F_Jennifer_Saunders.png","P_M_Michael_Gove.png","FALSE","pictures/stimuli/E","pictures/stimuli/P","F","M","6","55057a56fdf99b5b566a70bb","06/30/2022, 11:50:03",0.683648440869291,"29","Female","right",0,1,0,0,TRUE,"E_F_Jennifer_Saunders.png P_M_Michael_Gove.png"
6070,"P_F_nicola_sturge.png","P_M_jeremy_corbyn.png","TRUE","pictures/stimuli/P","pictures/stimuli/P","F","M","6","55057a56fdf99b5b566a70bb","06/30/2022, 11:50:03",0.683648440869291,"29","Female","right",1,1,0,0,FALSE,"P_F_nicola_sturge.png P_M_jeremy_corbyn.png"
2432,"E_M_Jimmy_Carr.png","P_F_Theresa_May.png","FALSE","pictures/stimuli/E","pictures/stimuli/P","M","F","6","55057a56fdf99b5b566a70bb","06/30/2022, 11:50:03",0.683648440869291,"29","Female","right",1,1,0,0,FALSE,"E_M_Jimmy_Carr.png P_F_Theresa_May.png"
3492,"E_M_Russell_Howard.png","P_M_Gordon_Brown.png","FALSE","pictures/stimuli/E","pictures/stimuli/P","M","M","5","55057a56fdf99b5b566a70bb","06/30/2022, 11:50:03",-1.14583330230205,"29","Female","right",1,1,0,0,FALSE,"E_M_Russell_Howard.png P_M_Gordon_Brown.png"
2964,"E_F_Jennifer_Saunders.png","E_F_Sarah_Millican.png","TRUE","pictures/stimuli/E","pictures/stimuli/E","F","F","6","55057a56fdf99b5b566a70bb","06/30/2022, 11:50:03",0.683648440869291,"29","Female","right",0,1,0,0,TRUE,"E_F_Jennifer_Saunders.png E_F_Sarah_Millican.png"
3484,"E_F_Sarah_Millican.png","E_M_Ewan_McGregor.png","TRUE","pictures/stimuli/E","pictures/stimuli/E","F","M","5","55057a56fdf99b5b566a70bb","06/30/2022, 11:50:03",-1.14583330230205,"29","Female","right",1,1,0,0,FALSE,"E_F_Sarah_Millican.png E_M_Ewan_McGregor.png"
3017,"P_F_Theresa_May.png","P_M_jeremy_corbyn.png","TRUE","pictures/stimuli/P","pictures/stimuli/P","F","M","6","55057a56fdf99b5b566a70bb","06/30/2022, 11:50:03",0.683648440869291,"29","Female","right",1,1,0,0,FALSE,"P_F_Theresa_May.png P_M_jeremy_corbyn.png"
2664,"E_M_Michael_McIntyr.png","P_M_Tony_Blair.png","FALSE","pictures/stimuli/E","pictures/stimuli/P","M","M","6","55057a56fdf99b5b566a70bb","06/30/2022, 11:50:03",0.683648440869291,"29","Female","right",1,1,0,0,FALSE,"E_M_Michael_McIntyr.png P_M_Tony_Blair.png"
5349,"E_F_Dawn_Roma_French.png","E_M_Michael_McIntyr.png","TRUE","pictures/stimuli/E","pictures/stimuli/E","F","M","5","55057a56fdf99b5b566a70bb","06/30/2022, 11:50:03",-1.14583330230205,"29","Female","right",1,1,0,0,FALSE,"E_F_Dawn_Roma_French.png E_M_Michael_McIntyr.png"
3687,"E_M_Ewan_McGregor.png","P_M_keir_starmer.png","FALSE","pictures/stimuli/E","pictures/stimuli/P","M","M","5","55057a56fdf99b5b566a70bb","06/30/2022, 11:50:03",-1.14583330230205,"29","Female","right",1,1,0,0,FALSE,"E_M_Ewan_McGregor.png P_M_keir_starmer.png"
4554,"E_M_Russell_Howard.png","P_M_jeremy_corbyn.png","FALSE","pictures/stimuli/E","pictures/stimuli/P","M","M","6","55057a56fdf99b5b566a70bb","06/30/2022, 11:50:03",0.683648440869291,"29","Female","right",1,1,0,0,FALSE,"E_M_Russell_Howard.png P_M_jeremy_corbyn.png"
7319,"P_M_Michael_Gove.png","P_M_Sajid_Javid.png","TRUE","pictures/stimuli/P","pictures/stimuli/P","M","M","6","578a060882f7f90001ee801e","06/30/2022, 09:34:31",1.05234369865286,"31","Female","right",1,1,0,0,FALSE,"P_M_Michael_Gove.png P_M_Sajid_Javid.png"
3693,"E_F_Julie_Walters.png","P_M_jeremy_corbyn.png","FALSE","pictures/stimuli/E","pictures/stimuli/P","F","M","5","578a060882f7f90001ee801e","06/30/2022, 09:34:31",-0.077290780127046,"31","Female","right",1,1,0,0,FALSE,"E_F_Julie_Walters.png P_M_jeremy_corbyn.png"
5893,"P_M_Gordon_Brown.png","P_M_Sajid_Javid.png","TRUE","pictures/stimuli/P","pictures/stimuli/P","M","M","6","578a060882f7f90001ee801e","06/30/2022, 09:34:31",1.05234369865286,"31","Female","right",1,1,0,0,FALSE,"P_M_Gordon_Brown.png P_M_Sajid_Javid.png"
5954,"E_M_Simon_Pegg.png","P_F_Theresa_May.png","FALSE","pictures/stimuli/E","pictures/stimuli/P","M","F","5","578a060882f7f90001ee801e","06/30/2022, 09:34:31",-0.077290780127046,"31","Female","right",1,1,0,0,FALSE,"E_M_Simon_Pegg.png P_F_Theresa_May.png"
5593,"E_M_Ewan_McGregor.png","E_M_Michael_McIntyr.png","TRUE","pictures/stimuli/E","pictures/stimuli/E","M","M","4","578a060882f7f90001ee801e","06/30/2022, 09:34:31",-1.20692525890695,"31","Female","right",0,1,0,0,TRUE,"E_M_Ewan_McGregor.png E_M_Michael_McIntyr.png"
4235,"E_M_Peter_Kay.png","P_M_Sajid_Javid.png","FALSE","pictures/stimuli/E","pictures/stimuli/P","M","M","5","578a060882f7f90001ee801e","06/30/2022, 09:34:31",-0.077290780127046,"31","Female","right",1,1,0,0,FALSE,"E_M_Peter_Kay.png P_M_Sajid_Javid.png"
7016,"E_F_Sarah_Millican.png","E_M_Simon_Pegg.png","TRUE","pictures/stimuli/E","pictures/stimuli/E","F","M","5","578a060882f7f90001ee801e","06/30/2022, 09:34:31",-0.077290780127046,"31","Female","right",1,1,0,0,FALSE,"E_F_Sarah_Millican.png E_M_Simon_Pegg.png"
4526,"E_F_Jennifer_Saunders.png","E_M_Ewan_McGregor.png","TRUE","pictures/stimuli/E","pictures/stimuli/E","F","M","5","578a060882f7f90001ee801e","06/30/2022, 09:34:31",-0.077290780127046,"31","Female","right",1,0,0,0,TRUE,"E_F_Jennifer_Saunders.png E_M_Ewan_McGregor.png"
5758,"P_M_david_camer.png","P_M_keir_starmer.png","TRUE","pictures/stimuli/P","pictures/stimuli/P","M","M","4","578a060882f7f90001ee801e","06/30/2022, 09:34:31",-1.20692525890695,"31","Female","right",1,1,0,0,FALSE,"P_M_david_camer.png P_M_keir_starmer.png"
7673,"E_M_Russell_Howard.png","P_M_david_camer.png","FALSE","pictures/stimuli/E","pictures/stimuli/P","M","M","5","578a060882f7f90001ee801e","06/30/2022, 09:34:31",-0.077290780127046,"31","Female","right",1,1,0,0,FALSE,"E_M_Russell_Howard.png P_M_david_camer.png"
3746,"E_F_Julie_Walters.png","P_M_david_camer.png","FALSE","pictures/stimuli/E","pictures/stimuli/P","F","M","6","578a060882f7f90001ee801e","06/30/2022, 09:34:31",1.05234369865286,"31","Female","right",1,1,0,0,FALSE,"E_F_Julie_Walters.png P_M_david_camer.png"
5053,"P_F_Theresa_May.png","P_M_david_camer.png","TRUE","pictures/stimuli/P","pictures/stimuli/P","F","M","5","578a060882f7f90001ee801e","06/30/2022, 09:34:31",-0.077290780127046,"31","Female","right",1,1,0,0,FALSE,"P_F_Theresa_May.png P_M_david_camer.png"
7369,"E_F_Jennifer_Saunders.png","E_F_Sarah_Millican.png","TRUE","pictures/stimuli/E","pictures/stimuli/E","F","F","5","578a060882f7f90001ee801e","06/30/2022, 09:34:31",-0.077290780127046,"31","Female","right",1,1,0,0,FALSE,"E_F_Jennifer_Saunders.png E_F_Sarah_Millican.png"
6734,"E_M_Russell_Howard.png","P_M_Gordon_Brown.png","FALSE","pictures/stimuli/E","pictures/stimuli/P","M","M","5","578a060882f7f90001ee801e","06/30/2022, 09:34:31",-0.077290780127046,"31","Female","right",1,1,0,0,FALSE,"E_M_Russell_Howard.png P_M_Gordon_Brown.png"
5603,"P_F_nicola_sturge.png","P_F_Theresa_May.png","TRUE","pictures/stimuli/P","pictures/stimuli/P","F","F","4","578a060882f7f90001ee801e","06/30/2022, 09:34:31",-1.20692525890695,"31","Female","right",1,1,0,0,FALSE,"P_F_nicola_sturge.png P_F_Theresa_May.png"
4871,"P_M_david_camer.png","P_M_Gordon_Brown.png","TRUE","pictures/stimuli/P","pictures/stimuli/P","M","M","5","578a060882f7f90001ee801e","06/30/2022, 09:34:31",-0.077290780127046,"31","Female","right",1,1,0,0,FALSE,"P_M_david_camer.png P_M_Gordon_Brown.png"
4917,"E_F_Julie_Walters.png","E_M_Russell_Howard.png","TRUE","pictures/stimuli/E","pictures/stimuli/E","F","M","4","578a060882f7f90001ee801e","06/30/2022, 09:34:31",-1.20692525890695,"31","Female","right",1,1,0,0,FALSE,"E_F_Julie_Walters.png E_M_Russell_Howard.png"
4634,"E_M_Michael_McIntyr.png","P_F_nicola_sturge.png","FALSE","pictures/stimuli/E","pictures/stimuli/P","M","F","4","578a060882f7f90001ee801e","06/30/2022, 09:34:31",-1.20692525890695,"31","Female","right",1,1,0,0,FALSE,"E_M_Michael_McIntyr.png P_F_nicola_sturge.png"
6164,"P_M_nigel_farage.png","P_M_Sajid_Javid.png","TRUE","pictures/stimuli/P","pictures/stimuli/P","M","M","6","578a060882f7f90001ee801e","06/30/2022, 09:34:31",1.05234369865286,"31","Female","right",1,1,0,0,FALSE,"P_M_nigel_farage.png P_M_Sajid_Javid.png"
6995,"E_F_Jennifer_Saunders.png","P_M_jeremy_corbyn.png","FALSE","pictures/stimuli/E","pictures/stimuli/P","F","M","5","578a060882f7f90001ee801e","06/30/2022, 09:34:31",-0.077290780127046,"31","Female","right",1,1,0,0,FALSE,"E_F_Jennifer_Saunders.png P_M_jeremy_corbyn.png"
4628,"P_F_Theresa_May.png","P_M_Michael_Gove.png","TRUE","pictures/stimuli/P","pictures/stimuli/P","F","M","5","578a060882f7f90001ee801e","06/30/2022, 09:34:31",-0.077290780127046,"31","Female","right",1,1,0,0,FALSE,"P_F_Theresa_May.png P_M_Michael_Gove.png"
4890,"E_M_Michael_McIntyr.png","E_M_Peter_Kay.png","TRUE","pictures/stimuli/E","pictures/stimuli/E","M","M","2","578a060882f7f90001ee801e","06/30/2022, 09:34:31",-3.46619421646675,"31","Female","right",1,1,0,0,FALSE,"E_M_Michael_McIntyr.png E_M_Peter_Kay.png"
6587,"E_M_Simon_Pegg.png","P_M_jeremy_corbyn.png","FALSE","pictures/stimuli/E","pictures/stimuli/P","M","M","4","578a060882f7f90001ee801e","06/30/2022, 09:34:31",-1.20692525890695,"31","Female","right",1,1,0,0,FALSE,"E_M_Simon_Pegg.png P_M_jeremy_corbyn.png"
6395,"E_M_Ewan_McGregor.png","P_M_nigel_farage.png","FALSE","pictures/stimuli/E","pictures/stimuli/P","M","M","5","578a060882f7f90001ee801e","06/30/2022, 09:34:31",-0.077290780127046,"31","Female","right",0,1,0,0,TRUE,"E_M_Ewan_McGregor.png P_M_nigel_farage.png"
6352,"P_F_Theresa_May.png","P_M_jeremy_corbyn.png","TRUE","pictures/stimuli/P","pictures/stimuli/P","F","M","5","578a060882f7f90001ee801e","06/30/2022, 09:34:31",-0.077290780127046,"31","Female","right",1,1,0,0,FALSE,"P_F_Theresa_May.png P_M_jeremy_corbyn.png"
5900,"E_M_Jimmy_Carr.png","P_M_jeremy_corbyn.png","FALSE","pictures/stimuli/E","pictures/stimuli/P","M","M","4","578a060882f7f90001ee801e","06/30/2022, 09:34:31",-1.20692525890695,"31","Female","right",1,1,0,0,FALSE,"E_M_Jimmy_Carr.png P_M_jeremy_corbyn.png"
7260,"E_F_Sarah_Millican.png","E_M_Ewan_McGregor.png","TRUE","pictures/stimuli/E","pictures/stimuli/E","F","M","5","578a060882f7f90001ee801e","06/30/2022, 09:34:31",-0.077290780127046,"31","Female","right",1,0,0,0,TRUE,"E_F_Sarah_Millican.png E_M_Ewan_McGregor.png"
8873,"E_F_Dawn_Roma_French.png","P_M_jeremy_corbyn.png","FALSE","pictures/stimuli/E","pictures/stimuli/P","F","M","6","578a060882f7f90001ee801e","06/30/2022, 09:34:31",1.05234369865286,"31","Female","right",1,1,0,0,FALSE,"E_F_Dawn_Roma_French.png P_M_jeremy_corbyn.png"
5056,"E_M_Ewan_McGregor.png","E_M_Simon_Pegg.png","TRUE","pictures/stimuli/E","pictures/stimuli/E","M","M","4","578a060882f7f90001ee801e","06/30/2022, 09:34:31",-1.20692525890695,"31","Female","right",0,1,0,0,TRUE,"E_M_Ewan_McGregor.png E_M_Simon_Pegg.png"
8316,"P_M_keir_starmer.png","P_M_Tony_Blair.png","TRUE","pictures/stimuli/P","pictures/stimuli/P","M","M","4","578a060882f7f90001ee801e","06/30/2022, 09:34:31",-1.20692525890695,"31","Female","right",1,1,0,0,FALSE,"P_M_keir_starmer.png P_M_Tony_Blair.png"
5345,"E_M_Jimmy_Carr.png","P_F_nicola_sturge.png","FALSE","pictures/stimuli/E","pictures/stimuli/P","M","F","4","578a060882f7f90001ee801e","06/30/2022, 09:34:31",-1.20692525890695,"31","Female","right",1,1,0,0,FALSE,"E_M_Jimmy_Carr.png P_F_nicola_sturge.png"
6102,"E_F_Dawn_Roma_French.png","E_M_Russell_Howard.png","TRUE","pictures/stimuli/E","pictures/stimuli/E","F","M","6","578a060882f7f90001ee801e","06/30/2022, 09:34:31",1.05234369865286,"31","Female","right",1,1,0,0,FALSE,"E_F_Dawn_Roma_French.png E_M_Russell_Howard.png"
4257,"P_F_nicola_sturge.png","P_M_david_camer.png","TRUE","pictures/stimuli/P","pictures/stimuli/P","F","M","3","578a060882f7f90001ee801e","06/30/2022, 09:34:31",-2.33655973768685,"31","Female","right",1,1,0,0,FALSE,"P_F_nicola_sturge.png P_M_david_camer.png"
4672,"E_M_Peter_Kay.png","P_M_keir_starmer.png","FALSE","pictures/stimuli/E","pictures/stimuli/P","M","M","5","578a060882f7f90001ee801e","06/30/2022, 09:34:31",-0.077290780127046,"31","Female","right",1,1,0,0,FALSE,"E_M_Peter_Kay.png P_M_keir_starmer.png"
3708,"E_M_Ewan_McGregor.png","P_M_Tony_Blair.png","FALSE","pictures/stimuli/E","pictures/stimuli/P","M","M","4","578a060882f7f90001ee801e","06/30/2022, 09:34:31",-1.20692525890695,"31","Female","right",0,1,0,0,TRUE,"E_M_Ewan_McGregor.png P_M_Tony_Blair.png"
2554,"E_M_Ewan_McGregor.png","P_M_keir_starmer.png","FALSE","pictures/stimuli/E","pictures/stimuli/P","M","M","4","578a060882f7f90001ee801e","06/30/2022, 09:34:31",-1.20692525890695,"31","Female","right",0,1,0,0,TRUE,"E_M_Ewan_McGregor.png P_M_keir_starmer.png"
5408,"E_M_Peter_Kay.png","P_F_Theresa_May.png","FALSE","pictures/stimuli/E","pictures/stimuli/P","M","F","6","578a060882f7f90001ee801e","06/30/2022, 09:34:31",1.05234369865286,"31","Female","right",1,1,0,0,FALSE,"E_M_Peter_Kay.png P_F_Theresa_May.png"
7375,"P_M_Gordon_Brown.png","P_M_Michael_Gove.png","TRUE","pictures/stimuli/P","pictures/stimuli/P","M","M","6","578a060882f7f90001ee801e","06/30/2022, 09:34:31",1.05234369865286,"31","Female","right",1,1,0,0,FALSE,"P_M_Gordon_Brown.png P_M_Michael_Gove.png"
3930,"E_F_Julie_Walters.png","E_M_Ewan_McGregor.png","TRUE","pictures/stimuli/E","pictures/stimuli/E","F","M","5","578a060882f7f90001ee801e","06/30/2022, 09:34:31",-0.077290780127046,"31","Female","right",1,0,0,0,TRUE,"E_F_Julie_Walters.png E_M_Ewan_McGregor.png"
7048,"E_M_Jimmy_Carr.png","E_M_Michael_McIntyr.png","TRUE","pictures/stimuli/E","pictures/stimuli/E","M","M","3","578a060882f7f90001ee801e","06/30/2022, 09:34:31",-2.33655973768685,"31","Female","right",1,1,0,0,FALSE,"E_M_Jimmy_Carr.png E_M_Michael_McIntyr.png"
3772,"E_M_Simon_Pegg.png","P_F_nicola_sturge.png","FALSE","pictures/stimuli/E","pictures/stimuli/P","M","F","6","578a060882f7f90001ee801e","06/30/2022, 09:34:31",1.05234369865286,"31","Female","right",1,1,0,0,FALSE,"E_M_Simon_Pegg.png P_F_nicola_sturge.png"
7218,"P_M_Gordon_Brown.png","P_M_nigel_farage.png","TRUE","pictures/stimuli/P","pictures/stimuli/P","M","M","4","578a060882f7f90001ee801e","06/30/2022, 09:34:31",-1.20692525890695,"31","Female","right",1,1,0,0,FALSE,"P_M_Gordon_Brown.png P_M_nigel_farage.png"
9790,"P_M_Sajid_Javid.png","P_M_Tony_Blair.png","TRUE","pictures/stimuli/P","pictures/stimuli/P","M","M","6","578a060882f7f90001ee801e","06/30/2022, 09:34:31",1.05234369865286,"31","Female","right",1,1,0,0,FALSE,"P_M_Sajid_Javid.png P_M_Tony_Blair.png"
5521,"E_F_Julie_Walters.png","P_M_nigel_farage.png","FALSE","pictures/stimuli/E","pictures/stimuli/P","F","M","5","578a060882f7f90001ee801e","06/30/2022, 09:34:31",-0.077290780127046,"31","Female","right",1,1,0,0,FALSE,"E_F_Julie_Walters.png P_M_nigel_farage.png"
4258,"E_M_Jimmy_Carr.png","P_M_nigel_farage.png","FALSE","pictures/stimuli/E","pictures/stimuli/P","M","M","6","578a060882f7f90001ee801e","06/30/2022, 09:34:31",1.05234369865286,"31","Female","right",1,1,0,0,FALSE,"E_M_Jimmy_Carr.png P_M_nigel_farage.png"
4016,"E_M_Simon_Pegg.png","P_M_nigel_farage.png","FALSE","pictures/stimuli/E","pictures/stimuli/P","M","M","5","578a060882f7f90001ee801e","06/30/2022, 09:34:31",-0.077290780127046,"31","Female","right",1,1,0,0,FALSE,"E_M_Simon_Pegg.png P_M_nigel_farage.png"
4676,"E_M_Peter_Kay.png","P_M_nigel_farage.png","FALSE","pictures/stimuli/E","pictures/stimuli/P","M","M","6","578a060882f7f90001ee801e","06/30/2022, 09:34:31",1.05234369865286,"31","Female","right",1,1,0,0,FALSE,"E_M_Peter_Kay.png P_M_nigel_farage.png"
4620,"P_M_nigel_farage.png","P_M_Tony_Blair.png","TRUE","pictures/stimuli/P","pictures/stimuli/P","M","M","5","578a060882f7f90001ee801e","06/30/2022, 09:34:31",-0.077290780127046,"31","Female","right",1,1,0,0,FALSE,"P_M_nigel_farage.png P_M_Tony_Blair.png"
7247,"E_F_Sarah_Millican.png","P_M_Michael_Gove.png","FALSE","pictures/stimuli/E","pictures/stimuli/P","F","M","5","578a060882f7f90001ee801e","06/30/2022, 09:34:31",-0.077290780127046,"31","Female","right",1,1,0,0,FALSE,"E_F_Sarah_Millican.png P_M_Michael_Gove.png"
7782,"P_F_nicola_sturge.png","P_M_Gordon_Brown.png","TRUE","pictures/stimuli/P","pictures/stimuli/P","F","M","6","578a060882f7f90001ee801e","06/30/2022, 09:34:31",1.05234369865286,"31","Female","right",1,1,0,0,FALSE,"P_F_nicola_sturge.png P_M_Gordon_Brown.png"
3465,"E_M_Peter_Kay.png","P_M_jeremy_corbyn.png","FALSE","pictures/stimuli/E","pictures/stimuli/P","M","M","6","578a060882f7f90001ee801e","06/30/2022, 09:34:31",1.05234369865286,"31","Female","right",1,1,0,0,FALSE,"E_M_Peter_Kay.png P_M_jeremy_corbyn.png"
3576,"E_M_Michael_McIntyr.png","P_M_Sajid_Javid.png","FALSE","pictures/stimuli/E","pictures/stimuli/P","M","M","6","578a060882f7f90001ee801e","06/30/2022, 09:34:31",1.05234369865286,"31","Female","right",1,1,0,0,FALSE,"E_M_Michael_McIntyr.png P_M_Sajid_Javid.png"
5933,"E_M_Michael_McIntyr.png","P_F_Theresa_May.png","FALSE","pictures/stimuli/E","pictures/stimuli/P","M","F","5","578a060882f7f90001ee801e","06/30/2022, 09:34:31",-0.077290780127046,"31","Female","right",1,1,0,0,FALSE,"E_M_Michael_McIntyr.png P_F_Theresa_May.png"
9839,"E_F_Julie_Walters.png","E_F_Sarah_Millican.png","TRUE","pictures/stimuli/E","pictures/stimuli/E","F","F","5","578a060882f7f90001ee801e","06/30/2022, 09:34:31",-0.077290780127046,"31","Female","right",1,1,0,0,FALSE,"E_F_Julie_Walters.png E_F_Sarah_Millican.png"
6472,"E_M_Peter_Kay.png","E_M_Russell_Howard.png","TRUE","pictures/stimuli/E","pictures/stimuli/E","M","M","6","578a060882f7f90001ee801e","06/30/2022, 09:34:31",1.05234369865286,"31","Female","right",1,1,0,0,FALSE,"E_M_Peter_Kay.png E_M_Russell_Howard.png"
4835,"E_F_Jennifer_Saunders.png","P_M_david_camer.png","FALSE","pictures/stimuli/E","pictures/stimuli/P","F","M","5","578a060882f7f90001ee801e","06/30/2022, 09:34:31",-0.077290780127046,"31","Female","right",1,1,0,0,FALSE,"E_F_Jennifer_Saunders.png P_M_david_camer.png"
4795,"E_M_Simon_Pegg.png","P_M_david_camer.png","FALSE","pictures/stimuli/E","pictures/stimuli/P","M","M","5","578a060882f7f90001ee801e","06/30/2022, 09:34:31",-0.077290780127046,"31","Female","right",1,1,0,0,FALSE,"E_M_Simon_Pegg.png P_M_david_camer.png"
7620,"E_M_Michael_McIntyr.png","P_M_keir_starmer.png","FALSE","pictures/stimuli/E","pictures/stimuli/P","M","M","5","578a060882f7f90001ee801e","06/30/2022, 09:34:31",-0.077290780127046,"31","Female","right",1,1,0,0,FALSE,"E_M_Michael_McIntyr.png P_M_keir_starmer.png"
4706,"E_F_Sarah_Millican.png","E_M_Jimmy_Carr.png","TRUE","pictures/stimuli/E","pictures/stimuli/E","F","M","4","578a060882f7f90001ee801e","06/30/2022, 09:34:31",-1.20692525890695,"31","Female","right",1,1,0,0,FALSE,"E_F_Sarah_Millican.png E_M_Jimmy_Carr.png"
4397,"P_F_nicola_sturge.png","P_M_Tony_Blair.png","TRUE","pictures/stimuli/P","pictures/stimuli/P","F","M","5","578a060882f7f90001ee801e","06/30/2022, 09:34:31",-0.077290780127046,"31","Female","right",1,1,0,0,FALSE,"P_F_nicola_sturge.png P_M_Tony_Blair.png"
4157,"E_F_Dawn_Roma_French.png","P_M_keir_starmer.png","FALSE","pictures/stimuli/E","pictures/stimuli/P","F","M","6","578a060882f7f90001ee801e","06/30/2022, 09:34:31",1.05234369865286,"31","Female","right",1,1,0,0,FALSE,"E_F_Dawn_Roma_French.png P_M_keir_starmer.png"
3019,"E_M_Ewan_McGregor.png","E_M_Russell_Howard.png","TRUE","pictures/stimuli/E","pictures/stimuli/E","M","M","4","578a060882f7f90001ee801e","06/30/2022, 09:34:31",-1.20692525890695,"31","Female","right",0,1,0,0,TRUE,"E_M_Ewan_McGregor.png E_M_Russell_Howard.png"
6670,"E_M_Russell_Howard.png","P_F_nicola_sturge.png","FALSE","pictures/stimuli/E","pictures/stimuli/P","M","F","6","578a060882f7f90001ee801e","06/30/2022, 09:34:31",1.05234369865286,"31","Female","right",1,1,0,0,FALSE,"E_M_Russell_Howard.png P_F_nicola_sturge.png"
6806,"E_M_Jimmy_Carr.png","P_M_Michael_Gove.png","FALSE","pictures/stimuli/E","pictures/stimuli/P","M","M","6","578a060882f7f90001ee801e","06/30/2022, 09:34:31",1.05234369865286,"31","Female","right",1,1,0,0,FALSE,"E_M_Jimmy_Carr.png P_M_Michael_Gove.png"
6427,"E_M_Russell_Howard.png","P_M_Michael_Gove.png","FALSE","pictures/stimuli/E","pictures/stimuli/P","M","M","6","578a060882f7f90001ee801e","06/30/2022, 09:34:31",1.05234369865286,"31","Female","right",1,1,0,0,FALSE,"E_M_Russell_Howard.png P_M_Michael_Gove.png"
5771,"E_M_Jimmy_Carr.png","E_M_Peter_Kay.png","TRUE","pictures/stimuli/E","pictures/stimuli/E","M","M","4","578a060882f7f90001ee801e","06/30/2022, 09:34:31",-1.20692525890695,"31","Female","right",1,1,0,0,FALSE,"E_M_Jimmy_Carr.png E_M_Peter_Kay.png"
10318,"E_F_Sarah_Millican.png","P_M_Tony_Blair.png","FALSE","pictures/stimuli/E","pictures/stimuli/P","F","M","5","578a060882f7f90001ee801e","06/30/2022, 09:34:31",-0.077290780127046,"31","Female","right",1,1,0,0,FALSE,"E_F_Sarah_Millican.png P_M_Tony_Blair.png"
7940,"E_F_Dawn_Roma_French.png","E_M_Jimmy_Carr.png","TRUE","pictures/stimuli/E","pictures/stimuli/E","F","M","3","578a060882f7f90001ee801e","06/30/2022, 09:34:31",-2.33655973768685,"31","Female","right",1,1,0,0,FALSE,"E_F_Dawn_Roma_French.png E_M_Jimmy_Carr.png"
4648,"E_F_Julie_Walters.png","P_F_Theresa_May.png","FALSE","pictures/stimuli/E","pictures/stimuli/P","F","F","3","578a060882f7f90001ee801e","06/30/2022, 09:34:31",-2.33655973768685,"31","Female","right",1,1,0,0,FALSE,"E_F_Julie_Walters.png P_F_Theresa_May.png"
5353,"E_M_Jimmy_Carr.png","P_M_keir_starmer.png","FALSE","pictures/stimuli/E","pictures/stimuli/P","M","M","5","578a060882f7f90001ee801e","06/30/2022, 09:34:31",-0.077290780127046,"31","Female","right",1,1,0,0,FALSE,"E_M_Jimmy_Carr.png P_M_keir_starmer.png"
3164,"P_M_Michael_Gove.png","P_M_nigel_farage.png","TRUE","pictures/stimuli/P","pictures/stimuli/P","M","M","5","578a060882f7f90001ee801e","06/30/2022, 09:34:31",-0.077290780127046,"31","Female","right",1,1,0,0,FALSE,"P_M_Michael_Gove.png P_M_nigel_farage.png"
6976,"E_F_Dawn_Roma_French.png","P_M_Sajid_Javid.png","FALSE","pictures/stimuli/E","pictures/stimuli/P","F","M","5","578a060882f7f90001ee801e","06/30/2022, 09:34:31",-0.077290780127046,"31","Female","right",1,1,0,0,FALSE,"E_F_Dawn_Roma_French.png P_M_Sajid_Javid.png"
5930,"E_M_Simon_Pegg.png","P_M_Gordon_Brown.png","FALSE","pictures/stimuli/E","pictures/stimuli/P","M","M","5","578a060882f7f90001ee801e","06/30/2022, 09:34:31",-0.077290780127046,"31","Female","right",1,1,0,0,FALSE,"E_M_Simon_Pegg.png P_M_Gordon_Brown.png"
4144,"P_M_jeremy_corbyn.png","P_M_Sajid_Javid.png","TRUE","pictures/stimuli/P","pictures/stimuli/P","M","M","6","578a060882f7f90001ee801e","06/30/2022, 09:34:31",1.05234369865286,"31","Female","right",1,1,0,0,FALSE,"P_M_jeremy_corbyn.png P_M_Sajid_Javid.png"
4711,"E_F_Dawn_Roma_French.png","P_F_nicola_sturge.png","FALSE","pictures/stimuli/E","pictures/stimuli/P","F","F","4","578a060882f7f90001ee801e","06/30/2022, 09:34:31",-1.20692525890695,"31","Female","right",1,1,0,0,FALSE,"E_F_Dawn_Roma_French.png P_F_nicola_sturge.png"
4693,"P_M_david_camer.png","P_M_Sajid_Javid.png","TRUE","pictures/stimuli/P","pictures/stimuli/P","M","M","4","578a060882f7f90001ee801e","06/30/2022, 09:34:31",-1.20692525890695,"31","Female","right",1,1,0,0,FALSE,"P_M_david_camer.png P_M_Sajid_Javid.png"
4025,"E_F_Sarah_Millican.png","P_M_jeremy_corbyn.png","FALSE","pictures/stimuli/E","pictures/stimuli/P","F","M","6","578a060882f7f90001ee801e","06/30/2022, 09:34:31",1.05234369865286,"31","Female","right",1,1,0,0,FALSE,"E_F_Sarah_Millican.png P_M_jeremy_corbyn.png"
4309,"P_F_Theresa_May.png","P_M_nigel_farage.png","TRUE","pictures/stimuli/P","pictures/stimuli/P","F","M","6","578a060882f7f90001ee801e","06/30/2022, 09:34:31",1.05234369865286,"31","Female","right",1,1,0,0,FALSE,"P_F_Theresa_May.png P_M_nigel_farage.png"
8315,"E_F_Jennifer_Saunders.png","P_M_keir_starmer.png","FALSE","pictures/stimuli/E","pictures/stimuli/P","F","M","4","578a060882f7f90001ee801e","06/30/2022, 09:34:31",-1.20692525890695,"31","Female","right",1,1,0,0,FALSE,"E_F_Jennifer_Saunders.png P_M_keir_starmer.png"
4811,"P_M_Michael_Gove.png","P_M_Tony_Blair.png","TRUE","pictures/stimuli/P","pictures/stimuli/P","M","M","5","578a060882f7f90001ee801e","06/30/2022, 09:34:31",-0.077290780127046,"31","Female","right",1,1,0,0,FALSE,"P_M_Michael_Gove.png P_M_Tony_Blair.png"
6180,"E_F_Sarah_Millican.png","P_M_keir_starmer.png","FALSE","pictures/stimuli/E","pictures/stimuli/P","F","M","5","578a060882f7f90001ee801e","06/30/2022, 09:34:31",-0.077290780127046,"31","Female","right",1,1,0,0,FALSE,"E_F_Sarah_Millican.png P_M_keir_starmer.png"
4332,"E_F_Sarah_Millican.png","E_M_Russell_Howard.png","TRUE","pictures/stimuli/E","pictures/stimuli/E","F","M","5","578a060882f7f90001ee801e","06/30/2022, 09:34:31",-0.077290780127046,"31","Female","right",1,1,0,0,FALSE,"E_F_Sarah_Millican.png E_M_Russell_Howard.png"
7655,"E_M_Jimmy_Carr.png","P_M_Sajid_Javid.png","FALSE","pictures/stimuli/E","pictures/stimuli/P","M","M","5","578a060882f7f90001ee801e","06/30/2022, 09:34:31",-0.077290780127046,"31","Female","right",1,1,0,0,FALSE,"E_M_Jimmy_Carr.png P_M_Sajid_Javid.png"
2799,"E_F_Dawn_Roma_French.png","E_M_Ewan_McGregor.png","TRUE","pictures/stimuli/E","pictures/stimuli/E","F","M","5","578a060882f7f90001ee801e","06/30/2022, 09:34:31",-0.077290780127046,"31","Female","right",1,0,0,0,TRUE,"E_F_Dawn_Roma_French.png E_M_Ewan_McGregor.png"
4493,"P_M_keir_starmer.png","P_M_Sajid_Javid.png","TRUE","pictures/stimuli/P","pictures/stimuli/P","M","M","6","578a060882f7f90001ee801e","06/30/2022, 09:34:31",1.05234369865286,"31","Female","right",1,1,0,0,FALSE,"P_M_keir_starmer.png P_M_Sajid_Javid.png"
5278,"E_F_Jennifer_Saunders.png","P_M_Michael_Gove.png","FALSE","pictures/stimuli/E","pictures/stimuli/P","F","M","6","578a060882f7f90001ee801e","06/30/2022, 09:34:31",1.05234369865286,"31","Female","right",1,1,0,0,FALSE,"E_F_Jennifer_Saunders.png P_M_Michael_Gove.png"
4208,"E_F_Julie_Walters.png","P_M_Gordon_Brown.png","FALSE","pictures/stimuli/E","pictures/stimuli/P","F","M","4","578a060882f7f90001ee801e","06/30/2022, 09:34:31",-1.20692525890695,"31","Female","right",1,1,0,0,FALSE,"E_F_Julie_Walters.png P_M_Gordon_Brown.png"
4165,"E_M_Simon_Pegg.png","P_M_Michael_Gove.png","FALSE","pictures/stimuli/E","pictures/stimuli/P","M","M","6","578a060882f7f90001ee801e","06/30/2022, 09:34:31",1.05234369865286,"31","Female","right",1,1,0,0,FALSE,"E_M_Simon_Pegg.png P_M_Michael_Gove.png"
8670,"E_M_Russell_Howard.png","E_M_Simon_Pegg.png","TRUE","pictures/stimuli/E","pictures/stimuli/E","M","M","2","578a060882f7f90001ee801e","06/30/2022, 09:34:31",-3.46619421646675,"31","Female","right",1,1,0,0,FALSE,"E_M_Russell_Howard.png E_M_Simon_Pegg.png"
4689,"E_F_Dawn_Roma_French.png","P_M_Gordon_Brown.png","FALSE","pictures/stimuli/E","pictures/stimuli/P","F","M","5","578a060882f7f90001ee801e","06/30/2022, 09:34:31",-0.077290780127046,"31","Female","right",1,1,0,0,FALSE,"E_F_Dawn_Roma_French.png P_M_Gordon_Brown.png"
3907,"E_M_Ewan_McGregor.png","P_M_Michael_Gove.png","FALSE","pictures/stimuli/E","pictures/stimuli/P","M","M","5","578a060882f7f90001ee801e","06/30/2022, 09:34:31",-0.077290780127046,"31","Female","right",0,1,0,0,TRUE,"E_M_Ewan_McGregor.png P_M_Michael_Gove.png"
5724,"E_F_Julie_Walters.png","P_M_Sajid_Javid.png","FALSE","pictures/stimuli/E","pictures/stimuli/P","F","M","6","578a060882f7f90001ee801e","06/30/2022, 09:34:31",1.05234369865286,"31","Female","right",1,1,0,0,FALSE,"E_F_Julie_Walters.png P_M_Sajid_Javid.png"
4250,"E_F_Sarah_Millican.png","P_F_nicola_sturge.png","FALSE","pictures/stimuli/E","pictures/stimuli/P","F","F","4","578a060882f7f90001ee801e","06/30/2022, 09:34:31",-1.20692525890695,"31","Female","right",1,1,0,0,FALSE,"E_F_Sarah_Millican.png P_F_nicola_sturge.png"
4817,"E_F_Sarah_Millican.png","P_F_Theresa_May.png","FALSE","pictures/stimuli/E","pictures/stimuli/P","F","F","4","578a060882f7f90001ee801e","06/30/2022, 09:34:31",-1.20692525890695,"31","Female","right",1,1,0,0,FALSE,"E_F_Sarah_Millican.png P_F_Theresa_May.png"
4147,"E_F_Sarah_Millican.png","P_M_Gordon_Brown.png","FALSE","pictures/stimuli/E","pictures/stimuli/P","F","M","5","578a060882f7f90001ee801e","06/30/2022, 09:34:31",-0.077290780127046,"31","Female","right",1,1,0,0,FALSE,"E_F_Sarah_Millican.png P_M_Gordon_Brown.png"
6805,"E_F_Sarah_Millican.png","P_M_nigel_farage.png","FALSE","pictures/stimuli/E","pictures/stimuli/P","F","M","5","578a060882f7f90001ee801e","06/30/2022, 09:34:31",-0.077290780127046,"31","Female","right",1,1,0,0,FALSE,"E_F_Sarah_Millican.png P_M_nigel_farage.png"
3385,"E_M_Ewan_McGregor.png","E_M_Peter_Kay.png","TRUE","pictures/stimuli/E","pictures/stimuli/E","M","M","5","578a060882f7f90001ee801e","06/30/2022, 09:34:31",-0.077290780127046,"31","Female","right",0,1,0,0,TRUE,"E_M_Ewan_McGregor.png E_M_Peter_Kay.png"
4027,"P_F_nicola_sturge.png","P_M_nigel_farage.png","TRUE","pictures/stimuli/P","pictures/stimuli/P","F","M","5","578a060882f7f90001ee801e","06/30/2022, 09:34:31",-0.077290780127046,"31","Female","right",1,1,0,0,FALSE,"P_F_nicola_sturge.png P_M_nigel_farage.png"
5554,"E_M_Jimmy_Carr.png","P_M_david_camer.png","FALSE","pictures/stimuli/E","pictures/stimuli/P","M","M","5","578a060882f7f90001ee801e","06/30/2022, 09:34:31",-0.077290780127046,"31","Female","right",1,1,0,0,FALSE,"E_M_Jimmy_Carr.png P_M_david_camer.png"
3084,"E_M_Ewan_McGregor.png","P_F_nicola_sturge.png","FALSE","pictures/stimuli/E","pictures/stimuli/P","M","F","6","578a060882f7f90001ee801e","06/30/2022, 09:34:31",1.05234369865286,"31","Female","right",0,1,0,0,TRUE,"E_M_Ewan_McGregor.png P_F_nicola_sturge.png"
4763,"P_F_nicola_sturge.png","P_M_jeremy_corbyn.png","TRUE","pictures/stimuli/P","pictures/stimuli/P","F","M","6","578a060882f7f90001ee801e","06/30/2022, 09:34:31",1.05234369865286,"31","Female","right",1,1,0,0,FALSE,"P_F_nicola_sturge.png P_M_jeremy_corbyn.png"
4659,"E_F_Jennifer_Saunders.png","E_F_Julie_Walters.png","TRUE","pictures/stimuli/E","pictures/stimuli/E","F","F","5","578a060882f7f90001ee801e","06/30/2022, 09:34:31",-0.077290780127046,"31","Female","right",1,1,0,0,FALSE,"E_F_Jennifer_Saunders.png E_F_Julie_Walters.png"
4519,"E_F_Dawn_Roma_French.png","E_M_Michael_McIntyr.png","TRUE","pictures/stimuli/E","pictures/stimuli/E","F","M","3","578a060882f7f90001ee801e","06/30/2022, 09:34:31",-2.33655973768685,"31","Female","right",1,1,0,0,FALSE,"E_F_Dawn_Roma_French.png E_M_Michael_McIntyr.png"
4475,"E_F_Jennifer_Saunders.png","P_M_Gordon_Brown.png","FALSE","pictures/stimuli/E","pictures/stimuli/P","F","M","6","578a060882f7f90001ee801e","06/30/2022, 09:34:31",1.05234369865286,"31","Female","right",1,1,0,0,FALSE,"E_F_Jennifer_Saunders.png P_M_Gordon_Brown.png"
3528,"P_M_jeremy_corbyn.png","P_M_nigel_farage.png","TRUE","pictures/stimuli/P","pictures/stimuli/P","M","M","6","578a060882f7f90001ee801e","06/30/2022, 09:34:31",1.05234369865286,"31","Female","right",1,1,0,0,FALSE,"P_M_jeremy_corbyn.png P_M_nigel_farage.png"
5075,"E_M_Peter_Kay.png","E_M_Simon_Pegg.png","TRUE","pictures/stimuli/E","pictures/stimuli/E","M","M","6","578a060882f7f90001ee801e","06/30/2022, 09:34:31",1.05234369865286,"31","Female","right",1,1,0,0,FALSE,"E_M_Peter_Kay.png E_M_Simon_Pegg.png"
2972,"E_M_Ewan_McGregor.png","P_M_jeremy_corbyn.png","FALSE","pictures/stimuli/E","pictures/stimuli/P","M","M","5","578a060882f7f90001ee801e","06/30/2022, 09:34:31",-0.077290780127046,"31","Female","right",0,1,0,0,TRUE,"E_M_Ewan_McGregor.png P_M_jeremy_corbyn.png"
2975,"E_F_Dawn_Roma_French.png","P_M_Michael_Gove.png","FALSE","pictures/stimuli/E","pictures/stimuli/P","F","M","6","578a060882f7f90001ee801e","06/30/2022, 09:34:31",1.05234369865286,"31","Female","right",1,1,0,0,FALSE,"E_F_Dawn_Roma_French.png P_M_Michael_Gove.png"
4062,"E_M_Russell_Howard.png","P_M_Tony_Blair.png","FALSE","pictures/stimuli/E","pictures/stimuli/P","M","M","6","578a060882f7f90001ee801e","06/30/2022, 09:34:31",1.05234369865286,"31","Female","right",1,1,0,0,FALSE,"E_M_Russell_Howard.png P_M_Tony_Blair.png"
3240,"P_M_jeremy_corbyn.png","P_M_Tony_Blair.png","TRUE","pictures/stimuli/P","pictures/stimuli/P","M","M","6","578a060882f7f90001ee801e","06/30/2022, 09:34:31",1.05234369865286,"31","Female","right",1,1,0,0,FALSE,"P_M_jeremy_corbyn.png P_M_Tony_Blair.png"
4175,"E_M_Michael_McIntyr.png","P_M_Tony_Blair.png","FALSE","pictures/stimuli/E","pictures/stimuli/P","M","M","5","578a060882f7f90001ee801e","06/30/2022, 09:34:31",-0.077290780127046,"31","Female","right",1,1,0,0,FALSE,"E_M_Michael_McIntyr.png P_M_Tony_Blair.png"
4098,"E_M_Michael_McIntyr.png","P_M_Gordon_Brown.png","FALSE","pictures/stimuli/E","pictures/stimuli/P","M","M","5","578a060882f7f90001ee801e","06/30/2022, 09:34:31",-0.077290780127046,"31","Female","right",1,1,0,0,FALSE,"E_M_Michael_McIntyr.png P_M_Gordon_Brown.png"
4609,"E_F_Jennifer_Saunders.png","P_F_Theresa_May.png","FALSE","pictures/stimuli/E","pictures/stimuli/P","F","F","5","578a060882f7f90001ee801e","06/30/2022, 09:34:31",-0.077290780127046,"31","Female","right",1,1,0,0,FALSE,"E_F_Jennifer_Saunders.png P_F_Theresa_May.png"
2678,"E_M_Ewan_McGregor.png","P_F_Theresa_May.png","FALSE","pictures/stimuli/E","pictures/stimuli/P","M","F","5","578a060882f7f90001ee801e","06/30/2022, 09:34:31",-0.077290780127046,"31","Female","right",0,1,0,0,TRUE,"E_M_Ewan_McGregor.png P_F_Theresa_May.png"
6695,"P_M_jeremy_corbyn.png","P_M_keir_starmer.png","TRUE","pictures/stimuli/P","pictures/stimuli/P","M","M","5","578a060882f7f90001ee801e","06/30/2022, 09:34:31",-0.077290780127046,"31","Female","right",1,1,0,0,FALSE,"P_M_jeremy_corbyn.png P_M_keir_starmer.png"
5177,"E_M_Jimmy_Carr.png","E_M_Simon_Pegg.png","TRUE","pictures/stimuli/E","pictures/stimuli/E","M","M","5","578a060882f7f90001ee801e","06/30/2022, 09:34:31",-0.077290780127046,"31","Female","right",1,1,0,0,FALSE,"E_M_Jimmy_Carr.png E_M_Simon_Pegg.png"
4022,"E_M_Ewan_McGregor.png","E_M_Jimmy_Carr.png","TRUE","pictures/stimuli/E","pictures/stimuli/E","M","M","5","578a060882f7f90001ee801e","06/30/2022, 09:34:31",-0.077290780127046,"31","Female","right",0,1,0,0,TRUE,"E_M_Ewan_McGregor.png E_M_Jimmy_Carr.png"
5245,"E_F_Dawn_Roma_French.png","P_F_Theresa_May.png","FALSE","pictures/stimuli/E","pictures/stimuli/P","F","F","4","578a060882f7f90001ee801e","06/30/2022, 09:34:31",-1.20692525890695,"31","Female","right",1,1,0,0,FALSE,"E_F_Dawn_Roma_French.png P_F_Theresa_May.png"
5310,"E_F_Sarah_Millican.png","E_M_Peter_Kay.png","TRUE","pictures/stimuli/E","pictures/stimuli/E","F","M","3","578a060882f7f90001ee801e","06/30/2022, 09:34:31",-2.33655973768685,"31","Female","right",1,1,0,0,FALSE,"E_F_Sarah_Millican.png E_M_Peter_Kay.png"
6204,"P_F_Theresa_May.png","P_M_Sajid_Javid.png","TRUE","pictures/stimuli/P","pictures/stimuli/P","F","M","6","578a060882f7f90001ee801e","06/30/2022, 09:34:31",1.05234369865286,"31","Female","right",1,1,0,0,FALSE,"P_F_Theresa_May.png P_M_Sajid_Javid.png"
11164,"E_M_Peter_Kay.png","P_M_Gordon_Brown.png","FALSE","pictures/stimuli/E","pictures/stimuli/P","M","M","4","578a060882f7f90001ee801e","06/30/2022, 09:34:31",-1.20692525890695,"31","Female","right",1,1,0,0,FALSE,"E_M_Peter_Kay.png P_M_Gordon_Brown.png"
4683,"E_M_Simon_Pegg.png","P_M_keir_starmer.png","FALSE","pictures/stimuli/E","pictures/stimuli/P","M","M","6","578a060882f7f90001ee801e","06/30/2022, 09:34:31",1.05234369865286,"31","Female","right",1,1,0,0,FALSE,"E_M_Simon_Pegg.png P_M_keir_starmer.png"
7776,"E_F_Jennifer_Saunders.png","E_M_Russell_Howard.png","TRUE","pictures/stimuli/E","pictures/stimuli/E","F","M","5","578a060882f7f90001ee801e","06/30/2022, 09:34:31",-0.077290780127046,"31","Female","right",1,1,0,0,FALSE,"E_F_Jennifer_Saunders.png E_M_Russell_Howard.png"
8816,"P_F_Theresa_May.png","P_M_keir_starmer.png","TRUE","pictures/stimuli/P","pictures/stimuli/P","F","M","4","578a060882f7f90001ee801e","06/30/2022, 09:34:31",-1.20692525890695,"31","Female","right",1,1,0,0,FALSE,"P_F_Theresa_May.png P_M_keir_starmer.png"
6395,"P_F_nicola_sturge.png","P_M_Sajid_Javid.png","TRUE","pictures/stimuli/P","pictures/stimuli/P","F","M","6","578a060882f7f90001ee801e","06/30/2022, 09:34:31",1.05234369865286,"31","Female","right",1,1,0,0,FALSE,"P_F_nicola_sturge.png P_M_Sajid_Javid.png"
12834,"E_F_Jennifer_Saunders.png","P_M_Sajid_Javid.png","FALSE","pictures/stimuli/E","pictures/stimuli/P","F","M","6","578a060882f7f90001ee801e","06/30/2022, 09:34:31",1.05234369865286,"31","Female","right",1,1,0,0,FALSE,"E_F_Jennifer_Saunders.png P_M_Sajid_Javid.png"
4754,"E_M_Jimmy_Carr.png","P_M_Gordon_Brown.png","FALSE","pictures/stimuli/E","pictures/stimuli/P","M","M","5","578a060882f7f90001ee801e","06/30/2022, 09:34:31",-0.077290780127046,"31","Female","right",1,1,0,0,FALSE,"E_M_Jimmy_Carr.png P_M_Gordon_Brown.png"
4519,"E_M_Michael_McIntyr.png","E_M_Simon_Pegg.png","TRUE","pictures/stimuli/E","pictures/stimuli/E","M","M","6","578a060882f7f90001ee801e","06/30/2022, 09:34:31",1.05234369865286,"31","Female","right",1,1,0,0,FALSE,"E_M_Michael_McIntyr.png E_M_Simon_Pegg.png"
2423,"P_M_Gordon_Brown.png","P_M_jeremy_corbyn.png","TRUE","pictures/stimuli/P","pictures/stimuli/P","M","M","5","578a060882f7f90001ee801e","06/30/2022, 09:34:31",-0.077290780127046,"31","Female","right",1,1,0,0,FALSE,"P_M_Gordon_Brown.png P_M_jeremy_corbyn.png"
2090,"P_M_david_camer.png","P_M_jeremy_corbyn.png","TRUE","pictures/stimuli/P","pictures/stimuli/P","M","M","6","578a060882f7f90001ee801e","06/30/2022, 09:34:31",1.05234369865286,"31","Female","right",1,1,0,0,FALSE,"P_M_david_camer.png P_M_jeremy_corbyn.png"
3254,"E_F_Dawn_Roma_French.png","P_M_nigel_farage.png","FALSE","pictures/stimuli/E","pictures/stimuli/P","F","M","5","578a060882f7f90001ee801e","06/30/2022, 09:34:31",-0.077290780127046,"31","Female","right",1,1,0,0,FALSE,"E_F_Dawn_Roma_French.png P_M_nigel_farage.png"
2790,"E_M_Ewan_McGregor.png","P_M_Sajid_Javid.png","FALSE","pictures/stimuli/E","pictures/stimuli/P","M","M","5","578a060882f7f90001ee801e","06/30/2022, 09:34:31",-0.077290780127046,"31","Female","right",0,1,0,0,TRUE,"E_M_Ewan_McGregor.png P_M_Sajid_Javid.png"
4138,"E_M_Simon_Pegg.png","P_M_Tony_Blair.png","FALSE","pictures/stimuli/E","pictures/stimuli/P","M","M","5","578a060882f7f90001ee801e","06/30/2022, 09:34:31",-0.077290780127046,"31","Female","right",1,1,0,0,FALSE,"E_M_Simon_Pegg.png P_M_Tony_Blair.png"
2275,"P_M_keir_starmer.png","P_M_Michael_Gove.png","TRUE","pictures/stimuli/P","pictures/stimuli/P","M","M","6","578a060882f7f90001ee801e","06/30/2022, 09:34:31",1.05234369865286,"31","Female","right",1,1,0,0,FALSE,"P_M_keir_starmer.png P_M_Michael_Gove.png"
3953,"E_M_Peter_Kay.png","P_M_Tony_Blair.png","FALSE","pictures/stimuli/E","pictures/stimuli/P","M","M","6","578a060882f7f90001ee801e","06/30/2022, 09:34:31",1.05234369865286,"31","Female","right",1,1,0,0,FALSE,"E_M_Peter_Kay.png P_M_Tony_Blair.png"
3407,"E_F_Jennifer_Saunders.png","P_M_Tony_Blair.png","FALSE","pictures/stimuli/E","pictures/stimuli/P","F","M","6","578a060882f7f90001ee801e","06/30/2022, 09:34:31",1.05234369865286,"31","Female","right",1,1,0,0,FALSE,"E_F_Jennifer_Saunders.png P_M_Tony_Blair.png"
3028,"E_F_Julie_Walters.png","E_M_Peter_Kay.png","TRUE","pictures/stimuli/E","pictures/stimuli/E","F","M","5","578a060882f7f90001ee801e","06/30/2022, 09:34:31",-0.077290780127046,"31","Female","right",1,1,0,0,FALSE,"E_F_Julie_Walters.png E_M_Peter_Kay.png"
2362,"E_M_Ewan_McGregor.png","P_M_david_camer.png","FALSE","pictures/stimuli/E","pictures/stimuli/P","M","M","5","578a060882f7f90001ee801e","06/30/2022, 09:34:31",-0.077290780127046,"31","Female","right",0,1,0,0,TRUE,"E_M_Ewan_McGregor.png P_M_david_camer.png"
6362,"E_M_Jimmy_Carr.png","P_F_Theresa_May.png","FALSE","pictures/stimuli/E","pictures/stimuli/P","M","F","4","578a060882f7f90001ee801e","06/30/2022, 09:34:31",-1.20692525890695,"31","Female","right",1,1,0,0,FALSE,"E_M_Jimmy_Carr.png P_F_Theresa_May.png"
3588,"E_M_Michael_McIntyr.png","P_M_Michael_Gove.png","FALSE","pictures/stimuli/E","pictures/stimuli/P","M","M","6","578a060882f7f90001ee801e","06/30/2022, 09:34:31",1.05234369865286,"31","Female","right",1,1,0,0,FALSE,"E_M_Michael_McIntyr.png P_M_Michael_Gove.png"
2389,"P_M_jeremy_corbyn.png","P_M_Michael_Gove.png","TRUE","pictures/stimuli/P","pictures/stimuli/P","M","M","6","578a060882f7f90001ee801e","06/30/2022, 09:34:31",1.05234369865286,"31","Female","right",1,1,0,0,FALSE,"P_M_jeremy_corbyn.png P_M_Michael_Gove.png"
6570,"E_M_Peter_Kay.png","P_F_nicola_sturge.png","FALSE","pictures/stimuli/E","pictures/stimuli/P","M","F","4","578a060882f7f90001ee801e","06/30/2022, 09:34:31",-1.20692525890695,"31","Female","right",1,1,0,0,FALSE,"E_M_Peter_Kay.png P_F_nicola_sturge.png"
5784,"E_F_Dawn_Roma_French.png","E_F_Sarah_Millican.png","TRUE","pictures/stimuli/E","pictures/stimuli/E","F","F","3","578a060882f7f90001ee801e","06/30/2022, 09:34:31",-2.33655973768685,"31","Female","right",1,1,0,0,FALSE,"E_F_Dawn_Roma_French.png E_F_Sarah_Millican.png"
2101,"E_F_Dawn_Roma_French.png","P_M_Tony_Blair.png","FALSE","pictures/stimuli/E","pictures/stimuli/P","F","M","6","578a060882f7f90001ee801e","06/30/2022, 09:34:31",1.05234369865286,"31","Female","right",1,1,0,0,FALSE,"E_F_Dawn_Roma_French.png P_M_Tony_Blair.png"
2661,"E_M_Michael_McIntyr.png","E_M_Russell_Howard.png","TRUE","pictures/stimuli/E","pictures/stimuli/E","M","M","6","578a060882f7f90001ee801e","06/30/2022, 09:34:31",1.05234369865286,"31","Female","right",1,1,0,0,FALSE,"E_M_Michael_McIntyr.png E_M_Russell_Howard.png"
4527,"E_M_Russell_Howard.png","P_M_nigel_farage.png","FALSE","pictures/stimuli/E","pictures/stimuli/P","M","M","5","578a060882f7f90001ee801e","06/30/2022, 09:34:31",-0.077290780127046,"31","Female","right",1,1,0,0,FALSE,"E_M_Russell_Howard.png P_M_nigel_farage.png"
4505,"E_F_Jennifer_Saunders.png","P_F_nicola_sturge.png","FALSE","pictures/stimuli/E","pictures/stimuli/P","F","F","5","578a060882f7f90001ee801e","06/30/2022, 09:34:31",-0.077290780127046,"31","Female","right",1,1,0,0,FALSE,"E_F_Jennifer_Saunders.png P_F_nicola_sturge.png"
2633,"E_F_Jennifer_Saunders.png","P_M_nigel_farage.png","FALSE","pictures/stimuli/E","pictures/stimuli/P","F","M","6","578a060882f7f90001ee801e","06/30/2022, 09:34:31",1.05234369865286,"31","Female","right",1,1,0,0,FALSE,"E_F_Jennifer_Saunders.png P_M_nigel_farage.png"
6414,"E_F_Sarah_Millican.png","P_M_david_camer.png","FALSE","pictures/stimuli/E","pictures/stimuli/P","F","M","4","578a060882f7f90001ee801e","06/30/2022, 09:34:31",-1.20692525890695,"31","Female","right",1,1,0,0,FALSE,"E_F_Sarah_Millican.png P_M_david_camer.png"
4215,"P_M_Gordon_Brown.png","P_M_Tony_Blair.png","TRUE","pictures/stimuli/P","pictures/stimuli/P","M","M","5","578a060882f7f90001ee801e","06/30/2022, 09:34:31",-0.077290780127046,"31","Female","right",1,1,0,0,FALSE,"P_M_Gordon_Brown.png P_M_Tony_Blair.png"
2707,"E_F_Julie_Walters.png","P_F_nicola_sturge.png","FALSE","pictures/stimuli/E","pictures/stimuli/P","F","F","5","578a060882f7f90001ee801e","06/30/2022, 09:34:31",-0.077290780127046,"31","Female","right",1,1,0,0,FALSE,"E_F_Julie_Walters.png P_F_nicola_sturge.png"
2463,"E_F_Julie_Walters.png","E_M_Simon_Pegg.png","TRUE","pictures/stimuli/E","pictures/stimuli/E","F","M","6","578a060882f7f90001ee801e","06/30/2022, 09:34:31",1.05234369865286,"31","Female","right",1,1,0,0,FALSE,"E_F_Julie_Walters.png E_M_Simon_Pegg.png"
5391,"P_F_Theresa_May.png","P_M_Tony_Blair.png","TRUE","pictures/stimuli/P","pictures/stimuli/P","F","M","4","578a060882f7f90001ee801e","06/30/2022, 09:34:31",-1.20692525890695,"31","Female","right",1,1,0,0,FALSE,"P_F_Theresa_May.png P_M_Tony_Blair.png"
3586,"P_M_Gordon_Brown.png","P_M_keir_starmer.png","TRUE","pictures/stimuli/P","pictures/stimuli/P","M","M","6","578a060882f7f90001ee801e","06/30/2022, 09:34:31",1.05234369865286,"31","Female","right",1,1,0,0,FALSE,"P_M_Gordon_Brown.png P_M_keir_starmer.png"
4086,"E_M_Russell_Howard.png","P_M_keir_starmer.png","FALSE","pictures/stimuli/E","pictures/stimuli/P","M","M","5","578a060882f7f90001ee801e","06/30/2022, 09:34:31",-0.077290780127046,"31","Female","right",1,1,0,0,FALSE,"E_M_Russell_Howard.png P_M_keir_starmer.png"
4925,"E_F_Sarah_Millican.png","E_M_Michael_McIntyr.png","TRUE","pictures/stimuli/E","pictures/stimuli/E","F","M","4","578a060882f7f90001ee801e","06/30/2022, 09:34:31",-1.20692525890695,"31","Female","right",1,1,0,0,FALSE,"E_F_Sarah_Millican.png E_M_Michael_McIntyr.png"
4659,"P_M_david_camer.png","P_M_nigel_farage.png","TRUE","pictures/stimuli/P","pictures/stimuli/P","M","M","5","578a060882f7f90001ee801e","06/30/2022, 09:34:31",-0.077290780127046,"31","Female","right",1,1,0,0,FALSE,"P_M_david_camer.png P_M_nigel_farage.png"
4852,"E_F_Julie_Walters.png","E_M_Michael_McIntyr.png","TRUE","pictures/stimuli/E","pictures/stimuli/E","F","M","6","578a060882f7f90001ee801e","06/30/2022, 09:34:31",1.05234369865286,"31","Female","right",1,1,0,0,FALSE,"E_F_Julie_Walters.png E_M_Michael_McIntyr.png"
4191,"E_F_Dawn_Roma_French.png","P_M_david_camer.png","FALSE","pictures/stimuli/E","pictures/stimuli/P","F","M","5","578a060882f7f90001ee801e","06/30/2022, 09:34:31",-0.077290780127046,"31","Female","right",1,1,0,0,FALSE,"E_F_Dawn_Roma_French.png P_M_david_camer.png"
5473,"E_M_Michael_McIntyr.png","P_M_david_camer.png","FALSE","pictures/stimuli/E","pictures/stimuli/P","M","M","6","578a060882f7f90001ee801e","06/30/2022, 09:34:31",1.05234369865286,"31","Female","right",1,1,0,0,FALSE,"E_M_Michael_McIntyr.png P_M_david_camer.png"
11340,"P_F_nicola_sturge.png","P_M_keir_starmer.png","TRUE","pictures/stimuli/P","pictures/stimuli/P","F","M","4","578a060882f7f90001ee801e","06/30/2022, 09:34:31",-1.20692525890695,"31","Female","right",1,1,0,0,FALSE,"P_F_nicola_sturge.png P_M_keir_starmer.png"
3402,"E_F_Jennifer_Saunders.png","E_M_Michael_McIntyr.png","TRUE","pictures/stimuli/E","pictures/stimuli/E","F","M","6","578a060882f7f90001ee801e","06/30/2022, 09:34:31",1.05234369865286,"31","Female","right",1,1,0,0,FALSE,"E_F_Jennifer_Saunders.png E_M_Michael_McIntyr.png"
2479,"E_M_Russell_Howard.png","P_M_Sajid_Javid.png","FALSE","pictures/stimuli/E","pictures/stimuli/P","M","M","6","578a060882f7f90001ee801e","06/30/2022, 09:34:31",1.05234369865286,"31","Female","right",1,1,0,0,FALSE,"E_M_Russell_Howard.png P_M_Sajid_Javid.png"
6648,"E_M_Michael_McIntyr.png","P_M_nigel_farage.png","FALSE","pictures/stimuli/E","pictures/stimuli/P","M","M","5","578a060882f7f90001ee801e","06/30/2022, 09:34:31",-0.077290780127046,"31","Female","right",1,1,0,0,FALSE,"E_M_Michael_McIntyr.png P_M_nigel_farage.png"
2123,"E_F_Dawn_Roma_French.png","E_M_Simon_Pegg.png","TRUE","pictures/stimuli/E","pictures/stimuli/E","F","M","6","578a060882f7f90001ee801e","06/30/2022, 09:34:31",1.05234369865286,"31","Female","right",1,1,0,0,FALSE,"E_F_Dawn_Roma_French.png E_M_Simon_Pegg.png"
4751,"P_F_nicola_sturge.png","P_M_Michael_Gove.png","TRUE","pictures/stimuli/P","pictures/stimuli/P","F","M","6","578a060882f7f90001ee801e","06/30/2022, 09:34:31",1.05234369865286,"31","Female","right",1,1,0,0,FALSE,"P_F_nicola_sturge.png P_M_Michael_Gove.png"
4805,"E_F_Julie_Walters.png","P_M_keir_starmer.png","FALSE","pictures/stimuli/E","pictures/stimuli/P","F","M","5","578a060882f7f90001ee801e","06/30/2022, 09:34:31",-0.077290780127046,"31","Female","right",1,1,0,0,FALSE,"E_F_Julie_Walters.png P_M_keir_starmer.png"
2151,"E_M_Jimmy_Carr.png","E_M_Russell_Howard.png","TRUE","pictures/stimuli/E","pictures/stimuli/E","M","M","6","578a060882f7f90001ee801e","06/30/2022, 09:34:31",1.05234369865286,"31","Female","right",1,1,0,0,FALSE,"E_M_Jimmy_Carr.png E_M_Russell_Howard.png"
7282,"P_M_david_camer.png","P_M_Michael_Gove.png","TRUE","pictures/stimuli/P","pictures/stimuli/P","M","M","5","578a060882f7f90001ee801e","06/30/2022, 09:34:31",-0.077290780127046,"31","Female","right",1,1,0,0,FALSE,"P_M_david_camer.png P_M_Michael_Gove.png"
4193,"E_F_Dawn_Roma_French.png","E_M_Peter_Kay.png","TRUE","pictures/stimuli/E","pictures/stimuli/E","F","M","3","578a060882f7f90001ee801e","06/30/2022, 09:34:31",-2.33655973768685,"31","Female","right",1,1,0,0,FALSE,"E_F_Dawn_Roma_French.png E_M_Peter_Kay.png"
5061,"E_M_Peter_Kay.png","P_M_david_camer.png","FALSE","pictures/stimuli/E","pictures/stimuli/P","M","M","4","578a060882f7f90001ee801e","06/30/2022, 09:34:31",-1.20692525890695,"31","Female","right",1,1,0,0,FALSE,"E_M_Peter_Kay.png P_M_david_camer.png"
2486,"E_M_Peter_Kay.png","P_M_Michael_Gove.png","FALSE","pictures/stimuli/E","pictures/stimuli/P","M","M","5","578a060882f7f90001ee801e","06/30/2022, 09:34:31",-0.077290780127046,"31","Female","right",1,1,0,0,FALSE,"E_M_Peter_Kay.png P_M_Michael_Gove.png"
3407,"E_F_Dawn_Roma_French.png","E_F_Jennifer_Saunders.png","TRUE","pictures/stimuli/E","pictures/stimuli/E","F","F","6","578a060882f7f90001ee801e","06/30/2022, 09:34:31",1.05234369865286,"31","Female","right",1,1,0,0,FALSE,"E_F_Dawn_Roma_French.png E_F_Jennifer_Saunders.png"
3769,"P_M_david_camer.png","P_M_Tony_Blair.png","TRUE","pictures/stimuli/P","pictures/stimuli/P","M","M","6","578a060882f7f90001ee801e","06/30/2022, 09:34:31",1.05234369865286,"31","Female","right",1,1,0,0,FALSE,"P_M_david_camer.png P_M_Tony_Blair.png"
3405,"E_M_Simon_Pegg.png","P_M_Sajid_Javid.png","FALSE","pictures/stimuli/E","pictures/stimuli/P","M","M","6","578a060882f7f90001ee801e","06/30/2022, 09:34:31",1.05234369865286,"31","Female","right",1,1,0,0,FALSE,"E_M_Simon_Pegg.png P_M_Sajid_Javid.png"
2795,"E_M_Ewan_McGregor.png","P_M_Gordon_Brown.png","FALSE","pictures/stimuli/E","pictures/stimuli/P","M","M","5","578a060882f7f90001ee801e","06/30/2022, 09:34:31",-0.077290780127046,"31","Female","right",0,1,0,0,TRUE,"E_M_Ewan_McGregor.png P_M_Gordon_Brown.png"
4499,"E_M_Jimmy_Carr.png","P_M_Tony_Blair.png","FALSE","pictures/stimuli/E","pictures/stimuli/P","M","M","5","578a060882f7f90001ee801e","06/30/2022, 09:34:31",-0.077290780127046,"31","Female","right",1,1,0,0,FALSE,"E_M_Jimmy_Carr.png P_M_Tony_Blair.png"
3625,"P_M_keir_starmer.png","P_M_nigel_farage.png","TRUE","pictures/stimuli/P","pictures/stimuli/P","M","M","5","578a060882f7f90001ee801e","06/30/2022, 09:34:31",-0.077290780127046,"31","Female","right",1,1,0,0,FALSE,"P_M_keir_starmer.png P_M_nigel_farage.png"
2171,"E_F_Julie_Walters.png","E_M_Jimmy_Carr.png","TRUE","pictures/stimuli/E","pictures/stimuli/E","F","M","6","578a060882f7f90001ee801e","06/30/2022, 09:34:31",1.05234369865286,"31","Female","right",1,1,0,0,FALSE,"E_F_Julie_Walters.png E_M_Jimmy_Carr.png"
3787,"E_F_Sarah_Millican.png","P_M_Sajid_Javid.png","FALSE","pictures/stimuli/E","pictures/stimuli/P","F","M","6","578a060882f7f90001ee801e","06/30/2022, 09:34:31",1.05234369865286,"31","Female","right",1,1,0,0,FALSE,"E_F_Sarah_Millican.png P_M_Sajid_Javid.png"
5371,"E_M_Russell_Howard.png","P_F_Theresa_May.png","FALSE","pictures/stimuli/E","pictures/stimuli/P","M","F","5","578a060882f7f90001ee801e","06/30/2022, 09:34:31",-0.077290780127046,"31","Female","right",1,1,0,0,FALSE,"E_M_Russell_Howard.png P_F_Theresa_May.png"
2429,"E_M_Michael_McIntyr.png","P_M_jeremy_corbyn.png","FALSE","pictures/stimuli/E","pictures/stimuli/P","M","M","6","578a060882f7f90001ee801e","06/30/2022, 09:34:31",1.05234369865286,"31","Female","right",1,1,0,0,FALSE,"E_M_Michael_McIntyr.png P_M_jeremy_corbyn.png"
3759,"E_F_Julie_Walters.png","P_M_Tony_Blair.png","FALSE","pictures/stimuli/E","pictures/stimuli/P","F","M","5","578a060882f7f90001ee801e","06/30/2022, 09:34:31",-0.077290780127046,"31","Female","right",1,1,0,0,FALSE,"E_F_Julie_Walters.png P_M_Tony_Blair.png"
4634,"E_M_Russell_Howard.png","P_M_jeremy_corbyn.png","FALSE","pictures/stimuli/E","pictures/stimuli/P","M","M","5","578a060882f7f90001ee801e","06/30/2022, 09:34:31",-0.077290780127046,"31","Female","right",1,1,0,0,FALSE,"E_M_Russell_Howard.png P_M_jeremy_corbyn.png"
3249,"E_F_Dawn_Roma_French.png","E_F_Julie_Walters.png","TRUE","pictures/stimuli/E","pictures/stimuli/E","F","F","6","578a060882f7f90001ee801e","06/30/2022, 09:34:31",1.05234369865286,"31","Female","right",1,1,0,0,FALSE,"E_F_Dawn_Roma_French.png E_F_Julie_Walters.png"
3673,"P_F_Theresa_May.png","P_M_Gordon_Brown.png","TRUE","pictures/stimuli/P","pictures/stimuli/P","F","M","5","578a060882f7f90001ee801e","06/30/2022, 09:34:31",-0.077290780127046,"31","Female","right",1,1,0,0,FALSE,"P_F_Theresa_May.png P_M_Gordon_Brown.png"
2319,"E_F_Julie_Walters.png","P_M_Michael_Gove.png","FALSE","pictures/stimuli/E","pictures/stimuli/P","F","M","6","578a060882f7f90001ee801e","06/30/2022, 09:34:31",1.05234369865286,"31","Female","right",1,1,0,0,FALSE,"E_F_Julie_Walters.png P_M_Michael_Gove.png"
7424,"E_F_Jennifer_Saunders.png","E_M_Simon_Pegg.png","TRUE","pictures/stimuli/E","pictures/stimuli/E","F","M","5","578a060882f7f90001ee801e","06/30/2022, 09:34:31",-0.077290780127046,"31","Female","right",1,1,0,0,FALSE,"E_F_Jennifer_Saunders.png E_M_Simon_Pegg.png"
10638,"E_F_Jennifer_Saunders.png","E_M_Jimmy_Carr.png","TRUE","pictures/stimuli/E","pictures/stimuli/E","F","M","5","578a060882f7f90001ee801e","06/30/2022, 09:34:31",-0.077290780127046,"31","Female","right",1,1,0,0,FALSE,"E_F_Jennifer_Saunders.png E_M_Jimmy_Carr.png"
5303,"E_F_Jennifer_Saunders.png","E_M_Peter_Kay.png","TRUE","pictures/stimuli/E","pictures/stimuli/E","F","M","6","578a060882f7f90001ee801e","06/30/2022, 09:34:31",1.05234369865286,"31","Female","right",1,1,0,0,FALSE,"E_F_Jennifer_Saunders.png E_M_Peter_Kay.png"
