"RT","img_1","img_2","isSameProffesion","img1proffesion","img2proffesion","img1Gender","img2Gender","keyPressed","participant","time","normlised_keyPress","age","gender","handedness","isFamiliar_img1","isFamiliar_img2","vividness_img1","vividness_img2","reject_trial","condition","pair"
NA,"P_M_bill_clinton.jpg","E_F_keira_knightley.jpg",NA,NA,NA,NA,NA,0.5662,NA,NA,NA,NA,NA,NA,NA,NA,NA,NA,FALSE,"CLIP_res","E_F_keira_knightley.jpg P_M_bill_clinton.jpg"
NA,"P_M_bill_clinton.jpg","P_F_esther_mcvey.jpg",NA,NA,NA,NA,NA,0.552,NA,NA,NA,NA,NA,NA,NA,NA,NA,NA,FALSE,"CLIP_res","P_F_esther_mcvey.jpg P_M_bill_clinton.jpg"
NA,"P_M_bill_clinton.jpg","E_F_Judi_Dench.jpg",NA,NA,NA,NA,NA,0.5178,NA,NA,NA,NA,NA,NA,NA,NA,NA,NA,FALSE,"CLIP_res","E_F_Judi_Dench.jpg P_M_bill_clinton.jpg"
NA,"P_M_bill_clinton.jpg","E_F_jennifer_aniston.jpg",NA,NA,NA,NA,NA,0.4575,NA,NA,NA,NA,NA,NA,NA,NA,NA,NA,FALSE,"CLIP_res","E_F_jennifer_aniston.jpg P_M_bill_clinton.jpg"
NA,"P_M_bill_clinton.jpg","P_F_angela_rayner.jpg",NA,NA,NA,NA,NA,0.5537,NA,NA,NA,NA,NA,NA,NA,NA,NA,NA,FALSE,"CLIP_res","P_F_angela_rayner.jpg P_M_bill_clinton.jpg"
NA,"P_M_bill_clinton.jpg","E_F_sandra_bullock.jpg",NA,NA,NA,NA,NA,0.5032,NA,NA,NA,NA,NA,NA,NA,NA,NA,NA,FALSE,"CLIP_res","E_F_sandra_bullock.jpg P_M_bill_clinton.jpg"
NA,"P_M_bill_clinton.jpg","P_F_PRITI_PATEL.jpg",NA,NA,NA,NA,NA,0.532,NA,NA,NA,NA,NA,NA,NA,NA,NA,NA,FALSE,"CLIP_res","P_F_PRITI_PATEL.jpg P_M_bill_clinton.jpg"
NA,"P_M_bill_clinton.jpg","P_M_david_cameron.jpg",NA,NA,NA,NA,NA,0.327,NA,NA,NA,NA,NA,NA,NA,NA,NA,NA,FALSE,"CLIP_res","P_M_bill_clinton.jpg P_M_david_cameron.jpg"
NA,"P_M_bill_clinton.jpg","P_M_george_Wbush.jpg",NA,NA,NA,NA,NA,0.173,NA,NA,NA,NA,NA,NA,NA,NA,NA,NA,FALSE,"CLIP_res","P_M_bill_clinton.jpg P_M_george_Wbush.jpg"
NA,"P_M_bill_clinton.jpg","E_M_Martin_Freeman.jpg",NA,NA,NA,NA,NA,0.4297,NA,NA,NA,NA,NA,NA,NA,NA,NA,NA,FALSE,"CLIP_res","E_M_Martin_Freeman.jpg P_M_bill_clinton.jpg"
NA,"P_M_bill_clinton.jpg","E_F_angelina_jolie.jpg",NA,NA,NA,NA,NA,0.3667,NA,NA,NA,NA,NA,NA,NA,NA,NA,NA,FALSE,"CLIP_res","E_F_angelina_jolie.jpg P_M_bill_clinton.jpg"
NA,"P_M_bill_clinton.jpg","E_M_anthony_hopkins.jpg",NA,NA,NA,NA,NA,0.447,NA,NA,NA,NA,NA,NA,NA,NA,NA,NA,FALSE,"CLIP_res","E_M_anthony_hopkins.jpg P_M_bill_clinton.jpg"
NA,"P_M_bill_clinton.jpg","P_F_nicola_sturgeon.jpg",NA,NA,NA,NA,NA,0.397,NA,NA,NA,NA,NA,NA,NA,NA,NA,NA,FALSE,"CLIP_res","P_F_nicola_sturgeon.jpg P_M_bill_clinton.jpg"
NA,"P_M_bill_clinton.jpg","E_M_michael_caine.jpg",NA,NA,NA,NA,NA,0.438,NA,NA,NA,NA,NA,NA,NA,NA,NA,NA,FALSE,"CLIP_res","E_M_michael_caine.jpg P_M_bill_clinton.jpg"
NA,"P_M_bill_clinton.jpg","E_M_robert_de_niro.jpg",NA,NA,NA,NA,NA,0.4644,NA,NA,NA,NA,NA,NA,NA,NA,NA,NA,FALSE,"CLIP_res","E_M_robert_de_niro.jpg P_M_bill_clinton.jpg"
NA,"P_M_bill_clinton.jpg","E_F_Kate_Winslet.jpg",NA,NA,NA,NA,NA,0.4746,NA,NA,NA,NA,NA,NA,NA,NA,NA,NA,FALSE,"CLIP_res","E_F_Kate_Winslet.jpg P_M_bill_clinton.jpg"
NA,"P_M_bill_clinton.jpg","E_M_Hugh_Grant.jpg",NA,NA,NA,NA,NA,0.4927,NA,NA,NA,NA,NA,NA,NA,NA,NA,NA,FALSE,"CLIP_res","E_M_Hugh_Grant.jpg P_M_bill_clinton.jpg"
NA,"P_M_bill_clinton.jpg","P_M_donald_trump.jpg",NA,NA,NA,NA,NA,0.2495,NA,NA,NA,NA,NA,NA,NA,NA,NA,NA,FALSE,"CLIP_res","P_M_bill_clinton.jpg P_M_donald_trump.jpg"
NA,"P_M_bill_clinton.jpg","E_M_liam_neeson.jpg",NA,NA,NA,NA,NA,0.406,NA,NA,NA,NA,NA,NA,NA,NA,NA,NA,FALSE,"CLIP_res","E_M_liam_neeson.jpg P_M_bill_clinton.jpg"
NA,"P_M_bill_clinton.jpg","P_M_boris_johnson.jpg",NA,NA,NA,NA,NA,0.324,NA,NA,NA,NA,NA,NA,NA,NA,NA,NA,FALSE,"CLIP_res","P_M_bill_clinton.jpg P_M_boris_johnson.jpg"
NA,"P_M_bill_clinton.jpg","E_M_tom_hankes.jpg",NA,NA,NA,NA,NA,0.357,NA,NA,NA,NA,NA,NA,NA,NA,NA,NA,FALSE,"CLIP_res","E_M_tom_hankes.jpg P_M_bill_clinton.jpg"
NA,"P_M_bill_clinton.jpg","P_F_tehresy_may.jpg",NA,NA,NA,NA,NA,0.4146,NA,NA,NA,NA,NA,NA,NA,NA,NA,NA,FALSE,"CLIP_res","P_F_tehresy_may.jpg P_M_bill_clinton.jpg"
NA,"P_M_bill_clinton.jpg","P_F_hillary_clinton.jpg",NA,NA,NA,NA,NA,0.206,NA,NA,NA,NA,NA,NA,NA,NA,NA,NA,FALSE,"CLIP_res","P_F_hillary_clinton.jpg P_M_bill_clinton.jpg"
NA,"P_M_bill_clinton.jpg","P_M_Tony_Blair.jpg",NA,NA,NA,NA,NA,0.3267,NA,NA,NA,NA,NA,NA,NA,NA,NA,NA,FALSE,"CLIP_res","P_M_bill_clinton.jpg P_M_Tony_Blair.jpg"
NA,"P_M_bill_clinton.jpg","E_M_nicolas_cage.jpg",NA,NA,NA,NA,NA,0.3687,NA,NA,NA,NA,NA,NA,NA,NA,NA,NA,FALSE,"CLIP_res","E_M_nicolas_cage.jpg P_M_bill_clinton.jpg"
NA,"E_F_keira_knightley.jpg","P_F_esther_mcvey.jpg",NA,NA,NA,NA,NA,0.6099,NA,NA,NA,NA,NA,NA,NA,NA,NA,NA,FALSE,"CLIP_res","E_F_keira_knightley.jpg P_F_esther_mcvey.jpg"
NA,"E_F_keira_knightley.jpg","E_F_Judi_Dench.jpg",NA,NA,NA,NA,NA,0.4995,NA,NA,NA,NA,NA,NA,NA,NA,NA,NA,FALSE,"CLIP_res","E_F_Judi_Dench.jpg E_F_keira_knightley.jpg"
NA,"E_F_keira_knightley.jpg","E_F_jennifer_aniston.jpg",NA,NA,NA,NA,NA,0.2827,NA,NA,NA,NA,NA,NA,NA,NA,NA,NA,FALSE,"CLIP_res","E_F_jennifer_aniston.jpg E_F_keira_knightley.jpg"
NA,"E_F_keira_knightley.jpg","P_F_angela_rayner.jpg",NA,NA,NA,NA,NA,0.5286,NA,NA,NA,NA,NA,NA,NA,NA,NA,NA,FALSE,"CLIP_res","E_F_keira_knightley.jpg P_F_angela_rayner.jpg"
NA,"E_F_keira_knightley.jpg","E_F_sandra_bullock.jpg",NA,NA,NA,NA,NA,0.276,NA,NA,NA,NA,NA,NA,NA,NA,NA,NA,FALSE,"CLIP_res","E_F_keira_knightley.jpg E_F_sandra_bullock.jpg"
NA,"E_F_keira_knightley.jpg","P_F_PRITI_PATEL.jpg",NA,NA,NA,NA,NA,0.47,NA,NA,NA,NA,NA,NA,NA,NA,NA,NA,FALSE,"CLIP_res","E_F_keira_knightley.jpg P_F_PRITI_PATEL.jpg"
NA,"E_F_keira_knightley.jpg","P_M_david_cameron.jpg",NA,NA,NA,NA,NA,0.5452,NA,NA,NA,NA,NA,NA,NA,NA,NA,NA,FALSE,"CLIP_res","E_F_keira_knightley.jpg P_M_david_cameron.jpg"
NA,"E_F_keira_knightley.jpg","P_M_george_Wbush.jpg",NA,NA,NA,NA,NA,0.566,NA,NA,NA,NA,NA,NA,NA,NA,NA,NA,FALSE,"CLIP_res","E_F_keira_knightley.jpg P_M_george_Wbush.jpg"
NA,"E_F_keira_knightley.jpg","E_M_Martin_Freeman.jpg",NA,NA,NA,NA,NA,0.4243,NA,NA,NA,NA,NA,NA,NA,NA,NA,NA,FALSE,"CLIP_res","E_F_keira_knightley.jpg E_M_Martin_Freeman.jpg"
NA,"E_F_keira_knightley.jpg","E_F_angelina_jolie.jpg",NA,NA,NA,NA,NA,0.2573,NA,NA,NA,NA,NA,NA,NA,NA,NA,NA,FALSE,"CLIP_res","E_F_angelina_jolie.jpg E_F_keira_knightley.jpg"
NA,"E_F_keira_knightley.jpg","E_M_anthony_hopkins.jpg",NA,NA,NA,NA,NA,0.5159,NA,NA,NA,NA,NA,NA,NA,NA,NA,NA,FALSE,"CLIP_res","E_F_keira_knightley.jpg E_M_anthony_hopkins.jpg"
NA,"E_F_keira_knightley.jpg","P_F_nicola_sturgeon.jpg",NA,NA,NA,NA,NA,0.5618,NA,NA,NA,NA,NA,NA,NA,NA,NA,NA,FALSE,"CLIP_res","E_F_keira_knightley.jpg P_F_nicola_sturgeon.jpg"
NA,"E_F_keira_knightley.jpg","E_M_michael_caine.jpg",NA,NA,NA,NA,NA,0.5847,NA,NA,NA,NA,NA,NA,NA,NA,NA,NA,FALSE,"CLIP_res","E_F_keira_knightley.jpg E_M_michael_caine.jpg"
NA,"E_F_keira_knightley.jpg","E_M_robert_de_niro.jpg",NA,NA,NA,NA,NA,0.468,NA,NA,NA,NA,NA,NA,NA,NA,NA,NA,FALSE,"CLIP_res","E_F_keira_knightley.jpg E_M_robert_de_niro.jpg"
NA,"E_F_keira_knightley.jpg","E_F_Kate_Winslet.jpg",NA,NA,NA,NA,NA,0.1724,NA,NA,NA,NA,NA,NA,NA,NA,NA,NA,FALSE,"CLIP_res","E_F_Kate_Winslet.jpg E_F_keira_knightley.jpg"
NA,"E_F_keira_knightley.jpg","E_M_Hugh_Grant.jpg",NA,NA,NA,NA,NA,0.5305,NA,NA,NA,NA,NA,NA,NA,NA,NA,NA,FALSE,"CLIP_res","E_F_keira_knightley.jpg E_M_Hugh_Grant.jpg"
NA,"E_F_keira_knightley.jpg","P_M_donald_trump.jpg",NA,NA,NA,NA,NA,0.5632,NA,NA,NA,NA,NA,NA,NA,NA,NA,NA,FALSE,"CLIP_res","E_F_keira_knightley.jpg P_M_donald_trump.jpg"
NA,"E_F_keira_knightley.jpg","E_M_liam_neeson.jpg",NA,NA,NA,NA,NA,0.511,NA,NA,NA,NA,NA,NA,NA,NA,NA,NA,FALSE,"CLIP_res","E_F_keira_knightley.jpg E_M_liam_neeson.jpg"
NA,"E_F_keira_knightley.jpg","P_M_boris_johnson.jpg",NA,NA,NA,NA,NA,0.5913,NA,NA,NA,NA,NA,NA,NA,NA,NA,NA,FALSE,"CLIP_res","E_F_keira_knightley.jpg P_M_boris_johnson.jpg"
NA,"E_F_keira_knightley.jpg","E_M_tom_hankes.jpg",NA,NA,NA,NA,NA,0.385,NA,NA,NA,NA,NA,NA,NA,NA,NA,NA,FALSE,"CLIP_res","E_F_keira_knightley.jpg E_M_tom_hankes.jpg"
NA,"E_F_keira_knightley.jpg","P_F_tehresy_may.jpg",NA,NA,NA,NA,NA,0.5461,NA,NA,NA,NA,NA,NA,NA,NA,NA,NA,FALSE,"CLIP_res","E_F_keira_knightley.jpg P_F_tehresy_may.jpg"
NA,"E_F_keira_knightley.jpg","P_F_hillary_clinton.jpg",NA,NA,NA,NA,NA,0.517,NA,NA,NA,NA,NA,NA,NA,NA,NA,NA,FALSE,"CLIP_res","E_F_keira_knightley.jpg P_F_hillary_clinton.jpg"
NA,"E_F_keira_knightley.jpg","P_M_Tony_Blair.jpg",NA,NA,NA,NA,NA,0.5757,NA,NA,NA,NA,NA,NA,NA,NA,NA,NA,FALSE,"CLIP_res","E_F_keira_knightley.jpg P_M_Tony_Blair.jpg"
NA,"E_F_keira_knightley.jpg","E_M_nicolas_cage.jpg",NA,NA,NA,NA,NA,0.492,NA,NA,NA,NA,NA,NA,NA,NA,NA,NA,FALSE,"CLIP_res","E_F_keira_knightley.jpg E_M_nicolas_cage.jpg"
NA,"P_F_esther_mcvey.jpg","E_F_Judi_Dench.jpg",NA,NA,NA,NA,NA,0.4873,NA,NA,NA,NA,NA,NA,NA,NA,NA,NA,FALSE,"CLIP_res","E_F_Judi_Dench.jpg P_F_esther_mcvey.jpg"
NA,"P_F_esther_mcvey.jpg","E_F_jennifer_aniston.jpg",NA,NA,NA,NA,NA,0.465,NA,NA,NA,NA,NA,NA,NA,NA,NA,NA,FALSE,"CLIP_res","E_F_jennifer_aniston.jpg P_F_esther_mcvey.jpg"
NA,"P_F_esther_mcvey.jpg","P_F_angela_rayner.jpg",NA,NA,NA,NA,NA,0.231,NA,NA,NA,NA,NA,NA,NA,NA,NA,NA,FALSE,"CLIP_res","P_F_angela_rayner.jpg P_F_esther_mcvey.jpg"
NA,"P_F_esther_mcvey.jpg","E_F_sandra_bullock.jpg",NA,NA,NA,NA,NA,0.567,NA,NA,NA,NA,NA,NA,NA,NA,NA,NA,FALSE,"CLIP_res","E_F_sandra_bullock.jpg P_F_esther_mcvey.jpg"
NA,"P_F_esther_mcvey.jpg","P_F_PRITI_PATEL.jpg",NA,NA,NA,NA,NA,0.3306,NA,NA,NA,NA,NA,NA,NA,NA,NA,NA,FALSE,"CLIP_res","P_F_esther_mcvey.jpg P_F_PRITI_PATEL.jpg"
NA,"P_F_esther_mcvey.jpg","P_M_david_cameron.jpg",NA,NA,NA,NA,NA,0.3896,NA,NA,NA,NA,NA,NA,NA,NA,NA,NA,FALSE,"CLIP_res","P_F_esther_mcvey.jpg P_M_david_cameron.jpg"
NA,"P_F_esther_mcvey.jpg","P_M_george_Wbush.jpg",NA,NA,NA,NA,NA,0.5576,NA,NA,NA,NA,NA,NA,NA,NA,NA,NA,FALSE,"CLIP_res","P_F_esther_mcvey.jpg P_M_george_Wbush.jpg"
NA,"P_F_esther_mcvey.jpg","E_M_Martin_Freeman.jpg",NA,NA,NA,NA,NA,0.5522,NA,NA,NA,NA,NA,NA,NA,NA,NA,NA,FALSE,"CLIP_res","E_M_Martin_Freeman.jpg P_F_esther_mcvey.jpg"
NA,"P_F_esther_mcvey.jpg","E_F_angelina_jolie.jpg",NA,NA,NA,NA,NA,0.476,NA,NA,NA,NA,NA,NA,NA,NA,NA,NA,FALSE,"CLIP_res","E_F_angelina_jolie.jpg P_F_esther_mcvey.jpg"
NA,"P_F_esther_mcvey.jpg","E_M_anthony_hopkins.jpg",NA,NA,NA,NA,NA,0.463,NA,NA,NA,NA,NA,NA,NA,NA,NA,NA,FALSE,"CLIP_res","E_M_anthony_hopkins.jpg P_F_esther_mcvey.jpg"
NA,"P_F_esther_mcvey.jpg","P_F_nicola_sturgeon.jpg",NA,NA,NA,NA,NA,0.4336,NA,NA,NA,NA,NA,NA,NA,NA,NA,NA,FALSE,"CLIP_res","P_F_esther_mcvey.jpg P_F_nicola_sturgeon.jpg"
NA,"P_F_esther_mcvey.jpg","E_M_michael_caine.jpg",NA,NA,NA,NA,NA,0.5312,NA,NA,NA,NA,NA,NA,NA,NA,NA,NA,FALSE,"CLIP_res","E_M_michael_caine.jpg P_F_esther_mcvey.jpg"
NA,"P_F_esther_mcvey.jpg","E_M_robert_de_niro.jpg",NA,NA,NA,NA,NA,0.5957,NA,NA,NA,NA,NA,NA,NA,NA,NA,NA,FALSE,"CLIP_res","E_M_robert_de_niro.jpg P_F_esther_mcvey.jpg"
NA,"P_F_esther_mcvey.jpg","E_F_Kate_Winslet.jpg",NA,NA,NA,NA,NA,0.4854,NA,NA,NA,NA,NA,NA,NA,NA,NA,NA,FALSE,"CLIP_res","E_F_Kate_Winslet.jpg P_F_esther_mcvey.jpg"
NA,"P_F_esther_mcvey.jpg","E_M_Hugh_Grant.jpg",NA,NA,NA,NA,NA,0.5251,NA,NA,NA,NA,NA,NA,NA,NA,NA,NA,FALSE,"CLIP_res","E_M_Hugh_Grant.jpg P_F_esther_mcvey.jpg"
NA,"P_F_esther_mcvey.jpg","P_M_donald_trump.jpg",NA,NA,NA,NA,NA,0.519,NA,NA,NA,NA,NA,NA,NA,NA,NA,NA,FALSE,"CLIP_res","P_F_esther_mcvey.jpg P_M_donald_trump.jpg"
NA,"P_F_esther_mcvey.jpg","E_M_liam_neeson.jpg",NA,NA,NA,NA,NA,0.6277,NA,NA,NA,NA,NA,NA,NA,NA,NA,NA,FALSE,"CLIP_res","E_M_liam_neeson.jpg P_F_esther_mcvey.jpg"
NA,"P_F_esther_mcvey.jpg","P_M_boris_johnson.jpg",NA,NA,NA,NA,NA,0.452,NA,NA,NA,NA,NA,NA,NA,NA,NA,NA,FALSE,"CLIP_res","P_F_esther_mcvey.jpg P_M_boris_johnson.jpg"
NA,"P_F_esther_mcvey.jpg","E_M_tom_hankes.jpg",NA,NA,NA,NA,NA,0.5232,NA,NA,NA,NA,NA,NA,NA,NA,NA,NA,FALSE,"CLIP_res","E_M_tom_hankes.jpg P_F_esther_mcvey.jpg"
NA,"P_F_esther_mcvey.jpg","P_F_tehresy_may.jpg",NA,NA,NA,NA,NA,0.372,NA,NA,NA,NA,NA,NA,NA,NA,NA,NA,FALSE,"CLIP_res","P_F_esther_mcvey.jpg P_F_tehresy_may.jpg"
NA,"P_F_esther_mcvey.jpg","P_F_hillary_clinton.jpg",NA,NA,NA,NA,NA,0.483,NA,NA,NA,NA,NA,NA,NA,NA,NA,NA,FALSE,"CLIP_res","P_F_esther_mcvey.jpg P_F_hillary_clinton.jpg"
NA,"P_F_esther_mcvey.jpg","P_M_Tony_Blair.jpg",NA,NA,NA,NA,NA,0.4814,NA,NA,NA,NA,NA,NA,NA,NA,NA,NA,FALSE,"CLIP_res","P_F_esther_mcvey.jpg P_M_Tony_Blair.jpg"
NA,"P_F_esther_mcvey.jpg","E_M_nicolas_cage.jpg",NA,NA,NA,NA,NA,0.5828,NA,NA,NA,NA,NA,NA,NA,NA,NA,NA,FALSE,"CLIP_res","E_M_nicolas_cage.jpg P_F_esther_mcvey.jpg"
NA,"E_F_Judi_Dench.jpg","E_F_jennifer_aniston.jpg",NA,NA,NA,NA,NA,0.46,NA,NA,NA,NA,NA,NA,NA,NA,NA,NA,FALSE,"CLIP_res","E_F_jennifer_aniston.jpg E_F_Judi_Dench.jpg"
NA,"E_F_Judi_Dench.jpg","P_F_angela_rayner.jpg",NA,NA,NA,NA,NA,0.428,NA,NA,NA,NA,NA,NA,NA,NA,NA,NA,FALSE,"CLIP_res","E_F_Judi_Dench.jpg P_F_angela_rayner.jpg"
NA,"E_F_Judi_Dench.jpg","E_F_sandra_bullock.jpg",NA,NA,NA,NA,NA,0.405,NA,NA,NA,NA,NA,NA,NA,NA,NA,NA,FALSE,"CLIP_res","E_F_Judi_Dench.jpg E_F_sandra_bullock.jpg"
NA,"E_F_Judi_Dench.jpg","P_F_PRITI_PATEL.jpg",NA,NA,NA,NA,NA,0.476,NA,NA,NA,NA,NA,NA,NA,NA,NA,NA,FALSE,"CLIP_res","E_F_Judi_Dench.jpg P_F_PRITI_PATEL.jpg"
NA,"E_F_Judi_Dench.jpg","P_M_david_cameron.jpg",NA,NA,NA,NA,NA,0.4775,NA,NA,NA,NA,NA,NA,NA,NA,NA,NA,FALSE,"CLIP_res","E_F_Judi_Dench.jpg P_M_david_cameron.jpg"
NA,"E_F_Judi_Dench.jpg","P_M_george_Wbush.jpg",NA,NA,NA,NA,NA,0.5173,NA,NA,NA,NA,NA,NA,NA,NA,NA,NA,FALSE,"CLIP_res","E_F_Judi_Dench.jpg P_M_george_Wbush.jpg"
NA,"E_F_Judi_Dench.jpg","E_M_Martin_Freeman.jpg",NA,NA,NA,NA,NA,0.4697,NA,NA,NA,NA,NA,NA,NA,NA,NA,NA,FALSE,"CLIP_res","E_F_Judi_Dench.jpg E_M_Martin_Freeman.jpg"
NA,"E_F_Judi_Dench.jpg","E_F_angelina_jolie.jpg",NA,NA,NA,NA,NA,0.3613,NA,NA,NA,NA,NA,NA,NA,NA,NA,NA,FALSE,"CLIP_res","E_F_angelina_jolie.jpg E_F_Judi_Dench.jpg"
NA,"E_F_Judi_Dench.jpg","E_M_anthony_hopkins.jpg",NA,NA,NA,NA,NA,0.43,NA,NA,NA,NA,NA,NA,NA,NA,NA,NA,FALSE,"CLIP_res","E_F_Judi_Dench.jpg E_M_anthony_hopkins.jpg"
NA,"E_F_Judi_Dench.jpg","P_F_nicola_sturgeon.jpg",NA,NA,NA,NA,NA,0.4365,NA,NA,NA,NA,NA,NA,NA,NA,NA,NA,FALSE,"CLIP_res","E_F_Judi_Dench.jpg P_F_nicola_sturgeon.jpg"
NA,"E_F_Judi_Dench.jpg","E_M_michael_caine.jpg",NA,NA,NA,NA,NA,0.5188,NA,NA,NA,NA,NA,NA,NA,NA,NA,NA,FALSE,"CLIP_res","E_F_Judi_Dench.jpg E_M_michael_caine.jpg"
NA,"E_F_Judi_Dench.jpg","E_M_robert_de_niro.jpg",NA,NA,NA,NA,NA,0.5227,NA,NA,NA,NA,NA,NA,NA,NA,NA,NA,FALSE,"CLIP_res","E_F_Judi_Dench.jpg E_M_robert_de_niro.jpg"
NA,"E_F_Judi_Dench.jpg","E_F_Kate_Winslet.jpg",NA,NA,NA,NA,NA,0.447,NA,NA,NA,NA,NA,NA,NA,NA,NA,NA,FALSE,"CLIP_res","E_F_Judi_Dench.jpg E_F_Kate_Winslet.jpg"
NA,"E_F_Judi_Dench.jpg","E_M_Hugh_Grant.jpg",NA,NA,NA,NA,NA,0.463,NA,NA,NA,NA,NA,NA,NA,NA,NA,NA,FALSE,"CLIP_res","E_F_Judi_Dench.jpg E_M_Hugh_Grant.jpg"
NA,"E_F_Judi_Dench.jpg","P_M_donald_trump.jpg",NA,NA,NA,NA,NA,0.5322,NA,NA,NA,NA,NA,NA,NA,NA,NA,NA,FALSE,"CLIP_res","E_F_Judi_Dench.jpg P_M_donald_trump.jpg"
NA,"E_F_Judi_Dench.jpg","E_M_liam_neeson.jpg",NA,NA,NA,NA,NA,0.468,NA,NA,NA,NA,NA,NA,NA,NA,NA,NA,FALSE,"CLIP_res","E_F_Judi_Dench.jpg E_M_liam_neeson.jpg"
NA,"E_F_Judi_Dench.jpg","P_M_boris_johnson.jpg",NA,NA,NA,NA,NA,0.492,NA,NA,NA,NA,NA,NA,NA,NA,NA,NA,FALSE,"CLIP_res","E_F_Judi_Dench.jpg P_M_boris_johnson.jpg"
NA,"E_F_Judi_Dench.jpg","E_M_tom_hankes.jpg",NA,NA,NA,NA,NA,0.4634,NA,NA,NA,NA,NA,NA,NA,NA,NA,NA,FALSE,"CLIP_res","E_F_Judi_Dench.jpg E_M_tom_hankes.jpg"
NA,"E_F_Judi_Dench.jpg","P_F_tehresy_may.jpg",NA,NA,NA,NA,NA,0.5293,NA,NA,NA,NA,NA,NA,NA,NA,NA,NA,FALSE,"CLIP_res","E_F_Judi_Dench.jpg P_F_tehresy_may.jpg"
NA,"E_F_Judi_Dench.jpg","P_F_hillary_clinton.jpg",NA,NA,NA,NA,NA,0.434,NA,NA,NA,NA,NA,NA,NA,NA,NA,NA,FALSE,"CLIP_res","E_F_Judi_Dench.jpg P_F_hillary_clinton.jpg"
NA,"E_F_Judi_Dench.jpg","P_M_Tony_Blair.jpg",NA,NA,NA,NA,NA,0.5525,NA,NA,NA,NA,NA,NA,NA,NA,NA,NA,FALSE,"CLIP_res","E_F_Judi_Dench.jpg P_M_Tony_Blair.jpg"
NA,"E_F_Judi_Dench.jpg","E_M_nicolas_cage.jpg",NA,NA,NA,NA,NA,0.5237,NA,NA,NA,NA,NA,NA,NA,NA,NA,NA,FALSE,"CLIP_res","E_F_Judi_Dench.jpg E_M_nicolas_cage.jpg"
NA,"E_F_jennifer_aniston.jpg","P_F_angela_rayner.jpg",NA,NA,NA,NA,NA,0.475,NA,NA,NA,NA,NA,NA,NA,NA,NA,NA,FALSE,"CLIP_res","E_F_jennifer_aniston.jpg P_F_angela_rayner.jpg"
NA,"E_F_jennifer_aniston.jpg","E_F_sandra_bullock.jpg",NA,NA,NA,NA,NA,0.2183,NA,NA,NA,NA,NA,NA,NA,NA,NA,NA,FALSE,"CLIP_res","E_F_jennifer_aniston.jpg E_F_sandra_bullock.jpg"
NA,"E_F_jennifer_aniston.jpg","P_F_PRITI_PATEL.jpg",NA,NA,NA,NA,NA,0.494,NA,NA,NA,NA,NA,NA,NA,NA,NA,NA,FALSE,"CLIP_res","E_F_jennifer_aniston.jpg P_F_PRITI_PATEL.jpg"
NA,"E_F_jennifer_aniston.jpg","P_M_david_cameron.jpg",NA,NA,NA,NA,NA,0.4526,NA,NA,NA,NA,NA,NA,NA,NA,NA,NA,FALSE,"CLIP_res","E_F_jennifer_aniston.jpg P_M_david_cameron.jpg"
NA,"E_F_jennifer_aniston.jpg","P_M_george_Wbush.jpg",NA,NA,NA,NA,NA,0.4443,NA,NA,NA,NA,NA,NA,NA,NA,NA,NA,FALSE,"CLIP_res","E_F_jennifer_aniston.jpg P_M_george_Wbush.jpg"
NA,"E_F_jennifer_aniston.jpg","E_M_Martin_Freeman.jpg",NA,NA,NA,NA,NA,0.354,NA,NA,NA,NA,NA,NA,NA,NA,NA,NA,FALSE,"CLIP_res","E_F_jennifer_aniston.jpg E_M_Martin_Freeman.jpg"
NA,"E_F_jennifer_aniston.jpg","E_F_angelina_jolie.jpg",NA,NA,NA,NA,NA,0.221,NA,NA,NA,NA,NA,NA,NA,NA,NA,NA,FALSE,"CLIP_res","E_F_angelina_jolie.jpg E_F_jennifer_aniston.jpg"
NA,"E_F_jennifer_aniston.jpg","E_M_anthony_hopkins.jpg",NA,NA,NA,NA,NA,0.459,NA,NA,NA,NA,NA,NA,NA,NA,NA,NA,FALSE,"CLIP_res","E_F_jennifer_aniston.jpg E_M_anthony_hopkins.jpg"
NA,"E_F_jennifer_aniston.jpg","P_F_nicola_sturgeon.jpg",NA,NA,NA,NA,NA,0.4863,NA,NA,NA,NA,NA,NA,NA,NA,NA,NA,FALSE,"CLIP_res","E_F_jennifer_aniston.jpg P_F_nicola_sturgeon.jpg"
NA,"E_F_jennifer_aniston.jpg","E_M_michael_caine.jpg",NA,NA,NA,NA,NA,0.528,NA,NA,NA,NA,NA,NA,NA,NA,NA,NA,FALSE,"CLIP_res","E_F_jennifer_aniston.jpg E_M_michael_caine.jpg"
NA,"E_F_jennifer_aniston.jpg","E_M_robert_de_niro.jpg",NA,NA,NA,NA,NA,0.4434,NA,NA,NA,NA,NA,NA,NA,NA,NA,NA,FALSE,"CLIP_res","E_F_jennifer_aniston.jpg E_M_robert_de_niro.jpg"
NA,"E_F_jennifer_aniston.jpg","E_F_Kate_Winslet.jpg",NA,NA,NA,NA,NA,0.239,NA,NA,NA,NA,NA,NA,NA,NA,NA,NA,FALSE,"CLIP_res","E_F_jennifer_aniston.jpg E_F_Kate_Winslet.jpg"
NA,"E_F_jennifer_aniston.jpg","E_M_Hugh_Grant.jpg",NA,NA,NA,NA,NA,0.481,NA,NA,NA,NA,NA,NA,NA,NA,NA,NA,FALSE,"CLIP_res","E_F_jennifer_aniston.jpg E_M_Hugh_Grant.jpg"
NA,"E_F_jennifer_aniston.jpg","P_M_donald_trump.jpg",NA,NA,NA,NA,NA,0.454,NA,NA,NA,NA,NA,NA,NA,NA,NA,NA,FALSE,"CLIP_res","E_F_jennifer_aniston.jpg P_M_donald_trump.jpg"
NA,"E_F_jennifer_aniston.jpg","E_M_liam_neeson.jpg",NA,NA,NA,NA,NA,0.441,NA,NA,NA,NA,NA,NA,NA,NA,NA,NA,FALSE,"CLIP_res","E_F_jennifer_aniston.jpg E_M_liam_neeson.jpg"
NA,"E_F_jennifer_aniston.jpg","P_M_boris_johnson.jpg",NA,NA,NA,NA,NA,0.4644,NA,NA,NA,NA,NA,NA,NA,NA,NA,NA,FALSE,"CLIP_res","E_F_jennifer_aniston.jpg P_M_boris_johnson.jpg"
NA,"E_F_jennifer_aniston.jpg","E_M_tom_hankes.jpg",NA,NA,NA,NA,NA,0.2607,NA,NA,NA,NA,NA,NA,NA,NA,NA,NA,FALSE,"CLIP_res","E_F_jennifer_aniston.jpg E_M_tom_hankes.jpg"
NA,"E_F_jennifer_aniston.jpg","P_F_tehresy_may.jpg",NA,NA,NA,NA,NA,0.422,NA,NA,NA,NA,NA,NA,NA,NA,NA,NA,FALSE,"CLIP_res","E_F_jennifer_aniston.jpg P_F_tehresy_may.jpg"
NA,"E_F_jennifer_aniston.jpg","P_F_hillary_clinton.jpg",NA,NA,NA,NA,NA,0.388,NA,NA,NA,NA,NA,NA,NA,NA,NA,NA,FALSE,"CLIP_res","E_F_jennifer_aniston.jpg P_F_hillary_clinton.jpg"
NA,"E_F_jennifer_aniston.jpg","P_M_Tony_Blair.jpg",NA,NA,NA,NA,NA,0.488,NA,NA,NA,NA,NA,NA,NA,NA,NA,NA,FALSE,"CLIP_res","E_F_jennifer_aniston.jpg P_M_Tony_Blair.jpg"
NA,"E_F_jennifer_aniston.jpg","E_M_nicolas_cage.jpg",NA,NA,NA,NA,NA,0.4126,NA,NA,NA,NA,NA,NA,NA,NA,NA,NA,FALSE,"CLIP_res","E_F_jennifer_aniston.jpg E_M_nicolas_cage.jpg"
NA,"P_F_angela_rayner.jpg","E_F_sandra_bullock.jpg",NA,NA,NA,NA,NA,0.457,NA,NA,NA,NA,NA,NA,NA,NA,NA,NA,FALSE,"CLIP_res","E_F_sandra_bullock.jpg P_F_angela_rayner.jpg"
NA,"P_F_angela_rayner.jpg","P_F_PRITI_PATEL.jpg",NA,NA,NA,NA,NA,0.3037,NA,NA,NA,NA,NA,NA,NA,NA,NA,NA,FALSE,"CLIP_res","P_F_angela_rayner.jpg P_F_PRITI_PATEL.jpg"
NA,"P_F_angela_rayner.jpg","P_M_david_cameron.jpg",NA,NA,NA,NA,NA,0.4453,NA,NA,NA,NA,NA,NA,NA,NA,NA,NA,FALSE,"CLIP_res","P_F_angela_rayner.jpg P_M_david_cameron.jpg"
NA,"P_F_angela_rayner.jpg","P_M_george_Wbush.jpg",NA,NA,NA,NA,NA,0.5593,NA,NA,NA,NA,NA,NA,NA,NA,NA,NA,FALSE,"CLIP_res","P_F_angela_rayner.jpg P_M_george_Wbush.jpg"
NA,"P_F_angela_rayner.jpg","E_M_Martin_Freeman.jpg",NA,NA,NA,NA,NA,0.5276,NA,NA,NA,NA,NA,NA,NA,NA,NA,NA,FALSE,"CLIP_res","E_M_Martin_Freeman.jpg P_F_angela_rayner.jpg"
NA,"P_F_angela_rayner.jpg","E_F_angelina_jolie.jpg",NA,NA,NA,NA,NA,0.4233,NA,NA,NA,NA,NA,NA,NA,NA,NA,NA,FALSE,"CLIP_res","E_F_angelina_jolie.jpg P_F_angela_rayner.jpg"
NA,"P_F_angela_rayner.jpg","E_M_anthony_hopkins.jpg",NA,NA,NA,NA,NA,0.532,NA,NA,NA,NA,NA,NA,NA,NA,NA,NA,FALSE,"CLIP_res","E_M_anthony_hopkins.jpg P_F_angela_rayner.jpg"
NA,"P_F_angela_rayner.jpg","P_F_nicola_sturgeon.jpg",NA,NA,NA,NA,NA,0.4756,NA,NA,NA,NA,NA,NA,NA,NA,NA,NA,FALSE,"CLIP_res","P_F_angela_rayner.jpg P_F_nicola_sturgeon.jpg"
NA,"P_F_angela_rayner.jpg","E_M_michael_caine.jpg",NA,NA,NA,NA,NA,0.5452,NA,NA,NA,NA,NA,NA,NA,NA,NA,NA,FALSE,"CLIP_res","E_M_michael_caine.jpg P_F_angela_rayner.jpg"
NA,"P_F_angela_rayner.jpg","E_M_robert_de_niro.jpg",NA,NA,NA,NA,NA,0.6228,NA,NA,NA,NA,NA,NA,NA,NA,NA,NA,FALSE,"CLIP_res","E_M_robert_de_niro.jpg P_F_angela_rayner.jpg"
NA,"P_F_angela_rayner.jpg","E_F_Kate_Winslet.jpg",NA,NA,NA,NA,NA,0.419,NA,NA,NA,NA,NA,NA,NA,NA,NA,NA,FALSE,"CLIP_res","E_F_Kate_Winslet.jpg P_F_angela_rayner.jpg"
NA,"P_F_angela_rayner.jpg","E_M_Hugh_Grant.jpg",NA,NA,NA,NA,NA,0.482,NA,NA,NA,NA,NA,NA,NA,NA,NA,NA,FALSE,"CLIP_res","E_M_Hugh_Grant.jpg P_F_angela_rayner.jpg"
NA,"P_F_angela_rayner.jpg","P_M_donald_trump.jpg",NA,NA,NA,NA,NA,0.5066,NA,NA,NA,NA,NA,NA,NA,NA,NA,NA,FALSE,"CLIP_res","P_F_angela_rayner.jpg P_M_donald_trump.jpg"
NA,"P_F_angela_rayner.jpg","E_M_liam_neeson.jpg",NA,NA,NA,NA,NA,0.5737,NA,NA,NA,NA,NA,NA,NA,NA,NA,NA,FALSE,"CLIP_res","E_M_liam_neeson.jpg P_F_angela_rayner.jpg"
NA,"P_F_angela_rayner.jpg","P_M_boris_johnson.jpg",NA,NA,NA,NA,NA,0.4917,NA,NA,NA,NA,NA,NA,NA,NA,NA,NA,FALSE,"CLIP_res","P_F_angela_rayner.jpg P_M_boris_johnson.jpg"
NA,"P_F_angela_rayner.jpg","E_M_tom_hankes.jpg",NA,NA,NA,NA,NA,0.5308,NA,NA,NA,NA,NA,NA,NA,NA,NA,NA,FALSE,"CLIP_res","E_M_tom_hankes.jpg P_F_angela_rayner.jpg"
NA,"P_F_angela_rayner.jpg","P_F_tehresy_may.jpg",NA,NA,NA,NA,NA,0.484,NA,NA,NA,NA,NA,NA,NA,NA,NA,NA,FALSE,"CLIP_res","P_F_angela_rayner.jpg P_F_tehresy_may.jpg"
NA,"P_F_angela_rayner.jpg","P_F_hillary_clinton.jpg",NA,NA,NA,NA,NA,0.468,NA,NA,NA,NA,NA,NA,NA,NA,NA,NA,FALSE,"CLIP_res","P_F_angela_rayner.jpg P_F_hillary_clinton.jpg"
NA,"P_F_angela_rayner.jpg","P_M_Tony_Blair.jpg",NA,NA,NA,NA,NA,0.536,NA,NA,NA,NA,NA,NA,NA,NA,NA,NA,FALSE,"CLIP_res","P_F_angela_rayner.jpg P_M_Tony_Blair.jpg"
NA,"P_F_angela_rayner.jpg","E_M_nicolas_cage.jpg",NA,NA,NA,NA,NA,0.5627,NA,NA,NA,NA,NA,NA,NA,NA,NA,NA,FALSE,"CLIP_res","E_M_nicolas_cage.jpg P_F_angela_rayner.jpg"
NA,"E_F_sandra_bullock.jpg","P_F_PRITI_PATEL.jpg",NA,NA,NA,NA,NA,0.4624,NA,NA,NA,NA,NA,NA,NA,NA,NA,NA,FALSE,"CLIP_res","E_F_sandra_bullock.jpg P_F_PRITI_PATEL.jpg"
NA,"E_F_sandra_bullock.jpg","P_M_david_cameron.jpg",NA,NA,NA,NA,NA,0.5205,NA,NA,NA,NA,NA,NA,NA,NA,NA,NA,FALSE,"CLIP_res","E_F_sandra_bullock.jpg P_M_david_cameron.jpg"
NA,"E_F_sandra_bullock.jpg","P_M_george_Wbush.jpg",NA,NA,NA,NA,NA,0.4834,NA,NA,NA,NA,NA,NA,NA,NA,NA,NA,FALSE,"CLIP_res","E_F_sandra_bullock.jpg P_M_george_Wbush.jpg"
NA,"E_F_sandra_bullock.jpg","E_M_Martin_Freeman.jpg",NA,NA,NA,NA,NA,0.418,NA,NA,NA,NA,NA,NA,NA,NA,NA,NA,FALSE,"CLIP_res","E_F_sandra_bullock.jpg E_M_Martin_Freeman.jpg"
NA,"E_F_sandra_bullock.jpg","E_F_angelina_jolie.jpg",NA,NA,NA,NA,NA,0.2437,NA,NA,NA,NA,NA,NA,NA,NA,NA,NA,FALSE,"CLIP_res","E_F_angelina_jolie.jpg E_F_sandra_bullock.jpg"
NA,"E_F_sandra_bullock.jpg","E_M_anthony_hopkins.jpg",NA,NA,NA,NA,NA,0.489,NA,NA,NA,NA,NA,NA,NA,NA,NA,NA,FALSE,"CLIP_res","E_F_sandra_bullock.jpg E_M_anthony_hopkins.jpg"
NA,"E_F_sandra_bullock.jpg","P_F_nicola_sturgeon.jpg",NA,NA,NA,NA,NA,0.5173,NA,NA,NA,NA,NA,NA,NA,NA,NA,NA,FALSE,"CLIP_res","E_F_sandra_bullock.jpg P_F_nicola_sturgeon.jpg"
NA,"E_F_sandra_bullock.jpg","E_M_michael_caine.jpg",NA,NA,NA,NA,NA,0.5452,NA,NA,NA,NA,NA,NA,NA,NA,NA,NA,FALSE,"CLIP_res","E_F_sandra_bullock.jpg E_M_michael_caine.jpg"
NA,"E_F_sandra_bullock.jpg","E_M_robert_de_niro.jpg",NA,NA,NA,NA,NA,0.4917,NA,NA,NA,NA,NA,NA,NA,NA,NA,NA,FALSE,"CLIP_res","E_F_sandra_bullock.jpg E_M_robert_de_niro.jpg"
NA,"E_F_sandra_bullock.jpg","E_F_Kate_Winslet.jpg",NA,NA,NA,NA,NA,0.2676,NA,NA,NA,NA,NA,NA,NA,NA,NA,NA,FALSE,"CLIP_res","E_F_Kate_Winslet.jpg E_F_sandra_bullock.jpg"
NA,"E_F_sandra_bullock.jpg","E_M_Hugh_Grant.jpg",NA,NA,NA,NA,NA,0.488,NA,NA,NA,NA,NA,NA,NA,NA,NA,NA,FALSE,"CLIP_res","E_F_sandra_bullock.jpg E_M_Hugh_Grant.jpg"
NA,"E_F_sandra_bullock.jpg","P_M_donald_trump.jpg",NA,NA,NA,NA,NA,0.4756,NA,NA,NA,NA,NA,NA,NA,NA,NA,NA,FALSE,"CLIP_res","E_F_sandra_bullock.jpg P_M_donald_trump.jpg"
NA,"E_F_sandra_bullock.jpg","E_M_liam_neeson.jpg",NA,NA,NA,NA,NA,0.407,NA,NA,NA,NA,NA,NA,NA,NA,NA,NA,FALSE,"CLIP_res","E_F_sandra_bullock.jpg E_M_liam_neeson.jpg"
NA,"E_F_sandra_bullock.jpg","P_M_boris_johnson.jpg",NA,NA,NA,NA,NA,0.5103,NA,NA,NA,NA,NA,NA,NA,NA,NA,NA,FALSE,"CLIP_res","E_F_sandra_bullock.jpg P_M_boris_johnson.jpg"
NA,"E_F_sandra_bullock.jpg","E_M_tom_hankes.jpg",NA,NA,NA,NA,NA,0.3564,NA,NA,NA,NA,NA,NA,NA,NA,NA,NA,FALSE,"CLIP_res","E_F_sandra_bullock.jpg E_M_tom_hankes.jpg"
NA,"E_F_sandra_bullock.jpg","P_F_tehresy_may.jpg",NA,NA,NA,NA,NA,0.5115,NA,NA,NA,NA,NA,NA,NA,NA,NA,NA,FALSE,"CLIP_res","E_F_sandra_bullock.jpg P_F_tehresy_may.jpg"
NA,"E_F_sandra_bullock.jpg","P_F_hillary_clinton.jpg",NA,NA,NA,NA,NA,0.431,NA,NA,NA,NA,NA,NA,NA,NA,NA,NA,FALSE,"CLIP_res","E_F_sandra_bullock.jpg P_F_hillary_clinton.jpg"
NA,"E_F_sandra_bullock.jpg","P_M_Tony_Blair.jpg",NA,NA,NA,NA,NA,0.5571,NA,NA,NA,NA,NA,NA,NA,NA,NA,NA,FALSE,"CLIP_res","E_F_sandra_bullock.jpg P_M_Tony_Blair.jpg"
NA,"E_F_sandra_bullock.jpg","E_M_nicolas_cage.jpg",NA,NA,NA,NA,NA,0.445,NA,NA,NA,NA,NA,NA,NA,NA,NA,NA,FALSE,"CLIP_res","E_F_sandra_bullock.jpg E_M_nicolas_cage.jpg"
NA,"P_F_PRITI_PATEL.jpg","P_M_david_cameron.jpg",NA,NA,NA,NA,NA,0.459,NA,NA,NA,NA,NA,NA,NA,NA,NA,NA,FALSE,"CLIP_res","P_F_PRITI_PATEL.jpg P_M_david_cameron.jpg"
NA,"P_F_PRITI_PATEL.jpg","P_M_george_Wbush.jpg",NA,NA,NA,NA,NA,0.5403,NA,NA,NA,NA,NA,NA,NA,NA,NA,NA,FALSE,"CLIP_res","P_F_PRITI_PATEL.jpg P_M_george_Wbush.jpg"
NA,"P_F_PRITI_PATEL.jpg","E_M_Martin_Freeman.jpg",NA,NA,NA,NA,NA,0.556,NA,NA,NA,NA,NA,NA,NA,NA,NA,NA,FALSE,"CLIP_res","E_M_Martin_Freeman.jpg P_F_PRITI_PATEL.jpg"
NA,"P_F_PRITI_PATEL.jpg","E_F_angelina_jolie.jpg",NA,NA,NA,NA,NA,0.3945,NA,NA,NA,NA,NA,NA,NA,NA,NA,NA,FALSE,"CLIP_res","E_F_angelina_jolie.jpg P_F_PRITI_PATEL.jpg"
NA,"P_F_PRITI_PATEL.jpg","E_M_anthony_hopkins.jpg",NA,NA,NA,NA,NA,0.548,NA,NA,NA,NA,NA,NA,NA,NA,NA,NA,FALSE,"CLIP_res","E_M_anthony_hopkins.jpg P_F_PRITI_PATEL.jpg"
NA,"P_F_PRITI_PATEL.jpg","P_F_nicola_sturgeon.jpg",NA,NA,NA,NA,NA,0.5186,NA,NA,NA,NA,NA,NA,NA,NA,NA,NA,FALSE,"CLIP_res","P_F_nicola_sturgeon.jpg P_F_PRITI_PATEL.jpg"
NA,"P_F_PRITI_PATEL.jpg","E_M_michael_caine.jpg",NA,NA,NA,NA,NA,0.5386,NA,NA,NA,NA,NA,NA,NA,NA,NA,NA,FALSE,"CLIP_res","E_M_michael_caine.jpg P_F_PRITI_PATEL.jpg"
NA,"P_F_PRITI_PATEL.jpg","E_M_robert_de_niro.jpg",NA,NA,NA,NA,NA,0.5703,NA,NA,NA,NA,NA,NA,NA,NA,NA,NA,FALSE,"CLIP_res","E_M_robert_de_niro.jpg P_F_PRITI_PATEL.jpg"
NA,"P_F_PRITI_PATEL.jpg","E_F_Kate_Winslet.jpg",NA,NA,NA,NA,NA,0.426,NA,NA,NA,NA,NA,NA,NA,NA,NA,NA,FALSE,"CLIP_res","E_F_Kate_Winslet.jpg P_F_PRITI_PATEL.jpg"
NA,"P_F_PRITI_PATEL.jpg","E_M_Hugh_Grant.jpg",NA,NA,NA,NA,NA,0.5562,NA,NA,NA,NA,NA,NA,NA,NA,NA,NA,FALSE,"CLIP_res","E_M_Hugh_Grant.jpg P_F_PRITI_PATEL.jpg"
NA,"P_F_PRITI_PATEL.jpg","P_M_donald_trump.jpg",NA,NA,NA,NA,NA,0.496,NA,NA,NA,NA,NA,NA,NA,NA,NA,NA,FALSE,"CLIP_res","P_F_PRITI_PATEL.jpg P_M_donald_trump.jpg"
NA,"P_F_PRITI_PATEL.jpg","E_M_liam_neeson.jpg",NA,NA,NA,NA,NA,0.6252,NA,NA,NA,NA,NA,NA,NA,NA,NA,NA,FALSE,"CLIP_res","E_M_liam_neeson.jpg P_F_PRITI_PATEL.jpg"
NA,"P_F_PRITI_PATEL.jpg","P_M_boris_johnson.jpg",NA,NA,NA,NA,NA,0.5327,NA,NA,NA,NA,NA,NA,NA,NA,NA,NA,FALSE,"CLIP_res","P_F_PRITI_PATEL.jpg P_M_boris_johnson.jpg"
NA,"P_F_PRITI_PATEL.jpg","E_M_tom_hankes.jpg",NA,NA,NA,NA,NA,0.5413,NA,NA,NA,NA,NA,NA,NA,NA,NA,NA,FALSE,"CLIP_res","E_M_tom_hankes.jpg P_F_PRITI_PATEL.jpg"
NA,"P_F_PRITI_PATEL.jpg","P_F_tehresy_may.jpg",NA,NA,NA,NA,NA,0.491,NA,NA,NA,NA,NA,NA,NA,NA,NA,NA,FALSE,"CLIP_res","P_F_PRITI_PATEL.jpg P_F_tehresy_may.jpg"
NA,"P_F_PRITI_PATEL.jpg","P_F_hillary_clinton.jpg",NA,NA,NA,NA,NA,0.4565,NA,NA,NA,NA,NA,NA,NA,NA,NA,NA,FALSE,"CLIP_res","P_F_hillary_clinton.jpg P_F_PRITI_PATEL.jpg"
NA,"P_F_PRITI_PATEL.jpg","P_M_Tony_Blair.jpg",NA,NA,NA,NA,NA,0.5144,NA,NA,NA,NA,NA,NA,NA,NA,NA,NA,FALSE,"CLIP_res","P_F_PRITI_PATEL.jpg P_M_Tony_Blair.jpg"
NA,"P_F_PRITI_PATEL.jpg","E_M_nicolas_cage.jpg",NA,NA,NA,NA,NA,0.5918,NA,NA,NA,NA,NA,NA,NA,NA,NA,NA,FALSE,"CLIP_res","E_M_nicolas_cage.jpg P_F_PRITI_PATEL.jpg"
NA,"P_M_david_cameron.jpg","P_M_george_Wbush.jpg",NA,NA,NA,NA,NA,0.3057,NA,NA,NA,NA,NA,NA,NA,NA,NA,NA,FALSE,"CLIP_res","P_M_david_cameron.jpg P_M_george_Wbush.jpg"
NA,"P_M_david_cameron.jpg","E_M_Martin_Freeman.jpg",NA,NA,NA,NA,NA,0.353,NA,NA,NA,NA,NA,NA,NA,NA,NA,NA,FALSE,"CLIP_res","E_M_Martin_Freeman.jpg P_M_david_cameron.jpg"
NA,"P_M_david_cameron.jpg","E_F_angelina_jolie.jpg",NA,NA,NA,NA,NA,0.3613,NA,NA,NA,NA,NA,NA,NA,NA,NA,NA,FALSE,"CLIP_res","E_F_angelina_jolie.jpg P_M_david_cameron.jpg"
NA,"P_M_david_cameron.jpg","E_M_anthony_hopkins.jpg",NA,NA,NA,NA,NA,0.401,NA,NA,NA,NA,NA,NA,NA,NA,NA,NA,FALSE,"CLIP_res","E_M_anthony_hopkins.jpg P_M_david_cameron.jpg"
NA,"P_M_david_cameron.jpg","P_F_nicola_sturgeon.jpg",NA,NA,NA,NA,NA,0.248,NA,NA,NA,NA,NA,NA,NA,NA,NA,NA,FALSE,"CLIP_res","P_F_nicola_sturgeon.jpg P_M_david_cameron.jpg"
NA,"P_M_david_cameron.jpg","E_M_michael_caine.jpg",NA,NA,NA,NA,NA,0.4595,NA,NA,NA,NA,NA,NA,NA,NA,NA,NA,FALSE,"CLIP_res","E_M_michael_caine.jpg P_M_david_cameron.jpg"
NA,"P_M_david_cameron.jpg","E_M_robert_de_niro.jpg",NA,NA,NA,NA,NA,0.4697,NA,NA,NA,NA,NA,NA,NA,NA,NA,NA,FALSE,"CLIP_res","E_M_robert_de_niro.jpg P_M_david_cameron.jpg"
NA,"P_M_david_cameron.jpg","E_F_Kate_Winslet.jpg",NA,NA,NA,NA,NA,0.4717,NA,NA,NA,NA,NA,NA,NA,NA,NA,NA,FALSE,"CLIP_res","E_F_Kate_Winslet.jpg P_M_david_cameron.jpg"
NA,"P_M_david_cameron.jpg","E_M_Hugh_Grant.jpg",NA,NA,NA,NA,NA,0.423,NA,NA,NA,NA,NA,NA,NA,NA,NA,NA,FALSE,"CLIP_res","E_M_Hugh_Grant.jpg P_M_david_cameron.jpg"
NA,"P_M_david_cameron.jpg","P_M_donald_trump.jpg",NA,NA,NA,NA,NA,0.326,NA,NA,NA,NA,NA,NA,NA,NA,NA,NA,FALSE,"CLIP_res","P_M_david_cameron.jpg P_M_donald_trump.jpg"
NA,"P_M_david_cameron.jpg","E_M_liam_neeson.jpg",NA,NA,NA,NA,NA,0.442,NA,NA,NA,NA,NA,NA,NA,NA,NA,NA,FALSE,"CLIP_res","E_M_liam_neeson.jpg P_M_david_cameron.jpg"
NA,"P_M_david_cameron.jpg","P_M_boris_johnson.jpg",NA,NA,NA,NA,NA,0.2007,NA,NA,NA,NA,NA,NA,NA,NA,NA,NA,FALSE,"CLIP_res","P_M_boris_johnson.jpg P_M_david_cameron.jpg"
NA,"P_M_david_cameron.jpg","E_M_tom_hankes.jpg",NA,NA,NA,NA,NA,0.343,NA,NA,NA,NA,NA,NA,NA,NA,NA,NA,FALSE,"CLIP_res","E_M_tom_hankes.jpg P_M_david_cameron.jpg"
NA,"P_M_david_cameron.jpg","P_F_tehresy_may.jpg",NA,NA,NA,NA,NA,0.2544,NA,NA,NA,NA,NA,NA,NA,NA,NA,NA,FALSE,"CLIP_res","P_F_tehresy_may.jpg P_M_david_cameron.jpg"
NA,"P_M_david_cameron.jpg","P_F_hillary_clinton.jpg",NA,NA,NA,NA,NA,0.3364,NA,NA,NA,NA,NA,NA,NA,NA,NA,NA,FALSE,"CLIP_res","P_F_hillary_clinton.jpg P_M_david_cameron.jpg"
NA,"P_M_david_cameron.jpg","P_M_Tony_Blair.jpg",NA,NA,NA,NA,NA,0.225,NA,NA,NA,NA,NA,NA,NA,NA,NA,NA,FALSE,"CLIP_res","P_M_david_cameron.jpg P_M_Tony_Blair.jpg"
NA,"P_M_david_cameron.jpg","E_M_nicolas_cage.jpg",NA,NA,NA,NA,NA,0.391,NA,NA,NA,NA,NA,NA,NA,NA,NA,NA,FALSE,"CLIP_res","E_M_nicolas_cage.jpg P_M_david_cameron.jpg"
NA,"P_M_george_Wbush.jpg","E_M_Martin_Freeman.jpg",NA,NA,NA,NA,NA,0.394,NA,NA,NA,NA,NA,NA,NA,NA,NA,NA,FALSE,"CLIP_res","E_M_Martin_Freeman.jpg P_M_george_Wbush.jpg"
NA,"P_M_george_Wbush.jpg","E_F_angelina_jolie.jpg",NA,NA,NA,NA,NA,0.3403,NA,NA,NA,NA,NA,NA,NA,NA,NA,NA,FALSE,"CLIP_res","E_F_angelina_jolie.jpg P_M_george_Wbush.jpg"
NA,"P_M_george_Wbush.jpg","E_M_anthony_hopkins.jpg",NA,NA,NA,NA,NA,0.4194,NA,NA,NA,NA,NA,NA,NA,NA,NA,NA,FALSE,"CLIP_res","E_M_anthony_hopkins.jpg P_M_george_Wbush.jpg"
NA,"P_M_george_Wbush.jpg","P_F_nicola_sturgeon.jpg",NA,NA,NA,NA,NA,0.3877,NA,NA,NA,NA,NA,NA,NA,NA,NA,NA,FALSE,"CLIP_res","P_F_nicola_sturgeon.jpg P_M_george_Wbush.jpg"
NA,"P_M_george_Wbush.jpg","E_M_michael_caine.jpg",NA,NA,NA,NA,NA,0.414,NA,NA,NA,NA,NA,NA,NA,NA,NA,NA,FALSE,"CLIP_res","E_M_michael_caine.jpg P_M_george_Wbush.jpg"
NA,"P_M_george_Wbush.jpg","E_M_robert_de_niro.jpg",NA,NA,NA,NA,NA,0.429,NA,NA,NA,NA,NA,NA,NA,NA,NA,NA,FALSE,"CLIP_res","E_M_robert_de_niro.jpg P_M_george_Wbush.jpg"
NA,"P_M_george_Wbush.jpg","E_F_Kate_Winslet.jpg",NA,NA,NA,NA,NA,0.495,NA,NA,NA,NA,NA,NA,NA,NA,NA,NA,FALSE,"CLIP_res","E_F_Kate_Winslet.jpg P_M_george_Wbush.jpg"
NA,"P_M_george_Wbush.jpg","E_M_Hugh_Grant.jpg",NA,NA,NA,NA,NA,0.49,NA,NA,NA,NA,NA,NA,NA,NA,NA,NA,FALSE,"CLIP_res","E_M_Hugh_Grant.jpg P_M_george_Wbush.jpg"
NA,"P_M_george_Wbush.jpg","P_M_donald_trump.jpg",NA,NA,NA,NA,NA,0.23,NA,NA,NA,NA,NA,NA,NA,NA,NA,NA,FALSE,"CLIP_res","P_M_donald_trump.jpg P_M_george_Wbush.jpg"
NA,"P_M_george_Wbush.jpg","E_M_liam_neeson.jpg",NA,NA,NA,NA,NA,0.3804,NA,NA,NA,NA,NA,NA,NA,NA,NA,NA,FALSE,"CLIP_res","E_M_liam_neeson.jpg P_M_george_Wbush.jpg"
NA,"P_M_george_Wbush.jpg","P_M_boris_johnson.jpg",NA,NA,NA,NA,NA,0.308,NA,NA,NA,NA,NA,NA,NA,NA,NA,NA,FALSE,"CLIP_res","P_M_boris_johnson.jpg P_M_george_Wbush.jpg"
NA,"P_M_george_Wbush.jpg","E_M_tom_hankes.jpg",NA,NA,NA,NA,NA,0.309,NA,NA,NA,NA,NA,NA,NA,NA,NA,NA,FALSE,"CLIP_res","E_M_tom_hankes.jpg P_M_george_Wbush.jpg"
NA,"P_M_george_Wbush.jpg","P_F_tehresy_may.jpg",NA,NA,NA,NA,NA,0.3765,NA,NA,NA,NA,NA,NA,NA,NA,NA,NA,FALSE,"CLIP_res","P_F_tehresy_may.jpg P_M_george_Wbush.jpg"
NA,"P_M_george_Wbush.jpg","P_F_hillary_clinton.jpg",NA,NA,NA,NA,NA,0.2705,NA,NA,NA,NA,NA,NA,NA,NA,NA,NA,FALSE,"CLIP_res","P_F_hillary_clinton.jpg P_M_george_Wbush.jpg"
NA,"P_M_george_Wbush.jpg","P_M_Tony_Blair.jpg",NA,NA,NA,NA,NA,0.289,NA,NA,NA,NA,NA,NA,NA,NA,NA,NA,FALSE,"CLIP_res","P_M_george_Wbush.jpg P_M_Tony_Blair.jpg"
NA,"P_M_george_Wbush.jpg","E_M_nicolas_cage.jpg",NA,NA,NA,NA,NA,0.3276,NA,NA,NA,NA,NA,NA,NA,NA,NA,NA,FALSE,"CLIP_res","E_M_nicolas_cage.jpg P_M_george_Wbush.jpg"
NA,"E_M_Martin_Freeman.jpg","E_F_angelina_jolie.jpg",NA,NA,NA,NA,NA,0.3477,NA,NA,NA,NA,NA,NA,NA,NA,NA,NA,FALSE,"CLIP_res","E_F_angelina_jolie.jpg E_M_Martin_Freeman.jpg"
NA,"E_M_Martin_Freeman.jpg","E_M_anthony_hopkins.jpg",NA,NA,NA,NA,NA,0.3613,NA,NA,NA,NA,NA,NA,NA,NA,NA,NA,FALSE,"CLIP_res","E_M_anthony_hopkins.jpg E_M_Martin_Freeman.jpg"
NA,"E_M_Martin_Freeman.jpg","P_F_nicola_sturgeon.jpg",NA,NA,NA,NA,NA,0.459,NA,NA,NA,NA,NA,NA,NA,NA,NA,NA,FALSE,"CLIP_res","E_M_Martin_Freeman.jpg P_F_nicola_sturgeon.jpg"
NA,"E_M_Martin_Freeman.jpg","E_M_michael_caine.jpg",NA,NA,NA,NA,NA,0.4766,NA,NA,NA,NA,NA,NA,NA,NA,NA,NA,FALSE,"CLIP_res","E_M_Martin_Freeman.jpg E_M_michael_caine.jpg"
NA,"E_M_Martin_Freeman.jpg","E_M_robert_de_niro.jpg",NA,NA,NA,NA,NA,0.455,NA,NA,NA,NA,NA,NA,NA,NA,NA,NA,FALSE,"CLIP_res","E_M_Martin_Freeman.jpg E_M_robert_de_niro.jpg"
NA,"E_M_Martin_Freeman.jpg","E_F_Kate_Winslet.jpg",NA,NA,NA,NA,NA,0.377,NA,NA,NA,NA,NA,NA,NA,NA,NA,NA,FALSE,"CLIP_res","E_F_Kate_Winslet.jpg E_M_Martin_Freeman.jpg"
NA,"E_M_Martin_Freeman.jpg","E_M_Hugh_Grant.jpg",NA,NA,NA,NA,NA,0.3887,NA,NA,NA,NA,NA,NA,NA,NA,NA,NA,FALSE,"CLIP_res","E_M_Hugh_Grant.jpg E_M_Martin_Freeman.jpg"
NA,"E_M_Martin_Freeman.jpg","P_M_donald_trump.jpg",NA,NA,NA,NA,NA,0.435,NA,NA,NA,NA,NA,NA,NA,NA,NA,NA,FALSE,"CLIP_res","E_M_Martin_Freeman.jpg P_M_donald_trump.jpg"
NA,"E_M_Martin_Freeman.jpg","E_M_liam_neeson.jpg",NA,NA,NA,NA,NA,0.4004,NA,NA,NA,NA,NA,NA,NA,NA,NA,NA,FALSE,"CLIP_res","E_M_liam_neeson.jpg E_M_Martin_Freeman.jpg"
NA,"E_M_Martin_Freeman.jpg","P_M_boris_johnson.jpg",NA,NA,NA,NA,NA,0.3877,NA,NA,NA,NA,NA,NA,NA,NA,NA,NA,FALSE,"CLIP_res","E_M_Martin_Freeman.jpg P_M_boris_johnson.jpg"
NA,"E_M_Martin_Freeman.jpg","E_M_tom_hankes.jpg",NA,NA,NA,NA,NA,0.3047,NA,NA,NA,NA,NA,NA,NA,NA,NA,NA,FALSE,"CLIP_res","E_M_Martin_Freeman.jpg E_M_tom_hankes.jpg"
NA,"E_M_Martin_Freeman.jpg","P_F_tehresy_may.jpg",NA,NA,NA,NA,NA,0.488,NA,NA,NA,NA,NA,NA,NA,NA,NA,NA,FALSE,"CLIP_res","E_M_Martin_Freeman.jpg P_F_tehresy_may.jpg"
NA,"E_M_Martin_Freeman.jpg","P_F_hillary_clinton.jpg",NA,NA,NA,NA,NA,0.443,NA,NA,NA,NA,NA,NA,NA,NA,NA,NA,FALSE,"CLIP_res","E_M_Martin_Freeman.jpg P_F_hillary_clinton.jpg"
NA,"E_M_Martin_Freeman.jpg","P_M_Tony_Blair.jpg",NA,NA,NA,NA,NA,0.44,NA,NA,NA,NA,NA,NA,NA,NA,NA,NA,FALSE,"CLIP_res","E_M_Martin_Freeman.jpg P_M_Tony_Blair.jpg"
NA,"E_M_Martin_Freeman.jpg","E_M_nicolas_cage.jpg",NA,NA,NA,NA,NA,0.3613,NA,NA,NA,NA,NA,NA,NA,NA,NA,NA,FALSE,"CLIP_res","E_M_Martin_Freeman.jpg E_M_nicolas_cage.jpg"
NA,"E_F_angelina_jolie.jpg","E_M_anthony_hopkins.jpg",NA,NA,NA,NA,NA,0.4126,NA,NA,NA,NA,NA,NA,NA,NA,NA,NA,FALSE,"CLIP_res","E_F_angelina_jolie.jpg E_M_anthony_hopkins.jpg"
NA,"E_F_angelina_jolie.jpg","P_F_nicola_sturgeon.jpg",NA,NA,NA,NA,NA,0.392,NA,NA,NA,NA,NA,NA,NA,NA,NA,NA,FALSE,"CLIP_res","E_F_angelina_jolie.jpg P_F_nicola_sturgeon.jpg"
NA,"E_F_angelina_jolie.jpg","E_M_michael_caine.jpg",NA,NA,NA,NA,NA,0.495,NA,NA,NA,NA,NA,NA,NA,NA,NA,NA,FALSE,"CLIP_res","E_F_angelina_jolie.jpg E_M_michael_caine.jpg"
NA,"E_F_angelina_jolie.jpg","E_M_robert_de_niro.jpg",NA,NA,NA,NA,NA,0.418,NA,NA,NA,NA,NA,NA,NA,NA,NA,NA,FALSE,"CLIP_res","E_F_angelina_jolie.jpg E_M_robert_de_niro.jpg"
NA,"E_F_angelina_jolie.jpg","E_F_Kate_Winslet.jpg",NA,NA,NA,NA,NA,0.221,NA,NA,NA,NA,NA,NA,NA,NA,NA,NA,FALSE,"CLIP_res","E_F_angelina_jolie.jpg E_F_Kate_Winslet.jpg"
NA,"E_F_angelina_jolie.jpg","E_M_Hugh_Grant.jpg",NA,NA,NA,NA,NA,0.433,NA,NA,NA,NA,NA,NA,NA,NA,NA,NA,FALSE,"CLIP_res","E_F_angelina_jolie.jpg E_M_Hugh_Grant.jpg"
NA,"E_F_angelina_jolie.jpg","P_M_donald_trump.jpg",NA,NA,NA,NA,NA,0.345,NA,NA,NA,NA,NA,NA,NA,NA,NA,NA,FALSE,"CLIP_res","E_F_angelina_jolie.jpg P_M_donald_trump.jpg"
NA,"E_F_angelina_jolie.jpg","E_M_liam_neeson.jpg",NA,NA,NA,NA,NA,0.3306,NA,NA,NA,NA,NA,NA,NA,NA,NA,NA,FALSE,"CLIP_res","E_F_angelina_jolie.jpg E_M_liam_neeson.jpg"
NA,"E_F_angelina_jolie.jpg","P_M_boris_johnson.jpg",NA,NA,NA,NA,NA,0.3726,NA,NA,NA,NA,NA,NA,NA,NA,NA,NA,FALSE,"CLIP_res","E_F_angelina_jolie.jpg P_M_boris_johnson.jpg"
NA,"E_F_angelina_jolie.jpg","E_M_tom_hankes.jpg",NA,NA,NA,NA,NA,0.2627,NA,NA,NA,NA,NA,NA,NA,NA,NA,NA,FALSE,"CLIP_res","E_F_angelina_jolie.jpg E_M_tom_hankes.jpg"
NA,"E_F_angelina_jolie.jpg","P_F_tehresy_may.jpg",NA,NA,NA,NA,NA,0.385,NA,NA,NA,NA,NA,NA,NA,NA,NA,NA,FALSE,"CLIP_res","E_F_angelina_jolie.jpg P_F_tehresy_may.jpg"
NA,"E_F_angelina_jolie.jpg","P_F_hillary_clinton.jpg",NA,NA,NA,NA,NA,0.3003,NA,NA,NA,NA,NA,NA,NA,NA,NA,NA,FALSE,"CLIP_res","E_F_angelina_jolie.jpg P_F_hillary_clinton.jpg"
NA,"E_F_angelina_jolie.jpg","P_M_Tony_Blair.jpg",NA,NA,NA,NA,NA,0.4165,NA,NA,NA,NA,NA,NA,NA,NA,NA,NA,FALSE,"CLIP_res","E_F_angelina_jolie.jpg P_M_Tony_Blair.jpg"
NA,"E_F_angelina_jolie.jpg","E_M_nicolas_cage.jpg",NA,NA,NA,NA,NA,0.3433,NA,NA,NA,NA,NA,NA,NA,NA,NA,NA,FALSE,"CLIP_res","E_F_angelina_jolie.jpg E_M_nicolas_cage.jpg"
NA,"E_M_anthony_hopkins.jpg","P_F_nicola_sturgeon.jpg",NA,NA,NA,NA,NA,0.4893,NA,NA,NA,NA,NA,NA,NA,NA,NA,NA,FALSE,"CLIP_res","E_M_anthony_hopkins.jpg P_F_nicola_sturgeon.jpg"
NA,"E_M_anthony_hopkins.jpg","E_M_michael_caine.jpg",NA,NA,NA,NA,NA,0.2017,NA,NA,NA,NA,NA,NA,NA,NA,NA,NA,FALSE,"CLIP_res","E_M_anthony_hopkins.jpg E_M_michael_caine.jpg"
NA,"E_M_anthony_hopkins.jpg","E_M_robert_de_niro.jpg",NA,NA,NA,NA,NA,0.423,NA,NA,NA,NA,NA,NA,NA,NA,NA,NA,FALSE,"CLIP_res","E_M_anthony_hopkins.jpg E_M_robert_de_niro.jpg"
NA,"E_M_anthony_hopkins.jpg","E_F_Kate_Winslet.jpg",NA,NA,NA,NA,NA,0.4644,NA,NA,NA,NA,NA,NA,NA,NA,NA,NA,FALSE,"CLIP_res","E_F_Kate_Winslet.jpg E_M_anthony_hopkins.jpg"
NA,"E_M_anthony_hopkins.jpg","E_M_Hugh_Grant.jpg",NA,NA,NA,NA,NA,0.387,NA,NA,NA,NA,NA,NA,NA,NA,NA,NA,FALSE,"CLIP_res","E_M_anthony_hopkins.jpg E_M_Hugh_Grant.jpg"
NA,"E_M_anthony_hopkins.jpg","P_M_donald_trump.jpg",NA,NA,NA,NA,NA,0.4355,NA,NA,NA,NA,NA,NA,NA,NA,NA,NA,FALSE,"CLIP_res","E_M_anthony_hopkins.jpg P_M_donald_trump.jpg"
NA,"E_M_anthony_hopkins.jpg","E_M_liam_neeson.jpg",NA,NA,NA,NA,NA,0.409,NA,NA,NA,NA,NA,NA,NA,NA,NA,NA,FALSE,"CLIP_res","E_M_anthony_hopkins.jpg E_M_liam_neeson.jpg"
NA,"E_M_anthony_hopkins.jpg","P_M_boris_johnson.jpg",NA,NA,NA,NA,NA,0.3975,NA,NA,NA,NA,NA,NA,NA,NA,NA,NA,FALSE,"CLIP_res","E_M_anthony_hopkins.jpg P_M_boris_johnson.jpg"
NA,"E_M_anthony_hopkins.jpg","E_M_tom_hankes.jpg",NA,NA,NA,NA,NA,0.3135,NA,NA,NA,NA,NA,NA,NA,NA,NA,NA,FALSE,"CLIP_res","E_M_anthony_hopkins.jpg E_M_tom_hankes.jpg"
NA,"E_M_anthony_hopkins.jpg","P_F_tehresy_may.jpg",NA,NA,NA,NA,NA,0.4663,NA,NA,NA,NA,NA,NA,NA,NA,NA,NA,FALSE,"CLIP_res","E_M_anthony_hopkins.jpg P_F_tehresy_may.jpg"
NA,"E_M_anthony_hopkins.jpg","P_F_hillary_clinton.jpg",NA,NA,NA,NA,NA,0.4746,NA,NA,NA,NA,NA,NA,NA,NA,NA,NA,FALSE,"CLIP_res","E_M_anthony_hopkins.jpg P_F_hillary_clinton.jpg"
NA,"E_M_anthony_hopkins.jpg","P_M_Tony_Blair.jpg",NA,NA,NA,NA,NA,0.4067,NA,NA,NA,NA,NA,NA,NA,NA,NA,NA,FALSE,"CLIP_res","E_M_anthony_hopkins.jpg P_M_Tony_Blair.jpg"
NA,"E_M_anthony_hopkins.jpg","E_M_nicolas_cage.jpg",NA,NA,NA,NA,NA,0.423,NA,NA,NA,NA,NA,NA,NA,NA,NA,NA,FALSE,"CLIP_res","E_M_anthony_hopkins.jpg E_M_nicolas_cage.jpg"
NA,"P_F_nicola_sturgeon.jpg","E_M_michael_caine.jpg",NA,NA,NA,NA,NA,0.5757,NA,NA,NA,NA,NA,NA,NA,NA,NA,NA,FALSE,"CLIP_res","E_M_michael_caine.jpg P_F_nicola_sturgeon.jpg"
NA,"P_F_nicola_sturgeon.jpg","E_M_robert_de_niro.jpg",NA,NA,NA,NA,NA,0.563,NA,NA,NA,NA,NA,NA,NA,NA,NA,NA,FALSE,"CLIP_res","E_M_robert_de_niro.jpg P_F_nicola_sturgeon.jpg"
NA,"P_F_nicola_sturgeon.jpg","E_F_Kate_Winslet.jpg",NA,NA,NA,NA,NA,0.521,NA,NA,NA,NA,NA,NA,NA,NA,NA,NA,FALSE,"CLIP_res","E_F_Kate_Winslet.jpg P_F_nicola_sturgeon.jpg"
NA,"P_F_nicola_sturgeon.jpg","E_M_Hugh_Grant.jpg",NA,NA,NA,NA,NA,0.553,NA,NA,NA,NA,NA,NA,NA,NA,NA,NA,FALSE,"CLIP_res","E_M_Hugh_Grant.jpg P_F_nicola_sturgeon.jpg"
NA,"P_F_nicola_sturgeon.jpg","P_M_donald_trump.jpg",NA,NA,NA,NA,NA,0.3613,NA,NA,NA,NA,NA,NA,NA,NA,NA,NA,FALSE,"CLIP_res","P_F_nicola_sturgeon.jpg P_M_donald_trump.jpg"
NA,"P_F_nicola_sturgeon.jpg","E_M_liam_neeson.jpg",NA,NA,NA,NA,NA,0.4736,NA,NA,NA,NA,NA,NA,NA,NA,NA,NA,FALSE,"CLIP_res","E_M_liam_neeson.jpg P_F_nicola_sturgeon.jpg"
NA,"P_F_nicola_sturgeon.jpg","P_M_boris_johnson.jpg",NA,NA,NA,NA,NA,0.288,NA,NA,NA,NA,NA,NA,NA,NA,NA,NA,FALSE,"CLIP_res","P_F_nicola_sturgeon.jpg P_M_boris_johnson.jpg"
NA,"P_F_nicola_sturgeon.jpg","E_M_tom_hankes.jpg",NA,NA,NA,NA,NA,0.4717,NA,NA,NA,NA,NA,NA,NA,NA,NA,NA,FALSE,"CLIP_res","E_M_tom_hankes.jpg P_F_nicola_sturgeon.jpg"
NA,"P_F_nicola_sturgeon.jpg","P_F_tehresy_may.jpg",NA,NA,NA,NA,NA,0.235,NA,NA,NA,NA,NA,NA,NA,NA,NA,NA,FALSE,"CLIP_res","P_F_nicola_sturgeon.jpg P_F_tehresy_may.jpg"
NA,"P_F_nicola_sturgeon.jpg","P_F_hillary_clinton.jpg",NA,NA,NA,NA,NA,0.2905,NA,NA,NA,NA,NA,NA,NA,NA,NA,NA,FALSE,"CLIP_res","P_F_hillary_clinton.jpg P_F_nicola_sturgeon.jpg"
NA,"P_F_nicola_sturgeon.jpg","P_M_Tony_Blair.jpg",NA,NA,NA,NA,NA,0.311,NA,NA,NA,NA,NA,NA,NA,NA,NA,NA,FALSE,"CLIP_res","P_F_nicola_sturgeon.jpg P_M_Tony_Blair.jpg"
NA,"P_F_nicola_sturgeon.jpg","E_M_nicolas_cage.jpg",NA,NA,NA,NA,NA,0.4795,NA,NA,NA,NA,NA,NA,NA,NA,NA,NA,FALSE,"CLIP_res","E_M_nicolas_cage.jpg P_F_nicola_sturgeon.jpg"
NA,"E_M_michael_caine.jpg","E_M_robert_de_niro.jpg",NA,NA,NA,NA,NA,0.4155,NA,NA,NA,NA,NA,NA,NA,NA,NA,NA,FALSE,"CLIP_res","E_M_michael_caine.jpg E_M_robert_de_niro.jpg"
NA,"E_M_michael_caine.jpg","E_F_Kate_Winslet.jpg",NA,NA,NA,NA,NA,0.528,NA,NA,NA,NA,NA,NA,NA,NA,NA,NA,FALSE,"CLIP_res","E_F_Kate_Winslet.jpg E_M_michael_caine.jpg"
NA,"E_M_michael_caine.jpg","E_M_Hugh_Grant.jpg",NA,NA,NA,NA,NA,0.4224,NA,NA,NA,NA,NA,NA,NA,NA,NA,NA,FALSE,"CLIP_res","E_M_Hugh_Grant.jpg E_M_michael_caine.jpg"
NA,"E_M_michael_caine.jpg","P_M_donald_trump.jpg",NA,NA,NA,NA,NA,0.453,NA,NA,NA,NA,NA,NA,NA,NA,NA,NA,FALSE,"CLIP_res","E_M_michael_caine.jpg P_M_donald_trump.jpg"
NA,"E_M_michael_caine.jpg","E_M_liam_neeson.jpg",NA,NA,NA,NA,NA,0.525,NA,NA,NA,NA,NA,NA,NA,NA,NA,NA,FALSE,"CLIP_res","E_M_liam_neeson.jpg E_M_michael_caine.jpg"
NA,"E_M_michael_caine.jpg","P_M_boris_johnson.jpg",NA,NA,NA,NA,NA,0.488,NA,NA,NA,NA,NA,NA,NA,NA,NA,NA,FALSE,"CLIP_res","E_M_michael_caine.jpg P_M_boris_johnson.jpg"
NA,"E_M_michael_caine.jpg","E_M_tom_hankes.jpg",NA,NA,NA,NA,NA,0.361,NA,NA,NA,NA,NA,NA,NA,NA,NA,NA,FALSE,"CLIP_res","E_M_michael_caine.jpg E_M_tom_hankes.jpg"
NA,"E_M_michael_caine.jpg","P_F_tehresy_may.jpg",NA,NA,NA,NA,NA,0.5405,NA,NA,NA,NA,NA,NA,NA,NA,NA,NA,FALSE,"CLIP_res","E_M_michael_caine.jpg P_F_tehresy_may.jpg"
NA,"E_M_michael_caine.jpg","P_F_hillary_clinton.jpg",NA,NA,NA,NA,NA,0.4766,NA,NA,NA,NA,NA,NA,NA,NA,NA,NA,FALSE,"CLIP_res","E_M_michael_caine.jpg P_F_hillary_clinton.jpg"
NA,"E_M_michael_caine.jpg","P_M_Tony_Blair.jpg",NA,NA,NA,NA,NA,0.4404,NA,NA,NA,NA,NA,NA,NA,NA,NA,NA,FALSE,"CLIP_res","E_M_michael_caine.jpg P_M_Tony_Blair.jpg"
NA,"E_M_michael_caine.jpg","E_M_nicolas_cage.jpg",NA,NA,NA,NA,NA,0.446,NA,NA,NA,NA,NA,NA,NA,NA,NA,NA,FALSE,"CLIP_res","E_M_michael_caine.jpg E_M_nicolas_cage.jpg"
NA,"E_M_robert_de_niro.jpg","E_F_Kate_Winslet.jpg",NA,NA,NA,NA,NA,0.4487,NA,NA,NA,NA,NA,NA,NA,NA,NA,NA,FALSE,"CLIP_res","E_F_Kate_Winslet.jpg E_M_robert_de_niro.jpg"
NA,"E_M_robert_de_niro.jpg","E_M_Hugh_Grant.jpg",NA,NA,NA,NA,NA,0.4688,NA,NA,NA,NA,NA,NA,NA,NA,NA,NA,FALSE,"CLIP_res","E_M_Hugh_Grant.jpg E_M_robert_de_niro.jpg"
NA,"E_M_robert_de_niro.jpg","P_M_donald_trump.jpg",NA,NA,NA,NA,NA,0.49,NA,NA,NA,NA,NA,NA,NA,NA,NA,NA,FALSE,"CLIP_res","E_M_robert_de_niro.jpg P_M_donald_trump.jpg"
NA,"E_M_robert_de_niro.jpg","E_M_liam_neeson.jpg",NA,NA,NA,NA,NA,0.444,NA,NA,NA,NA,NA,NA,NA,NA,NA,NA,FALSE,"CLIP_res","E_M_liam_neeson.jpg E_M_robert_de_niro.jpg"
NA,"E_M_robert_de_niro.jpg","P_M_boris_johnson.jpg",NA,NA,NA,NA,NA,0.5078,NA,NA,NA,NA,NA,NA,NA,NA,NA,NA,FALSE,"CLIP_res","E_M_robert_de_niro.jpg P_M_boris_johnson.jpg"
NA,"E_M_robert_de_niro.jpg","E_M_tom_hankes.jpg",NA,NA,NA,NA,NA,0.2744,NA,NA,NA,NA,NA,NA,NA,NA,NA,NA,FALSE,"CLIP_res","E_M_robert_de_niro.jpg E_M_tom_hankes.jpg"
NA,"E_M_robert_de_niro.jpg","P_F_tehresy_may.jpg",NA,NA,NA,NA,NA,0.5598,NA,NA,NA,NA,NA,NA,NA,NA,NA,NA,FALSE,"CLIP_res","E_M_robert_de_niro.jpg P_F_tehresy_may.jpg"
NA,"E_M_robert_de_niro.jpg","P_F_hillary_clinton.jpg",NA,NA,NA,NA,NA,0.492,NA,NA,NA,NA,NA,NA,NA,NA,NA,NA,FALSE,"CLIP_res","E_M_robert_de_niro.jpg P_F_hillary_clinton.jpg"
NA,"E_M_robert_de_niro.jpg","P_M_Tony_Blair.jpg",NA,NA,NA,NA,NA,0.459,NA,NA,NA,NA,NA,NA,NA,NA,NA,NA,FALSE,"CLIP_res","E_M_robert_de_niro.jpg P_M_Tony_Blair.jpg"
NA,"E_M_robert_de_niro.jpg","E_M_nicolas_cage.jpg",NA,NA,NA,NA,NA,0.38,NA,NA,NA,NA,NA,NA,NA,NA,NA,NA,FALSE,"CLIP_res","E_M_nicolas_cage.jpg E_M_robert_de_niro.jpg"
NA,"E_F_Kate_Winslet.jpg","E_M_Hugh_Grant.jpg",NA,NA,NA,NA,NA,0.4487,NA,NA,NA,NA,NA,NA,NA,NA,NA,NA,FALSE,"CLIP_res","E_F_Kate_Winslet.jpg E_M_Hugh_Grant.jpg"
NA,"E_F_Kate_Winslet.jpg","P_M_donald_trump.jpg",NA,NA,NA,NA,NA,0.476,NA,NA,NA,NA,NA,NA,NA,NA,NA,NA,FALSE,"CLIP_res","E_F_Kate_Winslet.jpg P_M_donald_trump.jpg"
NA,"E_F_Kate_Winslet.jpg","E_M_liam_neeson.jpg",NA,NA,NA,NA,NA,0.4326,NA,NA,NA,NA,NA,NA,NA,NA,NA,NA,FALSE,"CLIP_res","E_F_Kate_Winslet.jpg E_M_liam_neeson.jpg"
NA,"E_F_Kate_Winslet.jpg","P_M_boris_johnson.jpg",NA,NA,NA,NA,NA,0.5127,NA,NA,NA,NA,NA,NA,NA,NA,NA,NA,FALSE,"CLIP_res","E_F_Kate_Winslet.jpg P_M_boris_johnson.jpg"
NA,"E_F_Kate_Winslet.jpg","E_M_tom_hankes.jpg",NA,NA,NA,NA,NA,0.3184,NA,NA,NA,NA,NA,NA,NA,NA,NA,NA,FALSE,"CLIP_res","E_F_Kate_Winslet.jpg E_M_tom_hankes.jpg"
NA,"E_F_Kate_Winslet.jpg","P_F_tehresy_may.jpg",NA,NA,NA,NA,NA,0.5183,NA,NA,NA,NA,NA,NA,NA,NA,NA,NA,FALSE,"CLIP_res","E_F_Kate_Winslet.jpg P_F_tehresy_may.jpg"
NA,"E_F_Kate_Winslet.jpg","P_F_hillary_clinton.jpg",NA,NA,NA,NA,NA,0.394,NA,NA,NA,NA,NA,NA,NA,NA,NA,NA,FALSE,"CLIP_res","E_F_Kate_Winslet.jpg P_F_hillary_clinton.jpg"
NA,"E_F_Kate_Winslet.jpg","P_M_Tony_Blair.jpg",NA,NA,NA,NA,NA,0.5317,NA,NA,NA,NA,NA,NA,NA,NA,NA,NA,FALSE,"CLIP_res","E_F_Kate_Winslet.jpg P_M_Tony_Blair.jpg"
NA,"E_F_Kate_Winslet.jpg","E_M_nicolas_cage.jpg",NA,NA,NA,NA,NA,0.4272,NA,NA,NA,NA,NA,NA,NA,NA,NA,NA,FALSE,"CLIP_res","E_F_Kate_Winslet.jpg E_M_nicolas_cage.jpg"
NA,"E_M_Hugh_Grant.jpg","P_M_donald_trump.jpg",NA,NA,NA,NA,NA,0.5215,NA,NA,NA,NA,NA,NA,NA,NA,NA,NA,FALSE,"CLIP_res","E_M_Hugh_Grant.jpg P_M_donald_trump.jpg"
NA,"E_M_Hugh_Grant.jpg","E_M_liam_neeson.jpg",NA,NA,NA,NA,NA,0.38,NA,NA,NA,NA,NA,NA,NA,NA,NA,NA,FALSE,"CLIP_res","E_M_Hugh_Grant.jpg E_M_liam_neeson.jpg"
NA,"E_M_Hugh_Grant.jpg","P_M_boris_johnson.jpg",NA,NA,NA,NA,NA,0.4443,NA,NA,NA,NA,NA,NA,NA,NA,NA,NA,FALSE,"CLIP_res","E_M_Hugh_Grant.jpg P_M_boris_johnson.jpg"
NA,"E_M_Hugh_Grant.jpg","E_M_tom_hankes.jpg",NA,NA,NA,NA,NA,0.4087,NA,NA,NA,NA,NA,NA,NA,NA,NA,NA,FALSE,"CLIP_res","E_M_Hugh_Grant.jpg E_M_tom_hankes.jpg"
NA,"E_M_Hugh_Grant.jpg","P_F_tehresy_may.jpg",NA,NA,NA,NA,NA,0.603,NA,NA,NA,NA,NA,NA,NA,NA,NA,NA,FALSE,"CLIP_res","E_M_Hugh_Grant.jpg P_F_tehresy_may.jpg"
NA,"E_M_Hugh_Grant.jpg","P_F_hillary_clinton.jpg",NA,NA,NA,NA,NA,0.514,NA,NA,NA,NA,NA,NA,NA,NA,NA,NA,FALSE,"CLIP_res","E_M_Hugh_Grant.jpg P_F_hillary_clinton.jpg"
NA,"E_M_Hugh_Grant.jpg","P_M_Tony_Blair.jpg",NA,NA,NA,NA,NA,0.5305,NA,NA,NA,NA,NA,NA,NA,NA,NA,NA,FALSE,"CLIP_res","E_M_Hugh_Grant.jpg P_M_Tony_Blair.jpg"
NA,"E_M_Hugh_Grant.jpg","E_M_nicolas_cage.jpg",NA,NA,NA,NA,NA,0.3955,NA,NA,NA,NA,NA,NA,NA,NA,NA,NA,FALSE,"CLIP_res","E_M_Hugh_Grant.jpg E_M_nicolas_cage.jpg"
NA,"P_M_donald_trump.jpg","E_M_liam_neeson.jpg",NA,NA,NA,NA,NA,0.3867,NA,NA,NA,NA,NA,NA,NA,NA,NA,NA,FALSE,"CLIP_res","E_M_liam_neeson.jpg P_M_donald_trump.jpg"
NA,"P_M_donald_trump.jpg","P_M_boris_johnson.jpg",NA,NA,NA,NA,NA,0.253,NA,NA,NA,NA,NA,NA,NA,NA,NA,NA,FALSE,"CLIP_res","P_M_boris_johnson.jpg P_M_donald_trump.jpg"
NA,"P_M_donald_trump.jpg","E_M_tom_hankes.jpg",NA,NA,NA,NA,NA,0.349,NA,NA,NA,NA,NA,NA,NA,NA,NA,NA,FALSE,"CLIP_res","E_M_tom_hankes.jpg P_M_donald_trump.jpg"
NA,"P_M_donald_trump.jpg","P_F_tehresy_may.jpg",NA,NA,NA,NA,NA,0.2817,NA,NA,NA,NA,NA,NA,NA,NA,NA,NA,FALSE,"CLIP_res","P_F_tehresy_may.jpg P_M_donald_trump.jpg"
NA,"P_M_donald_trump.jpg","P_F_hillary_clinton.jpg",NA,NA,NA,NA,NA,0.21,NA,NA,NA,NA,NA,NA,NA,NA,NA,NA,FALSE,"CLIP_res","P_F_hillary_clinton.jpg P_M_donald_trump.jpg"
NA,"P_M_donald_trump.jpg","P_M_Tony_Blair.jpg",NA,NA,NA,NA,NA,0.352,NA,NA,NA,NA,NA,NA,NA,NA,NA,NA,FALSE,"CLIP_res","P_M_donald_trump.jpg P_M_Tony_Blair.jpg"
NA,"P_M_donald_trump.jpg","E_M_nicolas_cage.jpg",NA,NA,NA,NA,NA,0.3687,NA,NA,NA,NA,NA,NA,NA,NA,NA,NA,FALSE,"CLIP_res","E_M_nicolas_cage.jpg P_M_donald_trump.jpg"
NA,"E_M_liam_neeson.jpg","P_M_boris_johnson.jpg",NA,NA,NA,NA,NA,0.383,NA,NA,NA,NA,NA,NA,NA,NA,NA,NA,FALSE,"CLIP_res","E_M_liam_neeson.jpg P_M_boris_johnson.jpg"
NA,"E_M_liam_neeson.jpg","E_M_tom_hankes.jpg",NA,NA,NA,NA,NA,0.334,NA,NA,NA,NA,NA,NA,NA,NA,NA,NA,FALSE,"CLIP_res","E_M_liam_neeson.jpg E_M_tom_hankes.jpg"
NA,"E_M_liam_neeson.jpg","P_F_tehresy_may.jpg",NA,NA,NA,NA,NA,0.514,NA,NA,NA,NA,NA,NA,NA,NA,NA,NA,FALSE,"CLIP_res","E_M_liam_neeson.jpg P_F_tehresy_may.jpg"
NA,"E_M_liam_neeson.jpg","P_F_hillary_clinton.jpg",NA,NA,NA,NA,NA,0.4,NA,NA,NA,NA,NA,NA,NA,NA,NA,NA,FALSE,"CLIP_res","E_M_liam_neeson.jpg P_F_hillary_clinton.jpg"
NA,"E_M_liam_neeson.jpg","P_M_Tony_Blair.jpg",NA,NA,NA,NA,NA,0.4917,NA,NA,NA,NA,NA,NA,NA,NA,NA,NA,FALSE,"CLIP_res","E_M_liam_neeson.jpg P_M_Tony_Blair.jpg"
NA,"E_M_liam_neeson.jpg","E_M_nicolas_cage.jpg",NA,NA,NA,NA,NA,0.3193,NA,NA,NA,NA,NA,NA,NA,NA,NA,NA,FALSE,"CLIP_res","E_M_liam_neeson.jpg E_M_nicolas_cage.jpg"
NA,"P_M_boris_johnson.jpg","E_M_tom_hankes.jpg",NA,NA,NA,NA,NA,0.391,NA,NA,NA,NA,NA,NA,NA,NA,NA,NA,FALSE,"CLIP_res","E_M_tom_hankes.jpg P_M_boris_johnson.jpg"
NA,"P_M_boris_johnson.jpg","P_F_tehresy_may.jpg",NA,NA,NA,NA,NA,0.2476,NA,NA,NA,NA,NA,NA,NA,NA,NA,NA,FALSE,"CLIP_res","P_F_tehresy_may.jpg P_M_boris_johnson.jpg"
NA,"P_M_boris_johnson.jpg","P_F_hillary_clinton.jpg",NA,NA,NA,NA,NA,0.334,NA,NA,NA,NA,NA,NA,NA,NA,NA,NA,FALSE,"CLIP_res","P_F_hillary_clinton.jpg P_M_boris_johnson.jpg"
NA,"P_M_boris_johnson.jpg","P_M_Tony_Blair.jpg",NA,NA,NA,NA,NA,0.259,NA,NA,NA,NA,NA,NA,NA,NA,NA,NA,FALSE,"CLIP_res","P_M_boris_johnson.jpg P_M_Tony_Blair.jpg"
NA,"P_M_boris_johnson.jpg","E_M_nicolas_cage.jpg",NA,NA,NA,NA,NA,0.417,NA,NA,NA,NA,NA,NA,NA,NA,NA,NA,FALSE,"CLIP_res","E_M_nicolas_cage.jpg P_M_boris_johnson.jpg"
NA,"E_M_tom_hankes.jpg","P_F_tehresy_may.jpg",NA,NA,NA,NA,NA,0.4453,NA,NA,NA,NA,NA,NA,NA,NA,NA,NA,FALSE,"CLIP_res","E_M_tom_hankes.jpg P_F_tehresy_may.jpg"
NA,"E_M_tom_hankes.jpg","P_F_hillary_clinton.jpg",NA,NA,NA,NA,NA,0.369,NA,NA,NA,NA,NA,NA,NA,NA,NA,NA,FALSE,"CLIP_res","E_M_tom_hankes.jpg P_F_hillary_clinton.jpg"
NA,"E_M_tom_hankes.jpg","P_M_Tony_Blair.jpg",NA,NA,NA,NA,NA,0.3896,NA,NA,NA,NA,NA,NA,NA,NA,NA,NA,FALSE,"CLIP_res","E_M_tom_hankes.jpg P_M_Tony_Blair.jpg"
NA,"E_M_tom_hankes.jpg","E_M_nicolas_cage.jpg",NA,NA,NA,NA,NA,0.241,NA,NA,NA,NA,NA,NA,NA,NA,NA,NA,FALSE,"CLIP_res","E_M_nicolas_cage.jpg E_M_tom_hankes.jpg"
NA,"P_F_tehresy_may.jpg","P_F_hillary_clinton.jpg",NA,NA,NA,NA,NA,0.3267,NA,NA,NA,NA,NA,NA,NA,NA,NA,NA,FALSE,"CLIP_res","P_F_hillary_clinton.jpg P_F_tehresy_may.jpg"
NA,"P_F_tehresy_may.jpg","P_M_Tony_Blair.jpg",NA,NA,NA,NA,NA,0.285,NA,NA,NA,NA,NA,NA,NA,NA,NA,NA,FALSE,"CLIP_res","P_F_tehresy_may.jpg P_M_Tony_Blair.jpg"
NA,"P_F_tehresy_may.jpg","E_M_nicolas_cage.jpg",NA,NA,NA,NA,NA,0.5386,NA,NA,NA,NA,NA,NA,NA,NA,NA,NA,FALSE,"CLIP_res","E_M_nicolas_cage.jpg P_F_tehresy_may.jpg"
NA,"P_F_hillary_clinton.jpg","P_M_Tony_Blair.jpg",NA,NA,NA,NA,NA,0.3716,NA,NA,NA,NA,NA,NA,NA,NA,NA,NA,FALSE,"CLIP_res","P_F_hillary_clinton.jpg P_M_Tony_Blair.jpg"
NA,"P_F_hillary_clinton.jpg","E_M_nicolas_cage.jpg",NA,NA,NA,NA,NA,0.3843,NA,NA,NA,NA,NA,NA,NA,NA,NA,NA,FALSE,"CLIP_res","E_M_nicolas_cage.jpg P_F_hillary_clinton.jpg"
NA,"P_M_Tony_Blair.jpg","E_M_nicolas_cage.jpg",NA,NA,NA,NA,NA,0.4624,NA,NA,NA,NA,NA,NA,NA,NA,NA,NA,FALSE,"CLIP_res","E_M_nicolas_cage.jpg P_M_Tony_Blair.jpg"
