"RT","img_1","img_2","isSameProffesion","img1proffesion","img2proffesion","img1Gender","img2Gender","keyPressed","participant","time","normlised_keyPress","age","gender","handedness","isFamiliar_img1","isFamiliar_img2","vividness_img1","vividness_img2","reject_trial","condition","pair"
NA,"P_M_bill_clinton.jpg","E_F_keira_knightley.jpg",NA,NA,NA,NA,NA,"0.5662",NA,NA,NA,NA,NA,NA,NA,NA,NA,NA,FALSE,"CLIP_res","E_F_keira_knightley.jpg P_M_bill_clinton.jpg"
NA,"P_M_bill_clinton.jpg","P_F_esther_mcvey.jpg",NA,NA,NA,NA,NA,"0.552",NA,NA,NA,NA,NA,NA,NA,NA,NA,NA,FALSE,"CLIP_res","P_F_esther_mcvey.jpg P_M_bill_clinton.jpg"
NA,"P_M_bill_clinton.jpg","E_F_Judi_Dench.jpg",NA,NA,NA,NA,NA,"0.5178",NA,NA,NA,NA,NA,NA,NA,NA,NA,NA,FALSE,"CLIP_res","E_F_Judi_Dench.jpg P_M_bill_clinton.jpg"
NA,"P_M_bill_clinton.jpg","E_F_jennifer_aniston.jpg",NA,NA,NA,NA,NA,"0.4575",NA,NA,NA,NA,NA,NA,NA,NA,NA,NA,FALSE,"CLIP_res","E_F_jennifer_aniston.jpg P_M_bill_clinton.jpg"
NA,"P_M_bill_clinton.jpg","P_F_angela_rayner.jpg",NA,NA,NA,NA,NA,"0.5537",NA,NA,NA,NA,NA,NA,NA,NA,NA,NA,FALSE,"CLIP_res","P_F_angela_rayner.jpg P_M_bill_clinton.jpg"
NA,"P_M_bill_clinton.jpg","E_F_sandra_bullock.jpg",NA,NA,NA,NA,NA,"0.5032",NA,NA,NA,NA,NA,NA,NA,NA,NA,NA,FALSE,"CLIP_res","E_F_sandra_bullock.jpg P_M_bill_clinton.jpg"
NA,"P_M_bill_clinton.jpg","P_F_PRITI_PATEL.jpg",NA,NA,NA,NA,NA,"0.532",NA,NA,NA,NA,NA,NA,NA,NA,NA,NA,FALSE,"CLIP_res","P_F_PRITI_PATEL.jpg P_M_bill_clinton.jpg"
NA,"P_M_bill_clinton.jpg","P_M_david_cameron.jpg",NA,NA,NA,NA,NA,"0.327",NA,NA,NA,NA,NA,NA,NA,NA,NA,NA,FALSE,"CLIP_res","P_M_bill_clinton.jpg P_M_david_cameron.jpg"
NA,"P_M_bill_clinton.jpg","P_M_george_Wbush.jpg",NA,NA,NA,NA,NA,"0.173",NA,NA,NA,NA,NA,NA,NA,NA,NA,NA,FALSE,"CLIP_res","P_M_bill_clinton.jpg P_M_george_Wbush.jpg"
NA,"P_M_bill_clinton.jpg","E_M_Martin_Freeman.jpg",NA,NA,NA,NA,NA,"0.4297",NA,NA,NA,NA,NA,NA,NA,NA,NA,NA,FALSE,"CLIP_res","E_M_Martin_Freeman.jpg P_M_bill_clinton.jpg"
NA,"P_M_bill_clinton.jpg","E_F_angelina_jolie.jpg",NA,NA,NA,NA,NA,"0.3667",NA,NA,NA,NA,NA,NA,NA,NA,NA,NA,FALSE,"CLIP_res","E_F_angelina_jolie.jpg P_M_bill_clinton.jpg"
NA,"P_M_bill_clinton.jpg","E_M_anthony_hopkins.jpg",NA,NA,NA,NA,NA,"0.447",NA,NA,NA,NA,NA,NA,NA,NA,NA,NA,FALSE,"CLIP_res","E_M_anthony_hopkins.jpg P_M_bill_clinton.jpg"
NA,"P_M_bill_clinton.jpg","P_F_nicola_sturgeon.jpg",NA,NA,NA,NA,NA,"0.397",NA,NA,NA,NA,NA,NA,NA,NA,NA,NA,FALSE,"CLIP_res","P_F_nicola_sturgeon.jpg P_M_bill_clinton.jpg"
NA,"P_M_bill_clinton.jpg","E_M_michael_caine.jpg",NA,NA,NA,NA,NA,"0.438",NA,NA,NA,NA,NA,NA,NA,NA,NA,NA,FALSE,"CLIP_res","E_M_michael_caine.jpg P_M_bill_clinton.jpg"
NA,"P_M_bill_clinton.jpg","E_M_robert_de_niro.jpg",NA,NA,NA,NA,NA,"0.4644",NA,NA,NA,NA,NA,NA,NA,NA,NA,NA,FALSE,"CLIP_res","E_M_robert_de_niro.jpg P_M_bill_clinton.jpg"
NA,"P_M_bill_clinton.jpg","E_F_Kate_Winslet.jpg",NA,NA,NA,NA,NA,"0.4746",NA,NA,NA,NA,NA,NA,NA,NA,NA,NA,FALSE,"CLIP_res","E_F_Kate_Winslet.jpg P_M_bill_clinton.jpg"
NA,"P_M_bill_clinton.jpg","E_M_Hugh_Grant.jpg",NA,NA,NA,NA,NA,"0.4927",NA,NA,NA,NA,NA,NA,NA,NA,NA,NA,FALSE,"CLIP_res","E_M_Hugh_Grant.jpg P_M_bill_clinton.jpg"
NA,"P_M_bill_clinton.jpg","P_M_donald_trump.jpg",NA,NA,NA,NA,NA,"0.2495",NA,NA,NA,NA,NA,NA,NA,NA,NA,NA,FALSE,"CLIP_res","P_M_bill_clinton.jpg P_M_donald_trump.jpg"
NA,"P_M_bill_clinton.jpg","E_M_liam_neeson.jpg",NA,NA,NA,NA,NA,"0.406",NA,NA,NA,NA,NA,NA,NA,NA,NA,NA,FALSE,"CLIP_res","E_M_liam_neeson.jpg P_M_bill_clinton.jpg"
NA,"P_M_bill_clinton.jpg","P_M_boris_johnson.jpg",NA,NA,NA,NA,NA,"0.324",NA,NA,NA,NA,NA,NA,NA,NA,NA,NA,FALSE,"CLIP_res","P_M_bill_clinton.jpg P_M_boris_johnson.jpg"
NA,"P_M_bill_clinton.jpg","E_M_tom_hankes.jpg",NA,NA,NA,NA,NA,"0.357",NA,NA,NA,NA,NA,NA,NA,NA,NA,NA,FALSE,"CLIP_res","E_M_tom_hankes.jpg P_M_bill_clinton.jpg"
NA,"P_M_bill_clinton.jpg","P_F_tehresy_may.jpg",NA,NA,NA,NA,NA,"0.4146",NA,NA,NA,NA,NA,NA,NA,NA,NA,NA,FALSE,"CLIP_res","P_F_tehresy_may.jpg P_M_bill_clinton.jpg"
NA,"P_M_bill_clinton.jpg","P_F_hillary_clinton.jpg",NA,NA,NA,NA,NA,"0.206",NA,NA,NA,NA,NA,NA,NA,NA,NA,NA,FALSE,"CLIP_res","P_F_hillary_clinton.jpg P_M_bill_clinton.jpg"
NA,"P_M_bill_clinton.jpg","P_M_Tony_Blair.jpg",NA,NA,NA,NA,NA,"0.3267",NA,NA,NA,NA,NA,NA,NA,NA,NA,NA,FALSE,"CLIP_res","P_M_bill_clinton.jpg P_M_Tony_Blair.jpg"
NA,"P_M_bill_clinton.jpg","E_M_nicolas_cage.jpg",NA,NA,NA,NA,NA,"0.3687",NA,NA,NA,NA,NA,NA,NA,NA,NA,NA,FALSE,"CLIP_res","E_M_nicolas_cage.jpg P_M_bill_clinton.jpg"
NA,"E_F_keira_knightley.jpg","P_F_esther_mcvey.jpg",NA,NA,NA,NA,NA,"0.6099",NA,NA,NA,NA,NA,NA,NA,NA,NA,NA,FALSE,"CLIP_res","E_F_keira_knightley.jpg P_F_esther_mcvey.jpg"
NA,"E_F_keira_knightley.jpg","E_F_Judi_Dench.jpg",NA,NA,NA,NA,NA,"0.4995",NA,NA,NA,NA,NA,NA,NA,NA,NA,NA,FALSE,"CLIP_res","E_F_Judi_Dench.jpg E_F_keira_knightley.jpg"
NA,"E_F_keira_knightley.jpg","E_F_jennifer_aniston.jpg",NA,NA,NA,NA,NA,"0.2827",NA,NA,NA,NA,NA,NA,NA,NA,NA,NA,FALSE,"CLIP_res","E_F_jennifer_aniston.jpg E_F_keira_knightley.jpg"
NA,"E_F_keira_knightley.jpg","P_F_angela_rayner.jpg",NA,NA,NA,NA,NA,"0.5286",NA,NA,NA,NA,NA,NA,NA,NA,NA,NA,FALSE,"CLIP_res","E_F_keira_knightley.jpg P_F_angela_rayner.jpg"
NA,"E_F_keira_knightley.jpg","E_F_sandra_bullock.jpg",NA,NA,NA,NA,NA,"0.276",NA,NA,NA,NA,NA,NA,NA,NA,NA,NA,FALSE,"CLIP_res","E_F_keira_knightley.jpg E_F_sandra_bullock.jpg"
NA,"E_F_keira_knightley.jpg","P_F_PRITI_PATEL.jpg",NA,NA,NA,NA,NA,"0.47",NA,NA,NA,NA,NA,NA,NA,NA,NA,NA,FALSE,"CLIP_res","E_F_keira_knightley.jpg P_F_PRITI_PATEL.jpg"
NA,"E_F_keira_knightley.jpg","P_M_david_cameron.jpg",NA,NA,NA,NA,NA,"0.5452",NA,NA,NA,NA,NA,NA,NA,NA,NA,NA,FALSE,"CLIP_res","E_F_keira_knightley.jpg P_M_david_cameron.jpg"
NA,"E_F_keira_knightley.jpg","P_M_george_Wbush.jpg",NA,NA,NA,NA,NA,"0.566",NA,NA,NA,NA,NA,NA,NA,NA,NA,NA,FALSE,"CLIP_res","E_F_keira_knightley.jpg P_M_george_Wbush.jpg"
NA,"E_F_keira_knightley.jpg","E_M_Martin_Freeman.jpg",NA,NA,NA,NA,NA,"0.4243",NA,NA,NA,NA,NA,NA,NA,NA,NA,NA,FALSE,"CLIP_res","E_F_keira_knightley.jpg E_M_Martin_Freeman.jpg"
NA,"E_F_keira_knightley.jpg","E_F_angelina_jolie.jpg",NA,NA,NA,NA,NA,"0.2573",NA,NA,NA,NA,NA,NA,NA,NA,NA,NA,FALSE,"CLIP_res","E_F_angelina_jolie.jpg E_F_keira_knightley.jpg"
NA,"E_F_keira_knightley.jpg","E_M_anthony_hopkins.jpg",NA,NA,NA,NA,NA,"0.5159",NA,NA,NA,NA,NA,NA,NA,NA,NA,NA,FALSE,"CLIP_res","E_F_keira_knightley.jpg E_M_anthony_hopkins.jpg"
NA,"E_F_keira_knightley.jpg","P_F_nicola_sturgeon.jpg",NA,NA,NA,NA,NA,"0.5618",NA,NA,NA,NA,NA,NA,NA,NA,NA,NA,FALSE,"CLIP_res","E_F_keira_knightley.jpg P_F_nicola_sturgeon.jpg"
NA,"E_F_keira_knightley.jpg","E_M_michael_caine.jpg",NA,NA,NA,NA,NA,"0.5847",NA,NA,NA,NA,NA,NA,NA,NA,NA,NA,FALSE,"CLIP_res","E_F_keira_knightley.jpg E_M_michael_caine.jpg"
NA,"E_F_keira_knightley.jpg","E_M_robert_de_niro.jpg",NA,NA,NA,NA,NA,"0.468",NA,NA,NA,NA,NA,NA,NA,NA,NA,NA,FALSE,"CLIP_res","E_F_keira_knightley.jpg E_M_robert_de_niro.jpg"
NA,"E_F_keira_knightley.jpg","E_F_Kate_Winslet.jpg",NA,NA,NA,NA,NA,"0.1724",NA,NA,NA,NA,NA,NA,NA,NA,NA,NA,FALSE,"CLIP_res","E_F_Kate_Winslet.jpg E_F_keira_knightley.jpg"
NA,"E_F_keira_knightley.jpg","E_M_Hugh_Grant.jpg",NA,NA,NA,NA,NA,"0.5305",NA,NA,NA,NA,NA,NA,NA,NA,NA,NA,FALSE,"CLIP_res","E_F_keira_knightley.jpg E_M_Hugh_Grant.jpg"
NA,"E_F_keira_knightley.jpg","P_M_donald_trump.jpg",NA,NA,NA,NA,NA,"0.5632",NA,NA,NA,NA,NA,NA,NA,NA,NA,NA,FALSE,"CLIP_res","E_F_keira_knightley.jpg P_M_donald_trump.jpg"
NA,"E_F_keira_knightley.jpg","E_M_liam_neeson.jpg",NA,NA,NA,NA,NA,"0.511",NA,NA,NA,NA,NA,NA,NA,NA,NA,NA,FALSE,"CLIP_res","E_F_keira_knightley.jpg E_M_liam_neeson.jpg"
NA,"E_F_keira_knightley.jpg","P_M_boris_johnson.jpg",NA,NA,NA,NA,NA,"0.5913",NA,NA,NA,NA,NA,NA,NA,NA,NA,NA,FALSE,"CLIP_res","E_F_keira_knightley.jpg P_M_boris_johnson.jpg"
NA,"E_F_keira_knightley.jpg","E_M_tom_hankes.jpg",NA,NA,NA,NA,NA,"0.385",NA,NA,NA,NA,NA,NA,NA,NA,NA,NA,FALSE,"CLIP_res","E_F_keira_knightley.jpg E_M_tom_hankes.jpg"
NA,"E_F_keira_knightley.jpg","P_F_tehresy_may.jpg",NA,NA,NA,NA,NA,"0.5461",NA,NA,NA,NA,NA,NA,NA,NA,NA,NA,FALSE,"CLIP_res","E_F_keira_knightley.jpg P_F_tehresy_may.jpg"
NA,"E_F_keira_knightley.jpg","P_F_hillary_clinton.jpg",NA,NA,NA,NA,NA,"0.517",NA,NA,NA,NA,NA,NA,NA,NA,NA,NA,FALSE,"CLIP_res","E_F_keira_knightley.jpg P_F_hillary_clinton.jpg"
NA,"E_F_keira_knightley.jpg","P_M_Tony_Blair.jpg",NA,NA,NA,NA,NA,"0.5757",NA,NA,NA,NA,NA,NA,NA,NA,NA,NA,FALSE,"CLIP_res","E_F_keira_knightley.jpg P_M_Tony_Blair.jpg"
NA,"E_F_keira_knightley.jpg","E_M_nicolas_cage.jpg",NA,NA,NA,NA,NA,"0.492",NA,NA,NA,NA,NA,NA,NA,NA,NA,NA,FALSE,"CLIP_res","E_F_keira_knightley.jpg E_M_nicolas_cage.jpg"
NA,"P_F_esther_mcvey.jpg","E_F_Judi_Dench.jpg",NA,NA,NA,NA,NA,"0.4873",NA,NA,NA,NA,NA,NA,NA,NA,NA,NA,FALSE,"CLIP_res","E_F_Judi_Dench.jpg P_F_esther_mcvey.jpg"
NA,"P_F_esther_mcvey.jpg","E_F_jennifer_aniston.jpg",NA,NA,NA,NA,NA,"0.465",NA,NA,NA,NA,NA,NA,NA,NA,NA,NA,FALSE,"CLIP_res","E_F_jennifer_aniston.jpg P_F_esther_mcvey.jpg"
NA,"P_F_esther_mcvey.jpg","P_F_angela_rayner.jpg",NA,NA,NA,NA,NA,"0.231",NA,NA,NA,NA,NA,NA,NA,NA,NA,NA,FALSE,"CLIP_res","P_F_angela_rayner.jpg P_F_esther_mcvey.jpg"
NA,"P_F_esther_mcvey.jpg","E_F_sandra_bullock.jpg",NA,NA,NA,NA,NA,"0.567",NA,NA,NA,NA,NA,NA,NA,NA,NA,NA,FALSE,"CLIP_res","E_F_sandra_bullock.jpg P_F_esther_mcvey.jpg"
NA,"P_F_esther_mcvey.jpg","P_F_PRITI_PATEL.jpg",NA,NA,NA,NA,NA,"0.3306",NA,NA,NA,NA,NA,NA,NA,NA,NA,NA,FALSE,"CLIP_res","P_F_esther_mcvey.jpg P_F_PRITI_PATEL.jpg"
NA,"P_F_esther_mcvey.jpg","P_M_david_cameron.jpg",NA,NA,NA,NA,NA,"0.3896",NA,NA,NA,NA,NA,NA,NA,NA,NA,NA,FALSE,"CLIP_res","P_F_esther_mcvey.jpg P_M_david_cameron.jpg"
NA,"P_F_esther_mcvey.jpg","P_M_george_Wbush.jpg",NA,NA,NA,NA,NA,"0.5576",NA,NA,NA,NA,NA,NA,NA,NA,NA,NA,FALSE,"CLIP_res","P_F_esther_mcvey.jpg P_M_george_Wbush.jpg"
NA,"P_F_esther_mcvey.jpg","E_M_Martin_Freeman.jpg",NA,NA,NA,NA,NA,"0.5522",NA,NA,NA,NA,NA,NA,NA,NA,NA,NA,FALSE,"CLIP_res","E_M_Martin_Freeman.jpg P_F_esther_mcvey.jpg"
NA,"P_F_esther_mcvey.jpg","E_F_angelina_jolie.jpg",NA,NA,NA,NA,NA,"0.476",NA,NA,NA,NA,NA,NA,NA,NA,NA,NA,FALSE,"CLIP_res","E_F_angelina_jolie.jpg P_F_esther_mcvey.jpg"
NA,"P_F_esther_mcvey.jpg","E_M_anthony_hopkins.jpg",NA,NA,NA,NA,NA,"0.463",NA,NA,NA,NA,NA,NA,NA,NA,NA,NA,FALSE,"CLIP_res","E_M_anthony_hopkins.jpg P_F_esther_mcvey.jpg"
NA,"P_F_esther_mcvey.jpg","P_F_nicola_sturgeon.jpg",NA,NA,NA,NA,NA,"0.4336",NA,NA,NA,NA,NA,NA,NA,NA,NA,NA,FALSE,"CLIP_res","P_F_esther_mcvey.jpg P_F_nicola_sturgeon.jpg"
NA,"P_F_esther_mcvey.jpg","E_M_michael_caine.jpg",NA,NA,NA,NA,NA,"0.5312",NA,NA,NA,NA,NA,NA,NA,NA,NA,NA,FALSE,"CLIP_res","E_M_michael_caine.jpg P_F_esther_mcvey.jpg"
NA,"P_F_esther_mcvey.jpg","E_M_robert_de_niro.jpg",NA,NA,NA,NA,NA,"0.5957",NA,NA,NA,NA,NA,NA,NA,NA,NA,NA,FALSE,"CLIP_res","E_M_robert_de_niro.jpg P_F_esther_mcvey.jpg"
NA,"P_F_esther_mcvey.jpg","E_F_Kate_Winslet.jpg",NA,NA,NA,NA,NA,"0.4854",NA,NA,NA,NA,NA,NA,NA,NA,NA,NA,FALSE,"CLIP_res","E_F_Kate_Winslet.jpg P_F_esther_mcvey.jpg"
NA,"P_F_esther_mcvey.jpg","E_M_Hugh_Grant.jpg",NA,NA,NA,NA,NA,"0.5251",NA,NA,NA,NA,NA,NA,NA,NA,NA,NA,FALSE,"CLIP_res","E_M_Hugh_Grant.jpg P_F_esther_mcvey.jpg"
NA,"P_F_esther_mcvey.jpg","P_M_donald_trump.jpg",NA,NA,NA,NA,NA,"0.519",NA,NA,NA,NA,NA,NA,NA,NA,NA,NA,FALSE,"CLIP_res","P_F_esther_mcvey.jpg P_M_donald_trump.jpg"
NA,"P_F_esther_mcvey.jpg","E_M_liam_neeson.jpg",NA,NA,NA,NA,NA,"0.6277",NA,NA,NA,NA,NA,NA,NA,NA,NA,NA,FALSE,"CLIP_res","E_M_liam_neeson.jpg P_F_esther_mcvey.jpg"
NA,"P_F_esther_mcvey.jpg","P_M_boris_johnson.jpg",NA,NA,NA,NA,NA,"0.452",NA,NA,NA,NA,NA,NA,NA,NA,NA,NA,FALSE,"CLIP_res","P_F_esther_mcvey.jpg P_M_boris_johnson.jpg"
NA,"P_F_esther_mcvey.jpg","E_M_tom_hankes.jpg",NA,NA,NA,NA,NA,"0.5232",NA,NA,NA,NA,NA,NA,NA,NA,NA,NA,FALSE,"CLIP_res","E_M_tom_hankes.jpg P_F_esther_mcvey.jpg"
NA,"P_F_esther_mcvey.jpg","P_F_tehresy_may.jpg",NA,NA,NA,NA,NA,"0.372",NA,NA,NA,NA,NA,NA,NA,NA,NA,NA,FALSE,"CLIP_res","P_F_esther_mcvey.jpg P_F_tehresy_may.jpg"
NA,"P_F_esther_mcvey.jpg","P_F_hillary_clinton.jpg",NA,NA,NA,NA,NA,"0.483",NA,NA,NA,NA,NA,NA,NA,NA,NA,NA,FALSE,"CLIP_res","P_F_esther_mcvey.jpg P_F_hillary_clinton.jpg"
NA,"P_F_esther_mcvey.jpg","P_M_Tony_Blair.jpg",NA,NA,NA,NA,NA,"0.4814",NA,NA,NA,NA,NA,NA,NA,NA,NA,NA,FALSE,"CLIP_res","P_F_esther_mcvey.jpg P_M_Tony_Blair.jpg"
NA,"P_F_esther_mcvey.jpg","E_M_nicolas_cage.jpg",NA,NA,NA,NA,NA,"0.5828",NA,NA,NA,NA,NA,NA,NA,NA,NA,NA,FALSE,"CLIP_res","E_M_nicolas_cage.jpg P_F_esther_mcvey.jpg"
NA,"E_F_Judi_Dench.jpg","E_F_jennifer_aniston.jpg",NA,NA,NA,NA,NA,"0.46",NA,NA,NA,NA,NA,NA,NA,NA,NA,NA,FALSE,"CLIP_res","E_F_jennifer_aniston.jpg E_F_Judi_Dench.jpg"
NA,"E_F_Judi_Dench.jpg","P_F_angela_rayner.jpg",NA,NA,NA,NA,NA,"0.428",NA,NA,NA,NA,NA,NA,NA,NA,NA,NA,FALSE,"CLIP_res","E_F_Judi_Dench.jpg P_F_angela_rayner.jpg"
NA,"E_F_Judi_Dench.jpg","E_F_sandra_bullock.jpg",NA,NA,NA,NA,NA,"0.405",NA,NA,NA,NA,NA,NA,NA,NA,NA,NA,FALSE,"CLIP_res","E_F_Judi_Dench.jpg E_F_sandra_bullock.jpg"
NA,"E_F_Judi_Dench.jpg","P_F_PRITI_PATEL.jpg",NA,NA,NA,NA,NA,"0.476",NA,NA,NA,NA,NA,NA,NA,NA,NA,NA,FALSE,"CLIP_res","E_F_Judi_Dench.jpg P_F_PRITI_PATEL.jpg"
NA,"E_F_Judi_Dench.jpg","P_M_david_cameron.jpg",NA,NA,NA,NA,NA,"0.4775",NA,NA,NA,NA,NA,NA,NA,NA,NA,NA,FALSE,"CLIP_res","E_F_Judi_Dench.jpg P_M_david_cameron.jpg"
NA,"E_F_Judi_Dench.jpg","P_M_george_Wbush.jpg",NA,NA,NA,NA,NA,"0.5173",NA,NA,NA,NA,NA,NA,NA,NA,NA,NA,FALSE,"CLIP_res","E_F_Judi_Dench.jpg P_M_george_Wbush.jpg"
NA,"E_F_Judi_Dench.jpg","E_M_Martin_Freeman.jpg",NA,NA,NA,NA,NA,"0.4697",NA,NA,NA,NA,NA,NA,NA,NA,NA,NA,FALSE,"CLIP_res","E_F_Judi_Dench.jpg E_M_Martin_Freeman.jpg"
NA,"E_F_Judi_Dench.jpg","E_F_angelina_jolie.jpg",NA,NA,NA,NA,NA,"0.3613",NA,NA,NA,NA,NA,NA,NA,NA,NA,NA,FALSE,"CLIP_res","E_F_angelina_jolie.jpg E_F_Judi_Dench.jpg"
NA,"E_F_Judi_Dench.jpg","E_M_anthony_hopkins.jpg",NA,NA,NA,NA,NA,"0.43",NA,NA,NA,NA,NA,NA,NA,NA,NA,NA,FALSE,"CLIP_res","E_F_Judi_Dench.jpg E_M_anthony_hopkins.jpg"
NA,"E_F_Judi_Dench.jpg","P_F_nicola_sturgeon.jpg",NA,NA,NA,NA,NA,"0.4365",NA,NA,NA,NA,NA,NA,NA,NA,NA,NA,FALSE,"CLIP_res","E_F_Judi_Dench.jpg P_F_nicola_sturgeon.jpg"
NA,"E_F_Judi_Dench.jpg","E_M_michael_caine.jpg",NA,NA,NA,NA,NA,"0.5188",NA,NA,NA,NA,NA,NA,NA,NA,NA,NA,FALSE,"CLIP_res","E_F_Judi_Dench.jpg E_M_michael_caine.jpg"
NA,"E_F_Judi_Dench.jpg","E_M_robert_de_niro.jpg",NA,NA,NA,NA,NA,"0.5227",NA,NA,NA,NA,NA,NA,NA,NA,NA,NA,FALSE,"CLIP_res","E_F_Judi_Dench.jpg E_M_robert_de_niro.jpg"
NA,"E_F_Judi_Dench.jpg","E_F_Kate_Winslet.jpg",NA,NA,NA,NA,NA,"0.447",NA,NA,NA,NA,NA,NA,NA,NA,NA,NA,FALSE,"CLIP_res","E_F_Judi_Dench.jpg E_F_Kate_Winslet.jpg"
NA,"E_F_Judi_Dench.jpg","E_M_Hugh_Grant.jpg",NA,NA,NA,NA,NA,"0.463",NA,NA,NA,NA,NA,NA,NA,NA,NA,NA,FALSE,"CLIP_res","E_F_Judi_Dench.jpg E_M_Hugh_Grant.jpg"
NA,"E_F_Judi_Dench.jpg","P_M_donald_trump.jpg",NA,NA,NA,NA,NA,"0.5322",NA,NA,NA,NA,NA,NA,NA,NA,NA,NA,FALSE,"CLIP_res","E_F_Judi_Dench.jpg P_M_donald_trump.jpg"
NA,"E_F_Judi_Dench.jpg","E_M_liam_neeson.jpg",NA,NA,NA,NA,NA,"0.468",NA,NA,NA,NA,NA,NA,NA,NA,NA,NA,FALSE,"CLIP_res","E_F_Judi_Dench.jpg E_M_liam_neeson.jpg"
NA,"E_F_Judi_Dench.jpg","P_M_boris_johnson.jpg",NA,NA,NA,NA,NA,"0.492",NA,NA,NA,NA,NA,NA,NA,NA,NA,NA,FALSE,"CLIP_res","E_F_Judi_Dench.jpg P_M_boris_johnson.jpg"
NA,"E_F_Judi_Dench.jpg","E_M_tom_hankes.jpg",NA,NA,NA,NA,NA,"0.4634",NA,NA,NA,NA,NA,NA,NA,NA,NA,NA,FALSE,"CLIP_res","E_F_Judi_Dench.jpg E_M_tom_hankes.jpg"
NA,"E_F_Judi_Dench.jpg","P_F_tehresy_may.jpg",NA,NA,NA,NA,NA,"0.5293",NA,NA,NA,NA,NA,NA,NA,NA,NA,NA,FALSE,"CLIP_res","E_F_Judi_Dench.jpg P_F_tehresy_may.jpg"
NA,"E_F_Judi_Dench.jpg","P_F_hillary_clinton.jpg",NA,NA,NA,NA,NA,"0.434",NA,NA,NA,NA,NA,NA,NA,NA,NA,NA,FALSE,"CLIP_res","E_F_Judi_Dench.jpg P_F_hillary_clinton.jpg"
NA,"E_F_Judi_Dench.jpg","P_M_Tony_Blair.jpg",NA,NA,NA,NA,NA,"0.5525",NA,NA,NA,NA,NA,NA,NA,NA,NA,NA,FALSE,"CLIP_res","E_F_Judi_Dench.jpg P_M_Tony_Blair.jpg"
NA,"E_F_Judi_Dench.jpg","E_M_nicolas_cage.jpg",NA,NA,NA,NA,NA,"0.5237",NA,NA,NA,NA,NA,NA,NA,NA,NA,NA,FALSE,"CLIP_res","E_F_Judi_Dench.jpg E_M_nicolas_cage.jpg"
NA,"E_F_jennifer_aniston.jpg","P_F_angela_rayner.jpg",NA,NA,NA,NA,NA,"0.475",NA,NA,NA,NA,NA,NA,NA,NA,NA,NA,FALSE,"CLIP_res","E_F_jennifer_aniston.jpg P_F_angela_rayner.jpg"
NA,"E_F_jennifer_aniston.jpg","E_F_sandra_bullock.jpg",NA,NA,NA,NA,NA,"0.2183",NA,NA,NA,NA,NA,NA,NA,NA,NA,NA,FALSE,"CLIP_res","E_F_jennifer_aniston.jpg E_F_sandra_bullock.jpg"
NA,"E_F_jennifer_aniston.jpg","P_F_PRITI_PATEL.jpg",NA,NA,NA,NA,NA,"0.494",NA,NA,NA,NA,NA,NA,NA,NA,NA,NA,FALSE,"CLIP_res","E_F_jennifer_aniston.jpg P_F_PRITI_PATEL.jpg"
NA,"E_F_jennifer_aniston.jpg","P_M_david_cameron.jpg",NA,NA,NA,NA,NA,"0.4526",NA,NA,NA,NA,NA,NA,NA,NA,NA,NA,FALSE,"CLIP_res","E_F_jennifer_aniston.jpg P_M_david_cameron.jpg"
NA,"E_F_jennifer_aniston.jpg","P_M_george_Wbush.jpg",NA,NA,NA,NA,NA,"0.4443",NA,NA,NA,NA,NA,NA,NA,NA,NA,NA,FALSE,"CLIP_res","E_F_jennifer_aniston.jpg P_M_george_Wbush.jpg"
NA,"E_F_jennifer_aniston.jpg","E_M_Martin_Freeman.jpg",NA,NA,NA,NA,NA,"0.354",NA,NA,NA,NA,NA,NA,NA,NA,NA,NA,FALSE,"CLIP_res","E_F_jennifer_aniston.jpg E_M_Martin_Freeman.jpg"
NA,"E_F_jennifer_aniston.jpg","E_F_angelina_jolie.jpg",NA,NA,NA,NA,NA,"0.221",NA,NA,NA,NA,NA,NA,NA,NA,NA,NA,FALSE,"CLIP_res","E_F_angelina_jolie.jpg E_F_jennifer_aniston.jpg"
NA,"E_F_jennifer_aniston.jpg","E_M_anthony_hopkins.jpg",NA,NA,NA,NA,NA,"0.459",NA,NA,NA,NA,NA,NA,NA,NA,NA,NA,FALSE,"CLIP_res","E_F_jennifer_aniston.jpg E_M_anthony_hopkins.jpg"
NA,"E_F_jennifer_aniston.jpg","P_F_nicola_sturgeon.jpg",NA,NA,NA,NA,NA,"0.4863",NA,NA,NA,NA,NA,NA,NA,NA,NA,NA,FALSE,"CLIP_res","E_F_jennifer_aniston.jpg P_F_nicola_sturgeon.jpg"
NA,"E_F_jennifer_aniston.jpg","E_M_michael_caine.jpg",NA,NA,NA,NA,NA,"0.528",NA,NA,NA,NA,NA,NA,NA,NA,NA,NA,FALSE,"CLIP_res","E_F_jennifer_aniston.jpg E_M_michael_caine.jpg"
NA,"E_F_jennifer_aniston.jpg","E_M_robert_de_niro.jpg",NA,NA,NA,NA,NA,"0.4434",NA,NA,NA,NA,NA,NA,NA,NA,NA,NA,FALSE,"CLIP_res","E_F_jennifer_aniston.jpg E_M_robert_de_niro.jpg"
NA,"E_F_jennifer_aniston.jpg","E_F_Kate_Winslet.jpg",NA,NA,NA,NA,NA,"0.239",NA,NA,NA,NA,NA,NA,NA,NA,NA,NA,FALSE,"CLIP_res","E_F_jennifer_aniston.jpg E_F_Kate_Winslet.jpg"
NA,"E_F_jennifer_aniston.jpg","E_M_Hugh_Grant.jpg",NA,NA,NA,NA,NA,"0.481",NA,NA,NA,NA,NA,NA,NA,NA,NA,NA,FALSE,"CLIP_res","E_F_jennifer_aniston.jpg E_M_Hugh_Grant.jpg"
NA,"E_F_jennifer_aniston.jpg","P_M_donald_trump.jpg",NA,NA,NA,NA,NA,"0.454",NA,NA,NA,NA,NA,NA,NA,NA,NA,NA,FALSE,"CLIP_res","E_F_jennifer_aniston.jpg P_M_donald_trump.jpg"
NA,"E_F_jennifer_aniston.jpg","E_M_liam_neeson.jpg",NA,NA,NA,NA,NA,"0.441",NA,NA,NA,NA,NA,NA,NA,NA,NA,NA,FALSE,"CLIP_res","E_F_jennifer_aniston.jpg E_M_liam_neeson.jpg"
NA,"E_F_jennifer_aniston.jpg","P_M_boris_johnson.jpg",NA,NA,NA,NA,NA,"0.4644",NA,NA,NA,NA,NA,NA,NA,NA,NA,NA,FALSE,"CLIP_res","E_F_jennifer_aniston.jpg P_M_boris_johnson.jpg"
NA,"E_F_jennifer_aniston.jpg","E_M_tom_hankes.jpg",NA,NA,NA,NA,NA,"0.2607",NA,NA,NA,NA,NA,NA,NA,NA,NA,NA,FALSE,"CLIP_res","E_F_jennifer_aniston.jpg E_M_tom_hankes.jpg"
NA,"E_F_jennifer_aniston.jpg","P_F_tehresy_may.jpg",NA,NA,NA,NA,NA,"0.422",NA,NA,NA,NA,NA,NA,NA,NA,NA,NA,FALSE,"CLIP_res","E_F_jennifer_aniston.jpg P_F_tehresy_may.jpg"
NA,"E_F_jennifer_aniston.jpg","P_F_hillary_clinton.jpg",NA,NA,NA,NA,NA,"0.388",NA,NA,NA,NA,NA,NA,NA,NA,NA,NA,FALSE,"CLIP_res","E_F_jennifer_aniston.jpg P_F_hillary_clinton.jpg"
NA,"E_F_jennifer_aniston.jpg","P_M_Tony_Blair.jpg",NA,NA,NA,NA,NA,"0.488",NA,NA,NA,NA,NA,NA,NA,NA,NA,NA,FALSE,"CLIP_res","E_F_jennifer_aniston.jpg P_M_Tony_Blair.jpg"
NA,"E_F_jennifer_aniston.jpg","E_M_nicolas_cage.jpg",NA,NA,NA,NA,NA,"0.4126",NA,NA,NA,NA,NA,NA,NA,NA,NA,NA,FALSE,"CLIP_res","E_F_jennifer_aniston.jpg E_M_nicolas_cage.jpg"
NA,"P_F_angela_rayner.jpg","E_F_sandra_bullock.jpg",NA,NA,NA,NA,NA,"0.457",NA,NA,NA,NA,NA,NA,NA,NA,NA,NA,FALSE,"CLIP_res","E_F_sandra_bullock.jpg P_F_angela_rayner.jpg"
NA,"P_F_angela_rayner.jpg","P_F_PRITI_PATEL.jpg",NA,NA,NA,NA,NA,"0.3037",NA,NA,NA,NA,NA,NA,NA,NA,NA,NA,FALSE,"CLIP_res","P_F_angela_rayner.jpg P_F_PRITI_PATEL.jpg"
NA,"P_F_angela_rayner.jpg","P_M_david_cameron.jpg",NA,NA,NA,NA,NA,"0.4453",NA,NA,NA,NA,NA,NA,NA,NA,NA,NA,FALSE,"CLIP_res","P_F_angela_rayner.jpg P_M_david_cameron.jpg"
NA,"P_F_angela_rayner.jpg","P_M_george_Wbush.jpg",NA,NA,NA,NA,NA,"0.5593",NA,NA,NA,NA,NA,NA,NA,NA,NA,NA,FALSE,"CLIP_res","P_F_angela_rayner.jpg P_M_george_Wbush.jpg"
NA,"P_F_angela_rayner.jpg","E_M_Martin_Freeman.jpg",NA,NA,NA,NA,NA,"0.5276",NA,NA,NA,NA,NA,NA,NA,NA,NA,NA,FALSE,"CLIP_res","E_M_Martin_Freeman.jpg P_F_angela_rayner.jpg"
NA,"P_F_angela_rayner.jpg","E_F_angelina_jolie.jpg",NA,NA,NA,NA,NA,"0.4233",NA,NA,NA,NA,NA,NA,NA,NA,NA,NA,FALSE,"CLIP_res","E_F_angelina_jolie.jpg P_F_angela_rayner.jpg"
NA,"P_F_angela_rayner.jpg","E_M_anthony_hopkins.jpg",NA,NA,NA,NA,NA,"0.532",NA,NA,NA,NA,NA,NA,NA,NA,NA,NA,FALSE,"CLIP_res","E_M_anthony_hopkins.jpg P_F_angela_rayner.jpg"
NA,"P_F_angela_rayner.jpg","P_F_nicola_sturgeon.jpg",NA,NA,NA,NA,NA,"0.4756",NA,NA,NA,NA,NA,NA,NA,NA,NA,NA,FALSE,"CLIP_res","P_F_angela_rayner.jpg P_F_nicola_sturgeon.jpg"
NA,"P_F_angela_rayner.jpg","E_M_michael_caine.jpg",NA,NA,NA,NA,NA,"0.5452",NA,NA,NA,NA,NA,NA,NA,NA,NA,NA,FALSE,"CLIP_res","E_M_michael_caine.jpg P_F_angela_rayner.jpg"
NA,"P_F_angela_rayner.jpg","E_M_robert_de_niro.jpg",NA,NA,NA,NA,NA,"0.6228",NA,NA,NA,NA,NA,NA,NA,NA,NA,NA,FALSE,"CLIP_res","E_M_robert_de_niro.jpg P_F_angela_rayner.jpg"
NA,"P_F_angela_rayner.jpg","E_F_Kate_Winslet.jpg",NA,NA,NA,NA,NA,"0.419",NA,NA,NA,NA,NA,NA,NA,NA,NA,NA,FALSE,"CLIP_res","E_F_Kate_Winslet.jpg P_F_angela_rayner.jpg"
NA,"P_F_angela_rayner.jpg","E_M_Hugh_Grant.jpg",NA,NA,NA,NA,NA,"0.482",NA,NA,NA,NA,NA,NA,NA,NA,NA,NA,FALSE,"CLIP_res","E_M_Hugh_Grant.jpg P_F_angela_rayner.jpg"
NA,"P_F_angela_rayner.jpg","P_M_donald_trump.jpg",NA,NA,NA,NA,NA,"0.5066",NA,NA,NA,NA,NA,NA,NA,NA,NA,NA,FALSE,"CLIP_res","P_F_angela_rayner.jpg P_M_donald_trump.jpg"
NA,"P_F_angela_rayner.jpg","E_M_liam_neeson.jpg",NA,NA,NA,NA,NA,"0.5737",NA,NA,NA,NA,NA,NA,NA,NA,NA,NA,FALSE,"CLIP_res","E_M_liam_neeson.jpg P_F_angela_rayner.jpg"
NA,"P_F_angela_rayner.jpg","P_M_boris_johnson.jpg",NA,NA,NA,NA,NA,"0.4917",NA,NA,NA,NA,NA,NA,NA,NA,NA,NA,FALSE,"CLIP_res","P_F_angela_rayner.jpg P_M_boris_johnson.jpg"
NA,"P_F_angela_rayner.jpg","E_M_tom_hankes.jpg",NA,NA,NA,NA,NA,"0.5308",NA,NA,NA,NA,NA,NA,NA,NA,NA,NA,FALSE,"CLIP_res","E_M_tom_hankes.jpg P_F_angela_rayner.jpg"
NA,"P_F_angela_rayner.jpg","P_F_tehresy_may.jpg",NA,NA,NA,NA,NA,"0.484",NA,NA,NA,NA,NA,NA,NA,NA,NA,NA,FALSE,"CLIP_res","P_F_angela_rayner.jpg P_F_tehresy_may.jpg"
NA,"P_F_angela_rayner.jpg","P_F_hillary_clinton.jpg",NA,NA,NA,NA,NA,"0.468",NA,NA,NA,NA,NA,NA,NA,NA,NA,NA,FALSE,"CLIP_res","P_F_angela_rayner.jpg P_F_hillary_clinton.jpg"
NA,"P_F_angela_rayner.jpg","P_M_Tony_Blair.jpg",NA,NA,NA,NA,NA,"0.536",NA,NA,NA,NA,NA,NA,NA,NA,NA,NA,FALSE,"CLIP_res","P_F_angela_rayner.jpg P_M_Tony_Blair.jpg"
NA,"P_F_angela_rayner.jpg","E_M_nicolas_cage.jpg",NA,NA,NA,NA,NA,"0.5627",NA,NA,NA,NA,NA,NA,NA,NA,NA,NA,FALSE,"CLIP_res","E_M_nicolas_cage.jpg P_F_angela_rayner.jpg"
NA,"E_F_sandra_bullock.jpg","P_F_PRITI_PATEL.jpg",NA,NA,NA,NA,NA,"0.4624",NA,NA,NA,NA,NA,NA,NA,NA,NA,NA,FALSE,"CLIP_res","E_F_sandra_bullock.jpg P_F_PRITI_PATEL.jpg"
NA,"E_F_sandra_bullock.jpg","P_M_david_cameron.jpg",NA,NA,NA,NA,NA,"0.5205",NA,NA,NA,NA,NA,NA,NA,NA,NA,NA,FALSE,"CLIP_res","E_F_sandra_bullock.jpg P_M_david_cameron.jpg"
NA,"E_F_sandra_bullock.jpg","P_M_george_Wbush.jpg",NA,NA,NA,NA,NA,"0.4834",NA,NA,NA,NA,NA,NA,NA,NA,NA,NA,FALSE,"CLIP_res","E_F_sandra_bullock.jpg P_M_george_Wbush.jpg"
NA,"E_F_sandra_bullock.jpg","E_M_Martin_Freeman.jpg",NA,NA,NA,NA,NA,"0.418",NA,NA,NA,NA,NA,NA,NA,NA,NA,NA,FALSE,"CLIP_res","E_F_sandra_bullock.jpg E_M_Martin_Freeman.jpg"
NA,"E_F_sandra_bullock.jpg","E_F_angelina_jolie.jpg",NA,NA,NA,NA,NA,"0.2437",NA,NA,NA,NA,NA,NA,NA,NA,NA,NA,FALSE,"CLIP_res","E_F_angelina_jolie.jpg E_F_sandra_bullock.jpg"
NA,"E_F_sandra_bullock.jpg","E_M_anthony_hopkins.jpg",NA,NA,NA,NA,NA,"0.489",NA,NA,NA,NA,NA,NA,NA,NA,NA,NA,FALSE,"CLIP_res","E_F_sandra_bullock.jpg E_M_anthony_hopkins.jpg"
NA,"E_F_sandra_bullock.jpg","P_F_nicola_sturgeon.jpg",NA,NA,NA,NA,NA,"0.5173",NA,NA,NA,NA,NA,NA,NA,NA,NA,NA,FALSE,"CLIP_res","E_F_sandra_bullock.jpg P_F_nicola_sturgeon.jpg"
NA,"E_F_sandra_bullock.jpg","E_M_michael_caine.jpg",NA,NA,NA,NA,NA,"0.5452",NA,NA,NA,NA,NA,NA,NA,NA,NA,NA,FALSE,"CLIP_res","E_F_sandra_bullock.jpg E_M_michael_caine.jpg"
NA,"E_F_sandra_bullock.jpg","E_M_robert_de_niro.jpg",NA,NA,NA,NA,NA,"0.4917",NA,NA,NA,NA,NA,NA,NA,NA,NA,NA,FALSE,"CLIP_res","E_F_sandra_bullock.jpg E_M_robert_de_niro.jpg"
NA,"E_F_sandra_bullock.jpg","E_F_Kate_Winslet.jpg",NA,NA,NA,NA,NA,"0.2676",NA,NA,NA,NA,NA,NA,NA,NA,NA,NA,FALSE,"CLIP_res","E_F_Kate_Winslet.jpg E_F_sandra_bullock.jpg"
NA,"E_F_sandra_bullock.jpg","E_M_Hugh_Grant.jpg",NA,NA,NA,NA,NA,"0.488",NA,NA,NA,NA,NA,NA,NA,NA,NA,NA,FALSE,"CLIP_res","E_F_sandra_bullock.jpg E_M_Hugh_Grant.jpg"
NA,"E_F_sandra_bullock.jpg","P_M_donald_trump.jpg",NA,NA,NA,NA,NA,"0.4756",NA,NA,NA,NA,NA,NA,NA,NA,NA,NA,FALSE,"CLIP_res","E_F_sandra_bullock.jpg P_M_donald_trump.jpg"
NA,"E_F_sandra_bullock.jpg","E_M_liam_neeson.jpg",NA,NA,NA,NA,NA,"0.407",NA,NA,NA,NA,NA,NA,NA,NA,NA,NA,FALSE,"CLIP_res","E_F_sandra_bullock.jpg E_M_liam_neeson.jpg"
NA,"E_F_sandra_bullock.jpg","P_M_boris_johnson.jpg",NA,NA,NA,NA,NA,"0.5103",NA,NA,NA,NA,NA,NA,NA,NA,NA,NA,FALSE,"CLIP_res","E_F_sandra_bullock.jpg P_M_boris_johnson.jpg"
NA,"E_F_sandra_bullock.jpg","E_M_tom_hankes.jpg",NA,NA,NA,NA,NA,"0.3564",NA,NA,NA,NA,NA,NA,NA,NA,NA,NA,FALSE,"CLIP_res","E_F_sandra_bullock.jpg E_M_tom_hankes.jpg"
NA,"E_F_sandra_bullock.jpg","P_F_tehresy_may.jpg",NA,NA,NA,NA,NA,"0.5115",NA,NA,NA,NA,NA,NA,NA,NA,NA,NA,FALSE,"CLIP_res","E_F_sandra_bullock.jpg P_F_tehresy_may.jpg"
NA,"E_F_sandra_bullock.jpg","P_F_hillary_clinton.jpg",NA,NA,NA,NA,NA,"0.431",NA,NA,NA,NA,NA,NA,NA,NA,NA,NA,FALSE,"CLIP_res","E_F_sandra_bullock.jpg P_F_hillary_clinton.jpg"
NA,"E_F_sandra_bullock.jpg","P_M_Tony_Blair.jpg",NA,NA,NA,NA,NA,"0.5571",NA,NA,NA,NA,NA,NA,NA,NA,NA,NA,FALSE,"CLIP_res","E_F_sandra_bullock.jpg P_M_Tony_Blair.jpg"
NA,"E_F_sandra_bullock.jpg","E_M_nicolas_cage.jpg",NA,NA,NA,NA,NA,"0.445",NA,NA,NA,NA,NA,NA,NA,NA,NA,NA,FALSE,"CLIP_res","E_F_sandra_bullock.jpg E_M_nicolas_cage.jpg"
NA,"P_F_PRITI_PATEL.jpg","P_M_david_cameron.jpg",NA,NA,NA,NA,NA,"0.459",NA,NA,NA,NA,NA,NA,NA,NA,NA,NA,FALSE,"CLIP_res","P_F_PRITI_PATEL.jpg P_M_david_cameron.jpg"
NA,"P_F_PRITI_PATEL.jpg","P_M_george_Wbush.jpg",NA,NA,NA,NA,NA,"0.5403",NA,NA,NA,NA,NA,NA,NA,NA,NA,NA,FALSE,"CLIP_res","P_F_PRITI_PATEL.jpg P_M_george_Wbush.jpg"
NA,"P_F_PRITI_PATEL.jpg","E_M_Martin_Freeman.jpg",NA,NA,NA,NA,NA,"0.556",NA,NA,NA,NA,NA,NA,NA,NA,NA,NA,FALSE,"CLIP_res","E_M_Martin_Freeman.jpg P_F_PRITI_PATEL.jpg"
NA,"P_F_PRITI_PATEL.jpg","E_F_angelina_jolie.jpg",NA,NA,NA,NA,NA,"0.3945",NA,NA,NA,NA,NA,NA,NA,NA,NA,NA,FALSE,"CLIP_res","E_F_angelina_jolie.jpg P_F_PRITI_PATEL.jpg"
NA,"P_F_PRITI_PATEL.jpg","E_M_anthony_hopkins.jpg",NA,NA,NA,NA,NA,"0.548",NA,NA,NA,NA,NA,NA,NA,NA,NA,NA,FALSE,"CLIP_res","E_M_anthony_hopkins.jpg P_F_PRITI_PATEL.jpg"
NA,"P_F_PRITI_PATEL.jpg","P_F_nicola_sturgeon.jpg",NA,NA,NA,NA,NA,"0.5186",NA,NA,NA,NA,NA,NA,NA,NA,NA,NA,FALSE,"CLIP_res","P_F_nicola_sturgeon.jpg P_F_PRITI_PATEL.jpg"
NA,"P_F_PRITI_PATEL.jpg","E_M_michael_caine.jpg",NA,NA,NA,NA,NA,"0.5386",NA,NA,NA,NA,NA,NA,NA,NA,NA,NA,FALSE,"CLIP_res","E_M_michael_caine.jpg P_F_PRITI_PATEL.jpg"
NA,"P_F_PRITI_PATEL.jpg","E_M_robert_de_niro.jpg",NA,NA,NA,NA,NA,"0.5703",NA,NA,NA,NA,NA,NA,NA,NA,NA,NA,FALSE,"CLIP_res","E_M_robert_de_niro.jpg P_F_PRITI_PATEL.jpg"
NA,"P_F_PRITI_PATEL.jpg","E_F_Kate_Winslet.jpg",NA,NA,NA,NA,NA,"0.426",NA,NA,NA,NA,NA,NA,NA,NA,NA,NA,FALSE,"CLIP_res","E_F_Kate_Winslet.jpg P_F_PRITI_PATEL.jpg"
NA,"P_F_PRITI_PATEL.jpg","E_M_Hugh_Grant.jpg",NA,NA,NA,NA,NA,"0.5562",NA,NA,NA,NA,NA,NA,NA,NA,NA,NA,FALSE,"CLIP_res","E_M_Hugh_Grant.jpg P_F_PRITI_PATEL.jpg"
NA,"P_F_PRITI_PATEL.jpg","P_M_donald_trump.jpg",NA,NA,NA,NA,NA,"0.496",NA,NA,NA,NA,NA,NA,NA,NA,NA,NA,FALSE,"CLIP_res","P_F_PRITI_PATEL.jpg P_M_donald_trump.jpg"
NA,"P_F_PRITI_PATEL.jpg","E_M_liam_neeson.jpg",NA,NA,NA,NA,NA,"0.6252",NA,NA,NA,NA,NA,NA,NA,NA,NA,NA,FALSE,"CLIP_res","E_M_liam_neeson.jpg P_F_PRITI_PATEL.jpg"
NA,"P_F_PRITI_PATEL.jpg","P_M_boris_johnson.jpg",NA,NA,NA,NA,NA,"0.5327",NA,NA,NA,NA,NA,NA,NA,NA,NA,NA,FALSE,"CLIP_res","P_F_PRITI_PATEL.jpg P_M_boris_johnson.jpg"
NA,"P_F_PRITI_PATEL.jpg","E_M_tom_hankes.jpg",NA,NA,NA,NA,NA,"0.5413",NA,NA,NA,NA,NA,NA,NA,NA,NA,NA,FALSE,"CLIP_res","E_M_tom_hankes.jpg P_F_PRITI_PATEL.jpg"
NA,"P_F_PRITI_PATEL.jpg","P_F_tehresy_may.jpg",NA,NA,NA,NA,NA,"0.491",NA,NA,NA,NA,NA,NA,NA,NA,NA,NA,FALSE,"CLIP_res","P_F_PRITI_PATEL.jpg P_F_tehresy_may.jpg"
NA,"P_F_PRITI_PATEL.jpg","P_F_hillary_clinton.jpg",NA,NA,NA,NA,NA,"0.4565",NA,NA,NA,NA,NA,NA,NA,NA,NA,NA,FALSE,"CLIP_res","P_F_hillary_clinton.jpg P_F_PRITI_PATEL.jpg"
NA,"P_F_PRITI_PATEL.jpg","P_M_Tony_Blair.jpg",NA,NA,NA,NA,NA,"0.5144",NA,NA,NA,NA,NA,NA,NA,NA,NA,NA,FALSE,"CLIP_res","P_F_PRITI_PATEL.jpg P_M_Tony_Blair.jpg"
NA,"P_F_PRITI_PATEL.jpg","E_M_nicolas_cage.jpg",NA,NA,NA,NA,NA,"0.5918",NA,NA,NA,NA,NA,NA,NA,NA,NA,NA,FALSE,"CLIP_res","E_M_nicolas_cage.jpg P_F_PRITI_PATEL.jpg"
NA,"P_M_david_cameron.jpg","P_M_george_Wbush.jpg",NA,NA,NA,NA,NA,"0.3057",NA,NA,NA,NA,NA,NA,NA,NA,NA,NA,FALSE,"CLIP_res","P_M_david_cameron.jpg P_M_george_Wbush.jpg"
NA,"P_M_david_cameron.jpg","E_M_Martin_Freeman.jpg",NA,NA,NA,NA,NA,"0.353",NA,NA,NA,NA,NA,NA,NA,NA,NA,NA,FALSE,"CLIP_res","E_M_Martin_Freeman.jpg P_M_david_cameron.jpg"
NA,"P_M_david_cameron.jpg","E_F_angelina_jolie.jpg",NA,NA,NA,NA,NA,"0.3613",NA,NA,NA,NA,NA,NA,NA,NA,NA,NA,FALSE,"CLIP_res","E_F_angelina_jolie.jpg P_M_david_cameron.jpg"
NA,"P_M_david_cameron.jpg","E_M_anthony_hopkins.jpg",NA,NA,NA,NA,NA,"0.401",NA,NA,NA,NA,NA,NA,NA,NA,NA,NA,FALSE,"CLIP_res","E_M_anthony_hopkins.jpg P_M_david_cameron.jpg"
NA,"P_M_david_cameron.jpg","P_F_nicola_sturgeon.jpg",NA,NA,NA,NA,NA,"0.248",NA,NA,NA,NA,NA,NA,NA,NA,NA,NA,FALSE,"CLIP_res","P_F_nicola_sturgeon.jpg P_M_david_cameron.jpg"
NA,"P_M_david_cameron.jpg","E_M_michael_caine.jpg",NA,NA,NA,NA,NA,"0.4595",NA,NA,NA,NA,NA,NA,NA,NA,NA,NA,FALSE,"CLIP_res","E_M_michael_caine.jpg P_M_david_cameron.jpg"
NA,"P_M_david_cameron.jpg","E_M_robert_de_niro.jpg",NA,NA,NA,NA,NA,"0.4697",NA,NA,NA,NA,NA,NA,NA,NA,NA,NA,FALSE,"CLIP_res","E_M_robert_de_niro.jpg P_M_david_cameron.jpg"
NA,"P_M_david_cameron.jpg","E_F_Kate_Winslet.jpg",NA,NA,NA,NA,NA,"0.4717",NA,NA,NA,NA,NA,NA,NA,NA,NA,NA,FALSE,"CLIP_res","E_F_Kate_Winslet.jpg P_M_david_cameron.jpg"
NA,"P_M_david_cameron.jpg","E_M_Hugh_Grant.jpg",NA,NA,NA,NA,NA,"0.423",NA,NA,NA,NA,NA,NA,NA,NA,NA,NA,FALSE,"CLIP_res","E_M_Hugh_Grant.jpg P_M_david_cameron.jpg"
NA,"P_M_david_cameron.jpg","P_M_donald_trump.jpg",NA,NA,NA,NA,NA,"0.326",NA,NA,NA,NA,NA,NA,NA,NA,NA,NA,FALSE,"CLIP_res","P_M_david_cameron.jpg P_M_donald_trump.jpg"
NA,"P_M_david_cameron.jpg","E_M_liam_neeson.jpg",NA,NA,NA,NA,NA,"0.442",NA,NA,NA,NA,NA,NA,NA,NA,NA,NA,FALSE,"CLIP_res","E_M_liam_neeson.jpg P_M_david_cameron.jpg"
NA,"P_M_david_cameron.jpg","P_M_boris_johnson.jpg",NA,NA,NA,NA,NA,"0.2007",NA,NA,NA,NA,NA,NA,NA,NA,NA,NA,FALSE,"CLIP_res","P_M_boris_johnson.jpg P_M_david_cameron.jpg"
NA,"P_M_david_cameron.jpg","E_M_tom_hankes.jpg",NA,NA,NA,NA,NA,"0.343",NA,NA,NA,NA,NA,NA,NA,NA,NA,NA,FALSE,"CLIP_res","E_M_tom_hankes.jpg P_M_david_cameron.jpg"
NA,"P_M_david_cameron.jpg","P_F_tehresy_may.jpg",NA,NA,NA,NA,NA,"0.2544",NA,NA,NA,NA,NA,NA,NA,NA,NA,NA,FALSE,"CLIP_res","P_F_tehresy_may.jpg P_M_david_cameron.jpg"
NA,"P_M_david_cameron.jpg","P_F_hillary_clinton.jpg",NA,NA,NA,NA,NA,"0.3364",NA,NA,NA,NA,NA,NA,NA,NA,NA,NA,FALSE,"CLIP_res","P_F_hillary_clinton.jpg P_M_david_cameron.jpg"
NA,"P_M_david_cameron.jpg","P_M_Tony_Blair.jpg",NA,NA,NA,NA,NA,"0.225",NA,NA,NA,NA,NA,NA,NA,NA,NA,NA,FALSE,"CLIP_res","P_M_david_cameron.jpg P_M_Tony_Blair.jpg"
NA,"P_M_david_cameron.jpg","E_M_nicolas_cage.jpg",NA,NA,NA,NA,NA,"0.391",NA,NA,NA,NA,NA,NA,NA,NA,NA,NA,FALSE,"CLIP_res","E_M_nicolas_cage.jpg P_M_david_cameron.jpg"
NA,"P_M_george_Wbush.jpg","E_M_Martin_Freeman.jpg",NA,NA,NA,NA,NA,"0.394",NA,NA,NA,NA,NA,NA,NA,NA,NA,NA,FALSE,"CLIP_res","E_M_Martin_Freeman.jpg P_M_george_Wbush.jpg"
NA,"P_M_george_Wbush.jpg","E_F_angelina_jolie.jpg",NA,NA,NA,NA,NA,"0.3403",NA,NA,NA,NA,NA,NA,NA,NA,NA,NA,FALSE,"CLIP_res","E_F_angelina_jolie.jpg P_M_george_Wbush.jpg"
NA,"P_M_george_Wbush.jpg","E_M_anthony_hopkins.jpg",NA,NA,NA,NA,NA,"0.4194",NA,NA,NA,NA,NA,NA,NA,NA,NA,NA,FALSE,"CLIP_res","E_M_anthony_hopkins.jpg P_M_george_Wbush.jpg"
NA,"P_M_george_Wbush.jpg","P_F_nicola_sturgeon.jpg",NA,NA,NA,NA,NA,"0.3877",NA,NA,NA,NA,NA,NA,NA,NA,NA,NA,FALSE,"CLIP_res","P_F_nicola_sturgeon.jpg P_M_george_Wbush.jpg"
NA,"P_M_george_Wbush.jpg","E_M_michael_caine.jpg",NA,NA,NA,NA,NA,"0.414",NA,NA,NA,NA,NA,NA,NA,NA,NA,NA,FALSE,"CLIP_res","E_M_michael_caine.jpg P_M_george_Wbush.jpg"
NA,"P_M_george_Wbush.jpg","E_M_robert_de_niro.jpg",NA,NA,NA,NA,NA,"0.429",NA,NA,NA,NA,NA,NA,NA,NA,NA,NA,FALSE,"CLIP_res","E_M_robert_de_niro.jpg P_M_george_Wbush.jpg"
NA,"P_M_george_Wbush.jpg","E_F_Kate_Winslet.jpg",NA,NA,NA,NA,NA,"0.495",NA,NA,NA,NA,NA,NA,NA,NA,NA,NA,FALSE,"CLIP_res","E_F_Kate_Winslet.jpg P_M_george_Wbush.jpg"
NA,"P_M_george_Wbush.jpg","E_M_Hugh_Grant.jpg",NA,NA,NA,NA,NA,"0.49",NA,NA,NA,NA,NA,NA,NA,NA,NA,NA,FALSE,"CLIP_res","E_M_Hugh_Grant.jpg P_M_george_Wbush.jpg"
NA,"P_M_george_Wbush.jpg","P_M_donald_trump.jpg",NA,NA,NA,NA,NA,"0.23",NA,NA,NA,NA,NA,NA,NA,NA,NA,NA,FALSE,"CLIP_res","P_M_donald_trump.jpg P_M_george_Wbush.jpg"
NA,"P_M_george_Wbush.jpg","E_M_liam_neeson.jpg",NA,NA,NA,NA,NA,"0.3804",NA,NA,NA,NA,NA,NA,NA,NA,NA,NA,FALSE,"CLIP_res","E_M_liam_neeson.jpg P_M_george_Wbush.jpg"
NA,"P_M_george_Wbush.jpg","P_M_boris_johnson.jpg",NA,NA,NA,NA,NA,"0.308",NA,NA,NA,NA,NA,NA,NA,NA,NA,NA,FALSE,"CLIP_res","P_M_boris_johnson.jpg P_M_george_Wbush.jpg"
NA,"P_M_george_Wbush.jpg","E_M_tom_hankes.jpg",NA,NA,NA,NA,NA,"0.309",NA,NA,NA,NA,NA,NA,NA,NA,NA,NA,FALSE,"CLIP_res","E_M_tom_hankes.jpg P_M_george_Wbush.jpg"
NA,"P_M_george_Wbush.jpg","P_F_tehresy_may.jpg",NA,NA,NA,NA,NA,"0.3765",NA,NA,NA,NA,NA,NA,NA,NA,NA,NA,FALSE,"CLIP_res","P_F_tehresy_may.jpg P_M_george_Wbush.jpg"
NA,"P_M_george_Wbush.jpg","P_F_hillary_clinton.jpg",NA,NA,NA,NA,NA,"0.2705",NA,NA,NA,NA,NA,NA,NA,NA,NA,NA,FALSE,"CLIP_res","P_F_hillary_clinton.jpg P_M_george_Wbush.jpg"
NA,"P_M_george_Wbush.jpg","P_M_Tony_Blair.jpg",NA,NA,NA,NA,NA,"0.289",NA,NA,NA,NA,NA,NA,NA,NA,NA,NA,FALSE,"CLIP_res","P_M_george_Wbush.jpg P_M_Tony_Blair.jpg"
NA,"P_M_george_Wbush.jpg","E_M_nicolas_cage.jpg",NA,NA,NA,NA,NA,"0.3276",NA,NA,NA,NA,NA,NA,NA,NA,NA,NA,FALSE,"CLIP_res","E_M_nicolas_cage.jpg P_M_george_Wbush.jpg"
NA,"E_M_Martin_Freeman.jpg","E_F_angelina_jolie.jpg",NA,NA,NA,NA,NA,"0.3477",NA,NA,NA,NA,NA,NA,NA,NA,NA,NA,FALSE,"CLIP_res","E_F_angelina_jolie.jpg E_M_Martin_Freeman.jpg"
NA,"E_M_Martin_Freeman.jpg","E_M_anthony_hopkins.jpg",NA,NA,NA,NA,NA,"0.3613",NA,NA,NA,NA,NA,NA,NA,NA,NA,NA,FALSE,"CLIP_res","E_M_anthony_hopkins.jpg E_M_Martin_Freeman.jpg"
NA,"E_M_Martin_Freeman.jpg","P_F_nicola_sturgeon.jpg",NA,NA,NA,NA,NA,"0.459",NA,NA,NA,NA,NA,NA,NA,NA,NA,NA,FALSE,"CLIP_res","E_M_Martin_Freeman.jpg P_F_nicola_sturgeon.jpg"
NA,"E_M_Martin_Freeman.jpg","E_M_michael_caine.jpg",NA,NA,NA,NA,NA,"0.4766",NA,NA,NA,NA,NA,NA,NA,NA,NA,NA,FALSE,"CLIP_res","E_M_Martin_Freeman.jpg E_M_michael_caine.jpg"
NA,"E_M_Martin_Freeman.jpg","E_M_robert_de_niro.jpg",NA,NA,NA,NA,NA,"0.455",NA,NA,NA,NA,NA,NA,NA,NA,NA,NA,FALSE,"CLIP_res","E_M_Martin_Freeman.jpg E_M_robert_de_niro.jpg"
NA,"E_M_Martin_Freeman.jpg","E_F_Kate_Winslet.jpg",NA,NA,NA,NA,NA,"0.377",NA,NA,NA,NA,NA,NA,NA,NA,NA,NA,FALSE,"CLIP_res","E_F_Kate_Winslet.jpg E_M_Martin_Freeman.jpg"
NA,"E_M_Martin_Freeman.jpg","E_M_Hugh_Grant.jpg",NA,NA,NA,NA,NA,"0.3887",NA,NA,NA,NA,NA,NA,NA,NA,NA,NA,FALSE,"CLIP_res","E_M_Hugh_Grant.jpg E_M_Martin_Freeman.jpg"
NA,"E_M_Martin_Freeman.jpg","P_M_donald_trump.jpg",NA,NA,NA,NA,NA,"0.435",NA,NA,NA,NA,NA,NA,NA,NA,NA,NA,FALSE,"CLIP_res","E_M_Martin_Freeman.jpg P_M_donald_trump.jpg"
NA,"E_M_Martin_Freeman.jpg","E_M_liam_neeson.jpg",NA,NA,NA,NA,NA,"0.4004",NA,NA,NA,NA,NA,NA,NA,NA,NA,NA,FALSE,"CLIP_res","E_M_liam_neeson.jpg E_M_Martin_Freeman.jpg"
NA,"E_M_Martin_Freeman.jpg","P_M_boris_johnson.jpg",NA,NA,NA,NA,NA,"0.3877",NA,NA,NA,NA,NA,NA,NA,NA,NA,NA,FALSE,"CLIP_res","E_M_Martin_Freeman.jpg P_M_boris_johnson.jpg"
NA,"E_M_Martin_Freeman.jpg","E_M_tom_hankes.jpg",NA,NA,NA,NA,NA,"0.3047",NA,NA,NA,NA,NA,NA,NA,NA,NA,NA,FALSE,"CLIP_res","E_M_Martin_Freeman.jpg E_M_tom_hankes.jpg"
NA,"E_M_Martin_Freeman.jpg","P_F_tehresy_may.jpg",NA,NA,NA,NA,NA,"0.488",NA,NA,NA,NA,NA,NA,NA,NA,NA,NA,FALSE,"CLIP_res","E_M_Martin_Freeman.jpg P_F_tehresy_may.jpg"
NA,"E_M_Martin_Freeman.jpg","P_F_hillary_clinton.jpg",NA,NA,NA,NA,NA,"0.443",NA,NA,NA,NA,NA,NA,NA,NA,NA,NA,FALSE,"CLIP_res","E_M_Martin_Freeman.jpg P_F_hillary_clinton.jpg"
NA,"E_M_Martin_Freeman.jpg","P_M_Tony_Blair.jpg",NA,NA,NA,NA,NA,"0.44",NA,NA,NA,NA,NA,NA,NA,NA,NA,NA,FALSE,"CLIP_res","E_M_Martin_Freeman.jpg P_M_Tony_Blair.jpg"
NA,"E_M_Martin_Freeman.jpg","E_M_nicolas_cage.jpg",NA,NA,NA,NA,NA,"0.3613",NA,NA,NA,NA,NA,NA,NA,NA,NA,NA,FALSE,"CLIP_res","E_M_Martin_Freeman.jpg E_M_nicolas_cage.jpg"
NA,"E_F_angelina_jolie.jpg","E_M_anthony_hopkins.jpg",NA,NA,NA,NA,NA,"0.4126",NA,NA,NA,NA,NA,NA,NA,NA,NA,NA,FALSE,"CLIP_res","E_F_angelina_jolie.jpg E_M_anthony_hopkins.jpg"
NA,"E_F_angelina_jolie.jpg","P_F_nicola_sturgeon.jpg",NA,NA,NA,NA,NA,"0.392",NA,NA,NA,NA,NA,NA,NA,NA,NA,NA,FALSE,"CLIP_res","E_F_angelina_jolie.jpg P_F_nicola_sturgeon.jpg"
NA,"E_F_angelina_jolie.jpg","E_M_michael_caine.jpg",NA,NA,NA,NA,NA,"0.495",NA,NA,NA,NA,NA,NA,NA,NA,NA,NA,FALSE,"CLIP_res","E_F_angelina_jolie.jpg E_M_michael_caine.jpg"
NA,"E_F_angelina_jolie.jpg","E_M_robert_de_niro.jpg",NA,NA,NA,NA,NA,"0.418",NA,NA,NA,NA,NA,NA,NA,NA,NA,NA,FALSE,"CLIP_res","E_F_angelina_jolie.jpg E_M_robert_de_niro.jpg"
NA,"E_F_angelina_jolie.jpg","E_F_Kate_Winslet.jpg",NA,NA,NA,NA,NA,"0.221",NA,NA,NA,NA,NA,NA,NA,NA,NA,NA,FALSE,"CLIP_res","E_F_angelina_jolie.jpg E_F_Kate_Winslet.jpg"
NA,"E_F_angelina_jolie.jpg","E_M_Hugh_Grant.jpg",NA,NA,NA,NA,NA,"0.433",NA,NA,NA,NA,NA,NA,NA,NA,NA,NA,FALSE,"CLIP_res","E_F_angelina_jolie.jpg E_M_Hugh_Grant.jpg"
NA,"E_F_angelina_jolie.jpg","P_M_donald_trump.jpg",NA,NA,NA,NA,NA,"0.345",NA,NA,NA,NA,NA,NA,NA,NA,NA,NA,FALSE,"CLIP_res","E_F_angelina_jolie.jpg P_M_donald_trump.jpg"
NA,"E_F_angelina_jolie.jpg","E_M_liam_neeson.jpg",NA,NA,NA,NA,NA,"0.3306",NA,NA,NA,NA,NA,NA,NA,NA,NA,NA,FALSE,"CLIP_res","E_F_angelina_jolie.jpg E_M_liam_neeson.jpg"
NA,"E_F_angelina_jolie.jpg","P_M_boris_johnson.jpg",NA,NA,NA,NA,NA,"0.3726",NA,NA,NA,NA,NA,NA,NA,NA,NA,NA,FALSE,"CLIP_res","E_F_angelina_jolie.jpg P_M_boris_johnson.jpg"
NA,"E_F_angelina_jolie.jpg","E_M_tom_hankes.jpg",NA,NA,NA,NA,NA,"0.2627",NA,NA,NA,NA,NA,NA,NA,NA,NA,NA,FALSE,"CLIP_res","E_F_angelina_jolie.jpg E_M_tom_hankes.jpg"
NA,"E_F_angelina_jolie.jpg","P_F_tehresy_may.jpg",NA,NA,NA,NA,NA,"0.385",NA,NA,NA,NA,NA,NA,NA,NA,NA,NA,FALSE,"CLIP_res","E_F_angelina_jolie.jpg P_F_tehresy_may.jpg"
NA,"E_F_angelina_jolie.jpg","P_F_hillary_clinton.jpg",NA,NA,NA,NA,NA,"0.3003",NA,NA,NA,NA,NA,NA,NA,NA,NA,NA,FALSE,"CLIP_res","E_F_angelina_jolie.jpg P_F_hillary_clinton.jpg"
NA,"E_F_angelina_jolie.jpg","P_M_Tony_Blair.jpg",NA,NA,NA,NA,NA,"0.4165",NA,NA,NA,NA,NA,NA,NA,NA,NA,NA,FALSE,"CLIP_res","E_F_angelina_jolie.jpg P_M_Tony_Blair.jpg"
NA,"E_F_angelina_jolie.jpg","E_M_nicolas_cage.jpg",NA,NA,NA,NA,NA,"0.3433",NA,NA,NA,NA,NA,NA,NA,NA,NA,NA,FALSE,"CLIP_res","E_F_angelina_jolie.jpg E_M_nicolas_cage.jpg"
NA,"E_M_anthony_hopkins.jpg","P_F_nicola_sturgeon.jpg",NA,NA,NA,NA,NA,"0.4893",NA,NA,NA,NA,NA,NA,NA,NA,NA,NA,FALSE,"CLIP_res","E_M_anthony_hopkins.jpg P_F_nicola_sturgeon.jpg"
NA,"E_M_anthony_hopkins.jpg","E_M_michael_caine.jpg",NA,NA,NA,NA,NA,"0.2017",NA,NA,NA,NA,NA,NA,NA,NA,NA,NA,FALSE,"CLIP_res","E_M_anthony_hopkins.jpg E_M_michael_caine.jpg"
NA,"E_M_anthony_hopkins.jpg","E_M_robert_de_niro.jpg",NA,NA,NA,NA,NA,"0.423",NA,NA,NA,NA,NA,NA,NA,NA,NA,NA,FALSE,"CLIP_res","E_M_anthony_hopkins.jpg E_M_robert_de_niro.jpg"
NA,"E_M_anthony_hopkins.jpg","E_F_Kate_Winslet.jpg",NA,NA,NA,NA,NA,"0.4644",NA,NA,NA,NA,NA,NA,NA,NA,NA,NA,FALSE,"CLIP_res","E_F_Kate_Winslet.jpg E_M_anthony_hopkins.jpg"
NA,"E_M_anthony_hopkins.jpg","E_M_Hugh_Grant.jpg",NA,NA,NA,NA,NA,"0.387",NA,NA,NA,NA,NA,NA,NA,NA,NA,NA,FALSE,"CLIP_res","E_M_anthony_hopkins.jpg E_M_Hugh_Grant.jpg"
NA,"E_M_anthony_hopkins.jpg","P_M_donald_trump.jpg",NA,NA,NA,NA,NA,"0.4355",NA,NA,NA,NA,NA,NA,NA,NA,NA,NA,FALSE,"CLIP_res","E_M_anthony_hopkins.jpg P_M_donald_trump.jpg"
NA,"E_M_anthony_hopkins.jpg","E_M_liam_neeson.jpg",NA,NA,NA,NA,NA,"0.409",NA,NA,NA,NA,NA,NA,NA,NA,NA,NA,FALSE,"CLIP_res","E_M_anthony_hopkins.jpg E_M_liam_neeson.jpg"
NA,"E_M_anthony_hopkins.jpg","P_M_boris_johnson.jpg",NA,NA,NA,NA,NA,"0.3975",NA,NA,NA,NA,NA,NA,NA,NA,NA,NA,FALSE,"CLIP_res","E_M_anthony_hopkins.jpg P_M_boris_johnson.jpg"
NA,"E_M_anthony_hopkins.jpg","E_M_tom_hankes.jpg",NA,NA,NA,NA,NA,"0.3135",NA,NA,NA,NA,NA,NA,NA,NA,NA,NA,FALSE,"CLIP_res","E_M_anthony_hopkins.jpg E_M_tom_hankes.jpg"
NA,"E_M_anthony_hopkins.jpg","P_F_tehresy_may.jpg",NA,NA,NA,NA,NA,"0.4663",NA,NA,NA,NA,NA,NA,NA,NA,NA,NA,FALSE,"CLIP_res","E_M_anthony_hopkins.jpg P_F_tehresy_may.jpg"
NA,"E_M_anthony_hopkins.jpg","P_F_hillary_clinton.jpg",NA,NA,NA,NA,NA,"0.4746",NA,NA,NA,NA,NA,NA,NA,NA,NA,NA,FALSE,"CLIP_res","E_M_anthony_hopkins.jpg P_F_hillary_clinton.jpg"
NA,"E_M_anthony_hopkins.jpg","P_M_Tony_Blair.jpg",NA,NA,NA,NA,NA,"0.4067",NA,NA,NA,NA,NA,NA,NA,NA,NA,NA,FALSE,"CLIP_res","E_M_anthony_hopkins.jpg P_M_Tony_Blair.jpg"
NA,"E_M_anthony_hopkins.jpg","E_M_nicolas_cage.jpg",NA,NA,NA,NA,NA,"0.423",NA,NA,NA,NA,NA,NA,NA,NA,NA,NA,FALSE,"CLIP_res","E_M_anthony_hopkins.jpg E_M_nicolas_cage.jpg"
NA,"P_F_nicola_sturgeon.jpg","E_M_michael_caine.jpg",NA,NA,NA,NA,NA,"0.5757",NA,NA,NA,NA,NA,NA,NA,NA,NA,NA,FALSE,"CLIP_res","E_M_michael_caine.jpg P_F_nicola_sturgeon.jpg"
NA,"P_F_nicola_sturgeon.jpg","E_M_robert_de_niro.jpg",NA,NA,NA,NA,NA,"0.563",NA,NA,NA,NA,NA,NA,NA,NA,NA,NA,FALSE,"CLIP_res","E_M_robert_de_niro.jpg P_F_nicola_sturgeon.jpg"
NA,"P_F_nicola_sturgeon.jpg","E_F_Kate_Winslet.jpg",NA,NA,NA,NA,NA,"0.521",NA,NA,NA,NA,NA,NA,NA,NA,NA,NA,FALSE,"CLIP_res","E_F_Kate_Winslet.jpg P_F_nicola_sturgeon.jpg"
NA,"P_F_nicola_sturgeon.jpg","E_M_Hugh_Grant.jpg",NA,NA,NA,NA,NA,"0.553",NA,NA,NA,NA,NA,NA,NA,NA,NA,NA,FALSE,"CLIP_res","E_M_Hugh_Grant.jpg P_F_nicola_sturgeon.jpg"
NA,"P_F_nicola_sturgeon.jpg","P_M_donald_trump.jpg",NA,NA,NA,NA,NA,"0.3613",NA,NA,NA,NA,NA,NA,NA,NA,NA,NA,FALSE,"CLIP_res","P_F_nicola_sturgeon.jpg P_M_donald_trump.jpg"
NA,"P_F_nicola_sturgeon.jpg","E_M_liam_neeson.jpg",NA,NA,NA,NA,NA,"0.4736",NA,NA,NA,NA,NA,NA,NA,NA,NA,NA,FALSE,"CLIP_res","E_M_liam_neeson.jpg P_F_nicola_sturgeon.jpg"
NA,"P_F_nicola_sturgeon.jpg","P_M_boris_johnson.jpg",NA,NA,NA,NA,NA,"0.288",NA,NA,NA,NA,NA,NA,NA,NA,NA,NA,FALSE,"CLIP_res","P_F_nicola_sturgeon.jpg P_M_boris_johnson.jpg"
NA,"P_F_nicola_sturgeon.jpg","E_M_tom_hankes.jpg",NA,NA,NA,NA,NA,"0.4717",NA,NA,NA,NA,NA,NA,NA,NA,NA,NA,FALSE,"CLIP_res","E_M_tom_hankes.jpg P_F_nicola_sturgeon.jpg"
NA,"P_F_nicola_sturgeon.jpg","P_F_tehresy_may.jpg",NA,NA,NA,NA,NA,"0.235",NA,NA,NA,NA,NA,NA,NA,NA,NA,NA,FALSE,"CLIP_res","P_F_nicola_sturgeon.jpg P_F_tehresy_may.jpg"
NA,"P_F_nicola_sturgeon.jpg","P_F_hillary_clinton.jpg",NA,NA,NA,NA,NA,"0.2905",NA,NA,NA,NA,NA,NA,NA,NA,NA,NA,FALSE,"CLIP_res","P_F_hillary_clinton.jpg P_F_nicola_sturgeon.jpg"
NA,"P_F_nicola_sturgeon.jpg","P_M_Tony_Blair.jpg",NA,NA,NA,NA,NA,"0.311",NA,NA,NA,NA,NA,NA,NA,NA,NA,NA,FALSE,"CLIP_res","P_F_nicola_sturgeon.jpg P_M_Tony_Blair.jpg"
NA,"P_F_nicola_sturgeon.jpg","E_M_nicolas_cage.jpg",NA,NA,NA,NA,NA,"0.4795",NA,NA,NA,NA,NA,NA,NA,NA,NA,NA,FALSE,"CLIP_res","E_M_nicolas_cage.jpg P_F_nicola_sturgeon.jpg"
NA,"E_M_michael_caine.jpg","E_M_robert_de_niro.jpg",NA,NA,NA,NA,NA,"0.4155",NA,NA,NA,NA,NA,NA,NA,NA,NA,NA,FALSE,"CLIP_res","E_M_michael_caine.jpg E_M_robert_de_niro.jpg"
NA,"E_M_michael_caine.jpg","E_F_Kate_Winslet.jpg",NA,NA,NA,NA,NA,"0.528",NA,NA,NA,NA,NA,NA,NA,NA,NA,NA,FALSE,"CLIP_res","E_F_Kate_Winslet.jpg E_M_michael_caine.jpg"
NA,"E_M_michael_caine.jpg","E_M_Hugh_Grant.jpg",NA,NA,NA,NA,NA,"0.4224",NA,NA,NA,NA,NA,NA,NA,NA,NA,NA,FALSE,"CLIP_res","E_M_Hugh_Grant.jpg E_M_michael_caine.jpg"
NA,"E_M_michael_caine.jpg","P_M_donald_trump.jpg",NA,NA,NA,NA,NA,"0.453",NA,NA,NA,NA,NA,NA,NA,NA,NA,NA,FALSE,"CLIP_res","E_M_michael_caine.jpg P_M_donald_trump.jpg"
NA,"E_M_michael_caine.jpg","E_M_liam_neeson.jpg",NA,NA,NA,NA,NA,"0.525",NA,NA,NA,NA,NA,NA,NA,NA,NA,NA,FALSE,"CLIP_res","E_M_liam_neeson.jpg E_M_michael_caine.jpg"
NA,"E_M_michael_caine.jpg","P_M_boris_johnson.jpg",NA,NA,NA,NA,NA,"0.488",NA,NA,NA,NA,NA,NA,NA,NA,NA,NA,FALSE,"CLIP_res","E_M_michael_caine.jpg P_M_boris_johnson.jpg"
NA,"E_M_michael_caine.jpg","E_M_tom_hankes.jpg",NA,NA,NA,NA,NA,"0.361",NA,NA,NA,NA,NA,NA,NA,NA,NA,NA,FALSE,"CLIP_res","E_M_michael_caine.jpg E_M_tom_hankes.jpg"
NA,"E_M_michael_caine.jpg","P_F_tehresy_may.jpg",NA,NA,NA,NA,NA,"0.5405",NA,NA,NA,NA,NA,NA,NA,NA,NA,NA,FALSE,"CLIP_res","E_M_michael_caine.jpg P_F_tehresy_may.jpg"
NA,"E_M_michael_caine.jpg","P_F_hillary_clinton.jpg",NA,NA,NA,NA,NA,"0.4766",NA,NA,NA,NA,NA,NA,NA,NA,NA,NA,FALSE,"CLIP_res","E_M_michael_caine.jpg P_F_hillary_clinton.jpg"
NA,"E_M_michael_caine.jpg","P_M_Tony_Blair.jpg",NA,NA,NA,NA,NA,"0.4404",NA,NA,NA,NA,NA,NA,NA,NA,NA,NA,FALSE,"CLIP_res","E_M_michael_caine.jpg P_M_Tony_Blair.jpg"
NA,"E_M_michael_caine.jpg","E_M_nicolas_cage.jpg",NA,NA,NA,NA,NA,"0.446",NA,NA,NA,NA,NA,NA,NA,NA,NA,NA,FALSE,"CLIP_res","E_M_michael_caine.jpg E_M_nicolas_cage.jpg"
NA,"E_M_robert_de_niro.jpg","E_F_Kate_Winslet.jpg",NA,NA,NA,NA,NA,"0.4487",NA,NA,NA,NA,NA,NA,NA,NA,NA,NA,FALSE,"CLIP_res","E_F_Kate_Winslet.jpg E_M_robert_de_niro.jpg"
NA,"E_M_robert_de_niro.jpg","E_M_Hugh_Grant.jpg",NA,NA,NA,NA,NA,"0.4688",NA,NA,NA,NA,NA,NA,NA,NA,NA,NA,FALSE,"CLIP_res","E_M_Hugh_Grant.jpg E_M_robert_de_niro.jpg"
NA,"E_M_robert_de_niro.jpg","P_M_donald_trump.jpg",NA,NA,NA,NA,NA,"0.49",NA,NA,NA,NA,NA,NA,NA,NA,NA,NA,FALSE,"CLIP_res","E_M_robert_de_niro.jpg P_M_donald_trump.jpg"
NA,"E_M_robert_de_niro.jpg","E_M_liam_neeson.jpg",NA,NA,NA,NA,NA,"0.444",NA,NA,NA,NA,NA,NA,NA,NA,NA,NA,FALSE,"CLIP_res","E_M_liam_neeson.jpg E_M_robert_de_niro.jpg"
NA,"E_M_robert_de_niro.jpg","P_M_boris_johnson.jpg",NA,NA,NA,NA,NA,"0.5078",NA,NA,NA,NA,NA,NA,NA,NA,NA,NA,FALSE,"CLIP_res","E_M_robert_de_niro.jpg P_M_boris_johnson.jpg"
NA,"E_M_robert_de_niro.jpg","E_M_tom_hankes.jpg",NA,NA,NA,NA,NA,"0.2744",NA,NA,NA,NA,NA,NA,NA,NA,NA,NA,FALSE,"CLIP_res","E_M_robert_de_niro.jpg E_M_tom_hankes.jpg"
NA,"E_M_robert_de_niro.jpg","P_F_tehresy_may.jpg",NA,NA,NA,NA,NA,"0.5598",NA,NA,NA,NA,NA,NA,NA,NA,NA,NA,FALSE,"CLIP_res","E_M_robert_de_niro.jpg P_F_tehresy_may.jpg"
NA,"E_M_robert_de_niro.jpg","P_F_hillary_clinton.jpg",NA,NA,NA,NA,NA,"0.492",NA,NA,NA,NA,NA,NA,NA,NA,NA,NA,FALSE,"CLIP_res","E_M_robert_de_niro.jpg P_F_hillary_clinton.jpg"
NA,"E_M_robert_de_niro.jpg","P_M_Tony_Blair.jpg",NA,NA,NA,NA,NA,"0.459",NA,NA,NA,NA,NA,NA,NA,NA,NA,NA,FALSE,"CLIP_res","E_M_robert_de_niro.jpg P_M_Tony_Blair.jpg"
NA,"E_M_robert_de_niro.jpg","E_M_nicolas_cage.jpg",NA,NA,NA,NA,NA,"0.38",NA,NA,NA,NA,NA,NA,NA,NA,NA,NA,FALSE,"CLIP_res","E_M_nicolas_cage.jpg E_M_robert_de_niro.jpg"
NA,"E_F_Kate_Winslet.jpg","E_M_Hugh_Grant.jpg",NA,NA,NA,NA,NA,"0.4487",NA,NA,NA,NA,NA,NA,NA,NA,NA,NA,FALSE,"CLIP_res","E_F_Kate_Winslet.jpg E_M_Hugh_Grant.jpg"
NA,"E_F_Kate_Winslet.jpg","P_M_donald_trump.jpg",NA,NA,NA,NA,NA,"0.476",NA,NA,NA,NA,NA,NA,NA,NA,NA,NA,FALSE,"CLIP_res","E_F_Kate_Winslet.jpg P_M_donald_trump.jpg"
NA,"E_F_Kate_Winslet.jpg","E_M_liam_neeson.jpg",NA,NA,NA,NA,NA,"0.4326",NA,NA,NA,NA,NA,NA,NA,NA,NA,NA,FALSE,"CLIP_res","E_F_Kate_Winslet.jpg E_M_liam_neeson.jpg"
NA,"E_F_Kate_Winslet.jpg","P_M_boris_johnson.jpg",NA,NA,NA,NA,NA,"0.5127",NA,NA,NA,NA,NA,NA,NA,NA,NA,NA,FALSE,"CLIP_res","E_F_Kate_Winslet.jpg P_M_boris_johnson.jpg"
NA,"E_F_Kate_Winslet.jpg","E_M_tom_hankes.jpg",NA,NA,NA,NA,NA,"0.3184",NA,NA,NA,NA,NA,NA,NA,NA,NA,NA,FALSE,"CLIP_res","E_F_Kate_Winslet.jpg E_M_tom_hankes.jpg"
NA,"E_F_Kate_Winslet.jpg","P_F_tehresy_may.jpg",NA,NA,NA,NA,NA,"0.5183",NA,NA,NA,NA,NA,NA,NA,NA,NA,NA,FALSE,"CLIP_res","E_F_Kate_Winslet.jpg P_F_tehresy_may.jpg"
NA,"E_F_Kate_Winslet.jpg","P_F_hillary_clinton.jpg",NA,NA,NA,NA,NA,"0.394",NA,NA,NA,NA,NA,NA,NA,NA,NA,NA,FALSE,"CLIP_res","E_F_Kate_Winslet.jpg P_F_hillary_clinton.jpg"
NA,"E_F_Kate_Winslet.jpg","P_M_Tony_Blair.jpg",NA,NA,NA,NA,NA,"0.5317",NA,NA,NA,NA,NA,NA,NA,NA,NA,NA,FALSE,"CLIP_res","E_F_Kate_Winslet.jpg P_M_Tony_Blair.jpg"
NA,"E_F_Kate_Winslet.jpg","E_M_nicolas_cage.jpg",NA,NA,NA,NA,NA,"0.4272",NA,NA,NA,NA,NA,NA,NA,NA,NA,NA,FALSE,"CLIP_res","E_F_Kate_Winslet.jpg E_M_nicolas_cage.jpg"
NA,"E_M_Hugh_Grant.jpg","P_M_donald_trump.jpg",NA,NA,NA,NA,NA,"0.5215",NA,NA,NA,NA,NA,NA,NA,NA,NA,NA,FALSE,"CLIP_res","E_M_Hugh_Grant.jpg P_M_donald_trump.jpg"
NA,"E_M_Hugh_Grant.jpg","E_M_liam_neeson.jpg",NA,NA,NA,NA,NA,"0.38",NA,NA,NA,NA,NA,NA,NA,NA,NA,NA,FALSE,"CLIP_res","E_M_Hugh_Grant.jpg E_M_liam_neeson.jpg"
NA,"E_M_Hugh_Grant.jpg","P_M_boris_johnson.jpg",NA,NA,NA,NA,NA,"0.4443",NA,NA,NA,NA,NA,NA,NA,NA,NA,NA,FALSE,"CLIP_res","E_M_Hugh_Grant.jpg P_M_boris_johnson.jpg"
NA,"E_M_Hugh_Grant.jpg","E_M_tom_hankes.jpg",NA,NA,NA,NA,NA,"0.4087",NA,NA,NA,NA,NA,NA,NA,NA,NA,NA,FALSE,"CLIP_res","E_M_Hugh_Grant.jpg E_M_tom_hankes.jpg"
NA,"E_M_Hugh_Grant.jpg","P_F_tehresy_may.jpg",NA,NA,NA,NA,NA,"0.603",NA,NA,NA,NA,NA,NA,NA,NA,NA,NA,FALSE,"CLIP_res","E_M_Hugh_Grant.jpg P_F_tehresy_may.jpg"
NA,"E_M_Hugh_Grant.jpg","P_F_hillary_clinton.jpg",NA,NA,NA,NA,NA,"0.514",NA,NA,NA,NA,NA,NA,NA,NA,NA,NA,FALSE,"CLIP_res","E_M_Hugh_Grant.jpg P_F_hillary_clinton.jpg"
NA,"E_M_Hugh_Grant.jpg","P_M_Tony_Blair.jpg",NA,NA,NA,NA,NA,"0.5305",NA,NA,NA,NA,NA,NA,NA,NA,NA,NA,FALSE,"CLIP_res","E_M_Hugh_Grant.jpg P_M_Tony_Blair.jpg"
NA,"E_M_Hugh_Grant.jpg","E_M_nicolas_cage.jpg",NA,NA,NA,NA,NA,"0.3955",NA,NA,NA,NA,NA,NA,NA,NA,NA,NA,FALSE,"CLIP_res","E_M_Hugh_Grant.jpg E_M_nicolas_cage.jpg"
NA,"P_M_donald_trump.jpg","E_M_liam_neeson.jpg",NA,NA,NA,NA,NA,"0.3867",NA,NA,NA,NA,NA,NA,NA,NA,NA,NA,FALSE,"CLIP_res","E_M_liam_neeson.jpg P_M_donald_trump.jpg"
NA,"P_M_donald_trump.jpg","P_M_boris_johnson.jpg",NA,NA,NA,NA,NA,"0.253",NA,NA,NA,NA,NA,NA,NA,NA,NA,NA,FALSE,"CLIP_res","P_M_boris_johnson.jpg P_M_donald_trump.jpg"
NA,"P_M_donald_trump.jpg","E_M_tom_hankes.jpg",NA,NA,NA,NA,NA,"0.349",NA,NA,NA,NA,NA,NA,NA,NA,NA,NA,FALSE,"CLIP_res","E_M_tom_hankes.jpg P_M_donald_trump.jpg"
NA,"P_M_donald_trump.jpg","P_F_tehresy_may.jpg",NA,NA,NA,NA,NA,"0.2817",NA,NA,NA,NA,NA,NA,NA,NA,NA,NA,FALSE,"CLIP_res","P_F_tehresy_may.jpg P_M_donald_trump.jpg"
NA,"P_M_donald_trump.jpg","P_F_hillary_clinton.jpg",NA,NA,NA,NA,NA,"0.21",NA,NA,NA,NA,NA,NA,NA,NA,NA,NA,FALSE,"CLIP_res","P_F_hillary_clinton.jpg P_M_donald_trump.jpg"
NA,"P_M_donald_trump.jpg","P_M_Tony_Blair.jpg",NA,NA,NA,NA,NA,"0.352",NA,NA,NA,NA,NA,NA,NA,NA,NA,NA,FALSE,"CLIP_res","P_M_donald_trump.jpg P_M_Tony_Blair.jpg"
NA,"P_M_donald_trump.jpg","E_M_nicolas_cage.jpg",NA,NA,NA,NA,NA,"0.3687",NA,NA,NA,NA,NA,NA,NA,NA,NA,NA,FALSE,"CLIP_res","E_M_nicolas_cage.jpg P_M_donald_trump.jpg"
NA,"E_M_liam_neeson.jpg","P_M_boris_johnson.jpg",NA,NA,NA,NA,NA,"0.383",NA,NA,NA,NA,NA,NA,NA,NA,NA,NA,FALSE,"CLIP_res","E_M_liam_neeson.jpg P_M_boris_johnson.jpg"
NA,"E_M_liam_neeson.jpg","E_M_tom_hankes.jpg",NA,NA,NA,NA,NA,"0.334",NA,NA,NA,NA,NA,NA,NA,NA,NA,NA,FALSE,"CLIP_res","E_M_liam_neeson.jpg E_M_tom_hankes.jpg"
NA,"E_M_liam_neeson.jpg","P_F_tehresy_may.jpg",NA,NA,NA,NA,NA,"0.514",NA,NA,NA,NA,NA,NA,NA,NA,NA,NA,FALSE,"CLIP_res","E_M_liam_neeson.jpg P_F_tehresy_may.jpg"
NA,"E_M_liam_neeson.jpg","P_F_hillary_clinton.jpg",NA,NA,NA,NA,NA,"0.4",NA,NA,NA,NA,NA,NA,NA,NA,NA,NA,FALSE,"CLIP_res","E_M_liam_neeson.jpg P_F_hillary_clinton.jpg"
NA,"E_M_liam_neeson.jpg","P_M_Tony_Blair.jpg",NA,NA,NA,NA,NA,"0.4917",NA,NA,NA,NA,NA,NA,NA,NA,NA,NA,FALSE,"CLIP_res","E_M_liam_neeson.jpg P_M_Tony_Blair.jpg"
NA,"E_M_liam_neeson.jpg","E_M_nicolas_cage.jpg",NA,NA,NA,NA,NA,"0.3193",NA,NA,NA,NA,NA,NA,NA,NA,NA,NA,FALSE,"CLIP_res","E_M_liam_neeson.jpg E_M_nicolas_cage.jpg"
NA,"P_M_boris_johnson.jpg","E_M_tom_hankes.jpg",NA,NA,NA,NA,NA,"0.391",NA,NA,NA,NA,NA,NA,NA,NA,NA,NA,FALSE,"CLIP_res","E_M_tom_hankes.jpg P_M_boris_johnson.jpg"
NA,"P_M_boris_johnson.jpg","P_F_tehresy_may.jpg",NA,NA,NA,NA,NA,"0.2476",NA,NA,NA,NA,NA,NA,NA,NA,NA,NA,FALSE,"CLIP_res","P_F_tehresy_may.jpg P_M_boris_johnson.jpg"
NA,"P_M_boris_johnson.jpg","P_F_hillary_clinton.jpg",NA,NA,NA,NA,NA,"0.334",NA,NA,NA,NA,NA,NA,NA,NA,NA,NA,FALSE,"CLIP_res","P_F_hillary_clinton.jpg P_M_boris_johnson.jpg"
NA,"P_M_boris_johnson.jpg","P_M_Tony_Blair.jpg",NA,NA,NA,NA,NA,"0.259",NA,NA,NA,NA,NA,NA,NA,NA,NA,NA,FALSE,"CLIP_res","P_M_boris_johnson.jpg P_M_Tony_Blair.jpg"
NA,"P_M_boris_johnson.jpg","E_M_nicolas_cage.jpg",NA,NA,NA,NA,NA,"0.417",NA,NA,NA,NA,NA,NA,NA,NA,NA,NA,FALSE,"CLIP_res","E_M_nicolas_cage.jpg P_M_boris_johnson.jpg"
NA,"E_M_tom_hankes.jpg","P_F_tehresy_may.jpg",NA,NA,NA,NA,NA,"0.4453",NA,NA,NA,NA,NA,NA,NA,NA,NA,NA,FALSE,"CLIP_res","E_M_tom_hankes.jpg P_F_tehresy_may.jpg"
NA,"E_M_tom_hankes.jpg","P_F_hillary_clinton.jpg",NA,NA,NA,NA,NA,"0.369",NA,NA,NA,NA,NA,NA,NA,NA,NA,NA,FALSE,"CLIP_res","E_M_tom_hankes.jpg P_F_hillary_clinton.jpg"
NA,"E_M_tom_hankes.jpg","P_M_Tony_Blair.jpg",NA,NA,NA,NA,NA,"0.3896",NA,NA,NA,NA,NA,NA,NA,NA,NA,NA,FALSE,"CLIP_res","E_M_tom_hankes.jpg P_M_Tony_Blair.jpg"
NA,"E_M_tom_hankes.jpg","E_M_nicolas_cage.jpg",NA,NA,NA,NA,NA,"0.241",NA,NA,NA,NA,NA,NA,NA,NA,NA,NA,FALSE,"CLIP_res","E_M_nicolas_cage.jpg E_M_tom_hankes.jpg"
NA,"P_F_tehresy_may.jpg","P_F_hillary_clinton.jpg",NA,NA,NA,NA,NA,"0.3267",NA,NA,NA,NA,NA,NA,NA,NA,NA,NA,FALSE,"CLIP_res","P_F_hillary_clinton.jpg P_F_tehresy_may.jpg"
NA,"P_F_tehresy_may.jpg","P_M_Tony_Blair.jpg",NA,NA,NA,NA,NA,"0.285",NA,NA,NA,NA,NA,NA,NA,NA,NA,NA,FALSE,"CLIP_res","P_F_tehresy_may.jpg P_M_Tony_Blair.jpg"
NA,"P_F_tehresy_may.jpg","E_M_nicolas_cage.jpg",NA,NA,NA,NA,NA,"0.5386",NA,NA,NA,NA,NA,NA,NA,NA,NA,NA,FALSE,"CLIP_res","E_M_nicolas_cage.jpg P_F_tehresy_may.jpg"
NA,"P_F_hillary_clinton.jpg","P_M_Tony_Blair.jpg",NA,NA,NA,NA,NA,"0.3716",NA,NA,NA,NA,NA,NA,NA,NA,NA,NA,FALSE,"CLIP_res","P_F_hillary_clinton.jpg P_M_Tony_Blair.jpg"
NA,"P_F_hillary_clinton.jpg","E_M_nicolas_cage.jpg",NA,NA,NA,NA,NA,"0.3843",NA,NA,NA,NA,NA,NA,NA,NA,NA,NA,FALSE,"CLIP_res","E_M_nicolas_cage.jpg P_F_hillary_clinton.jpg"
NA,"P_M_Tony_Blair.jpg","E_M_nicolas_cage.jpg",NA,NA,NA,NA,NA,"0.4624",NA,NA,NA,NA,NA,NA,NA,NA,NA,NA,FALSE,"CLIP_res","E_M_nicolas_cage.jpg P_M_Tony_Blair.jpg"
NA,"E_F_angelina_jolie.jpg","E_F_jennifer_aniston.jpg",NA,NA,NA,NA,NA,"0.269164621829987",NA,NA,NA,NA,NA,NA,NA,NA,NA,NA,FALSE,"SGPT","E_F_angelina_jolie.jpg E_F_jennifer_aniston.jpg"
NA,"E_F_angelina_jolie.jpg","E_F_Judi_Dench.jpg",NA,NA,NA,NA,NA,"0.308781981468201",NA,NA,NA,NA,NA,NA,NA,NA,NA,NA,FALSE,"SGPT","E_F_angelina_jolie.jpg E_F_Judi_Dench.jpg"
NA,"E_F_angelina_jolie.jpg","E_F_Kate_Winslet.jpg",NA,NA,NA,NA,NA,"0.344168782234192",NA,NA,NA,NA,NA,NA,NA,NA,NA,NA,FALSE,"SGPT","E_F_angelina_jolie.jpg E_F_Kate_Winslet.jpg"
NA,"E_F_angelina_jolie.jpg","E_F_keira_knightley.jpg",NA,NA,NA,NA,NA,"0.303820908069611",NA,NA,NA,NA,NA,NA,NA,NA,NA,NA,FALSE,"SGPT","E_F_angelina_jolie.jpg E_F_keira_knightley.jpg"
NA,"E_F_angelina_jolie.jpg","E_F_sandra_bullock.jpg",NA,NA,NA,NA,NA,"0.227736115455627",NA,NA,NA,NA,NA,NA,NA,NA,NA,NA,FALSE,"SGPT","E_F_angelina_jolie.jpg E_F_sandra_bullock.jpg"
NA,"E_F_angelina_jolie.jpg","E_M_anthony_hopkins.jpg",NA,NA,NA,NA,NA,"0.44340044260025",NA,NA,NA,NA,NA,NA,NA,NA,NA,NA,FALSE,"SGPT","E_F_angelina_jolie.jpg E_M_anthony_hopkins.jpg"
NA,"E_F_angelina_jolie.jpg","E_M_Hugh_Grant.jpg",NA,NA,NA,NA,NA,"0.462071597576141",NA,NA,NA,NA,NA,NA,NA,NA,NA,NA,FALSE,"SGPT","E_F_angelina_jolie.jpg E_M_Hugh_Grant.jpg"
NA,"E_F_angelina_jolie.jpg","E_M_liam_neeson.jpg",NA,NA,NA,NA,NA,"0.402201175689697",NA,NA,NA,NA,NA,NA,NA,NA,NA,NA,FALSE,"SGPT","E_F_angelina_jolie.jpg E_M_liam_neeson.jpg"
NA,"E_F_angelina_jolie.jpg","E_M_Martin_Freeman.jpg",NA,NA,NA,NA,NA,"0.38415253162384",NA,NA,NA,NA,NA,NA,NA,NA,NA,NA,FALSE,"SGPT","E_F_angelina_jolie.jpg E_M_Martin_Freeman.jpg"
NA,"E_F_angelina_jolie.jpg","E_M_michael_caine.jpg",NA,NA,NA,NA,NA,"0.433677613735199",NA,NA,NA,NA,NA,NA,NA,NA,NA,NA,FALSE,"SGPT","E_F_angelina_jolie.jpg E_M_michael_caine.jpg"
NA,"E_F_angelina_jolie.jpg","E_M_nicolas_cage.jpg",NA,NA,NA,NA,NA,"0.363867044448853",NA,NA,NA,NA,NA,NA,NA,NA,NA,NA,FALSE,"SGPT","E_F_angelina_jolie.jpg E_M_nicolas_cage.jpg"
NA,"E_F_angelina_jolie.jpg","E_M_robert_de_niro.jpg",NA,NA,NA,NA,NA,"0.396953046321869",NA,NA,NA,NA,NA,NA,NA,NA,NA,NA,FALSE,"SGPT","E_F_angelina_jolie.jpg E_M_robert_de_niro.jpg"
NA,"E_F_angelina_jolie.jpg","E_M_tom_hankes.jpg",NA,NA,NA,NA,NA,"0.403688430786133",NA,NA,NA,NA,NA,NA,NA,NA,NA,NA,FALSE,"SGPT","E_F_angelina_jolie.jpg E_M_tom_hankes.jpg"
NA,"E_F_angelina_jolie.jpg","P_F_angela_rayner.jpg",NA,NA,NA,NA,NA,"0.629345715045929",NA,NA,NA,NA,NA,NA,NA,NA,NA,NA,FALSE,"SGPT","E_F_angelina_jolie.jpg P_F_angela_rayner.jpg"
NA,"E_F_angelina_jolie.jpg","P_F_esther_mcvey.jpg",NA,NA,NA,NA,NA,"0.62687075138092",NA,NA,NA,NA,NA,NA,NA,NA,NA,NA,FALSE,"SGPT","E_F_angelina_jolie.jpg P_F_esther_mcvey.jpg"
NA,"E_F_angelina_jolie.jpg","P_F_hillary_clinton.jpg",NA,NA,NA,NA,NA,"0.532930731773376",NA,NA,NA,NA,NA,NA,NA,NA,NA,NA,FALSE,"SGPT","E_F_angelina_jolie.jpg P_F_hillary_clinton.jpg"
NA,"E_F_angelina_jolie.jpg","P_F_nicola_sturgeon.jpg",NA,NA,NA,NA,NA,"0.657759666442871",NA,NA,NA,NA,NA,NA,NA,NA,NA,NA,FALSE,"SGPT","E_F_angelina_jolie.jpg P_F_nicola_sturgeon.jpg"
NA,"E_F_angelina_jolie.jpg","P_F_PRITI_PATEL.jpg",NA,NA,NA,NA,NA,"0.693613469600677",NA,NA,NA,NA,NA,NA,NA,NA,NA,NA,FALSE,"SGPT","E_F_angelina_jolie.jpg P_F_PRITI_PATEL.jpg"
NA,"E_F_angelina_jolie.jpg","P_F_tehresy_may.jpg",NA,NA,NA,NA,NA,"0.673243463039398",NA,NA,NA,NA,NA,NA,NA,NA,NA,NA,FALSE,"SGPT","E_F_angelina_jolie.jpg P_F_tehresy_may.jpg"
NA,"E_F_angelina_jolie.jpg","P_M_bill_clinton.jpg",NA,NA,NA,NA,NA,"0.594695210456848",NA,NA,NA,NA,NA,NA,NA,NA,NA,NA,FALSE,"SGPT","E_F_angelina_jolie.jpg P_M_bill_clinton.jpg"
NA,"E_F_angelina_jolie.jpg","P_M_boris_johnson.jpg",NA,NA,NA,NA,NA,"0.69550496339798",NA,NA,NA,NA,NA,NA,NA,NA,NA,NA,FALSE,"SGPT","E_F_angelina_jolie.jpg P_M_boris_johnson.jpg"
NA,"E_F_angelina_jolie.jpg","P_M_david_cameron.jpg",NA,NA,NA,NA,NA,"0.695063948631287",NA,NA,NA,NA,NA,NA,NA,NA,NA,NA,FALSE,"SGPT","E_F_angelina_jolie.jpg P_M_david_cameron.jpg"
NA,"E_F_angelina_jolie.jpg","P_M_donald_trump.jpg",NA,NA,NA,NA,NA,"0.590064346790314",NA,NA,NA,NA,NA,NA,NA,NA,NA,NA,FALSE,"SGPT","E_F_angelina_jolie.jpg P_M_donald_trump.jpg"
NA,"E_F_angelina_jolie.jpg","P_M_george_Wbush.jpg",NA,NA,NA,NA,NA,"0.655411601066589",NA,NA,NA,NA,NA,NA,NA,NA,NA,NA,FALSE,"SGPT","E_F_angelina_jolie.jpg P_M_george_Wbush.jpg"
NA,"E_F_angelina_jolie.jpg","P_M_Tony_Blair.jpg",NA,NA,NA,NA,NA,"0.707529783248901",NA,NA,NA,NA,NA,NA,NA,NA,NA,NA,FALSE,"SGPT","E_F_angelina_jolie.jpg P_M_Tony_Blair.jpg"
NA,"E_F_jennifer_aniston.jpg","E_F_Judi_Dench.jpg",NA,NA,NA,NA,NA,"0.309327840805054",NA,NA,NA,NA,NA,NA,NA,NA,NA,NA,FALSE,"SGPT","E_F_jennifer_aniston.jpg E_F_Judi_Dench.jpg"
NA,"E_F_jennifer_aniston.jpg","E_F_Kate_Winslet.jpg",NA,NA,NA,NA,NA,"0.358228385448456",NA,NA,NA,NA,NA,NA,NA,NA,NA,NA,FALSE,"SGPT","E_F_jennifer_aniston.jpg E_F_Kate_Winslet.jpg"
NA,"E_F_jennifer_aniston.jpg","E_F_keira_knightley.jpg",NA,NA,NA,NA,NA,"0.282371282577515",NA,NA,NA,NA,NA,NA,NA,NA,NA,NA,FALSE,"SGPT","E_F_jennifer_aniston.jpg E_F_keira_knightley.jpg"
NA,"E_F_jennifer_aniston.jpg","E_F_sandra_bullock.jpg",NA,NA,NA,NA,NA,"0.214899301528931",NA,NA,NA,NA,NA,NA,NA,NA,NA,NA,FALSE,"SGPT","E_F_jennifer_aniston.jpg E_F_sandra_bullock.jpg"
NA,"E_F_jennifer_aniston.jpg","E_M_anthony_hopkins.jpg",NA,NA,NA,NA,NA,"0.480021476745605",NA,NA,NA,NA,NA,NA,NA,NA,NA,NA,FALSE,"SGPT","E_F_jennifer_aniston.jpg E_M_anthony_hopkins.jpg"
NA,"E_F_jennifer_aniston.jpg","E_M_Hugh_Grant.jpg",NA,NA,NA,NA,NA,"0.468197464942932",NA,NA,NA,NA,NA,NA,NA,NA,NA,NA,FALSE,"SGPT","E_F_jennifer_aniston.jpg E_M_Hugh_Grant.jpg"
NA,"E_F_jennifer_aniston.jpg","E_M_liam_neeson.jpg",NA,NA,NA,NA,NA,"0.451897263526917",NA,NA,NA,NA,NA,NA,NA,NA,NA,NA,FALSE,"SGPT","E_F_jennifer_aniston.jpg E_M_liam_neeson.jpg"
NA,"E_F_jennifer_aniston.jpg","E_M_Martin_Freeman.jpg",NA,NA,NA,NA,NA,"0.395540356636047",NA,NA,NA,NA,NA,NA,NA,NA,NA,NA,FALSE,"SGPT","E_F_jennifer_aniston.jpg E_M_Martin_Freeman.jpg"
NA,"E_F_jennifer_aniston.jpg","E_M_michael_caine.jpg",NA,NA,NA,NA,NA,"0.440868616104126",NA,NA,NA,NA,NA,NA,NA,NA,NA,NA,FALSE,"SGPT","E_F_jennifer_aniston.jpg E_M_michael_caine.jpg"
NA,"E_F_jennifer_aniston.jpg","E_M_nicolas_cage.jpg",NA,NA,NA,NA,NA,"0.387652993202209",NA,NA,NA,NA,NA,NA,NA,NA,NA,NA,FALSE,"SGPT","E_F_jennifer_aniston.jpg E_M_nicolas_cage.jpg"
NA,"E_F_jennifer_aniston.jpg","E_M_robert_de_niro.jpg",NA,NA,NA,NA,NA,"0.425128817558289",NA,NA,NA,NA,NA,NA,NA,NA,NA,NA,FALSE,"SGPT","E_F_jennifer_aniston.jpg E_M_robert_de_niro.jpg"
NA,"E_F_jennifer_aniston.jpg","E_M_tom_hankes.jpg",NA,NA,NA,NA,NA,"0.375859081745148",NA,NA,NA,NA,NA,NA,NA,NA,NA,NA,FALSE,"SGPT","E_F_jennifer_aniston.jpg E_M_tom_hankes.jpg"
NA,"E_F_jennifer_aniston.jpg","P_F_angela_rayner.jpg",NA,NA,NA,NA,NA,"0.5081547498703",NA,NA,NA,NA,NA,NA,NA,NA,NA,NA,FALSE,"SGPT","E_F_jennifer_aniston.jpg P_F_angela_rayner.jpg"
NA,"E_F_jennifer_aniston.jpg","P_F_esther_mcvey.jpg",NA,NA,NA,NA,NA,"0.546359956264496",NA,NA,NA,NA,NA,NA,NA,NA,NA,NA,FALSE,"SGPT","E_F_jennifer_aniston.jpg P_F_esther_mcvey.jpg"
NA,"E_F_jennifer_aniston.jpg","P_F_hillary_clinton.jpg",NA,NA,NA,NA,NA,"0.530877768993378",NA,NA,NA,NA,NA,NA,NA,NA,NA,NA,FALSE,"SGPT","E_F_jennifer_aniston.jpg P_F_hillary_clinton.jpg"
NA,"E_F_jennifer_aniston.jpg","P_F_nicola_sturgeon.jpg",NA,NA,NA,NA,NA,"0.522070169448853",NA,NA,NA,NA,NA,NA,NA,NA,NA,NA,FALSE,"SGPT","E_F_jennifer_aniston.jpg P_F_nicola_sturgeon.jpg"
NA,"E_F_jennifer_aniston.jpg","P_F_PRITI_PATEL.jpg",NA,NA,NA,NA,NA,"0.647721529006958",NA,NA,NA,NA,NA,NA,NA,NA,NA,NA,FALSE,"SGPT","E_F_jennifer_aniston.jpg P_F_PRITI_PATEL.jpg"
NA,"E_F_jennifer_aniston.jpg","P_F_tehresy_may.jpg",NA,NA,NA,NA,NA,"0.596727430820465",NA,NA,NA,NA,NA,NA,NA,NA,NA,NA,FALSE,"SGPT","E_F_jennifer_aniston.jpg P_F_tehresy_may.jpg"
NA,"E_F_jennifer_aniston.jpg","P_M_bill_clinton.jpg",NA,NA,NA,NA,NA,"0.597271144390106",NA,NA,NA,NA,NA,NA,NA,NA,NA,NA,FALSE,"SGPT","E_F_jennifer_aniston.jpg P_M_bill_clinton.jpg"
NA,"E_F_jennifer_aniston.jpg","P_M_boris_johnson.jpg",NA,NA,NA,NA,NA,"0.622646152973175",NA,NA,NA,NA,NA,NA,NA,NA,NA,NA,FALSE,"SGPT","E_F_jennifer_aniston.jpg P_M_boris_johnson.jpg"
NA,"E_F_jennifer_aniston.jpg","P_M_david_cameron.jpg",NA,NA,NA,NA,NA,"0.645797729492188",NA,NA,NA,NA,NA,NA,NA,NA,NA,NA,FALSE,"SGPT","E_F_jennifer_aniston.jpg P_M_david_cameron.jpg"
NA,"E_F_jennifer_aniston.jpg","P_M_donald_trump.jpg",NA,NA,NA,NA,NA,"0.601958751678467",NA,NA,NA,NA,NA,NA,NA,NA,NA,NA,FALSE,"SGPT","E_F_jennifer_aniston.jpg P_M_donald_trump.jpg"
NA,"E_F_jennifer_aniston.jpg","P_M_george_Wbush.jpg",NA,NA,NA,NA,NA,"0.667284846305847",NA,NA,NA,NA,NA,NA,NA,NA,NA,NA,FALSE,"SGPT","E_F_jennifer_aniston.jpg P_M_george_Wbush.jpg"
NA,"E_F_jennifer_aniston.jpg","P_M_Tony_Blair.jpg",NA,NA,NA,NA,NA,"0.663117647171021",NA,NA,NA,NA,NA,NA,NA,NA,NA,NA,FALSE,"SGPT","E_F_jennifer_aniston.jpg P_M_Tony_Blair.jpg"
NA,"E_F_Judi_Dench.jpg","E_F_Kate_Winslet.jpg",NA,NA,NA,NA,NA,"0.20324033498764",NA,NA,NA,NA,NA,NA,NA,NA,NA,NA,FALSE,"SGPT","E_F_Judi_Dench.jpg E_F_Kate_Winslet.jpg"
NA,"E_F_Judi_Dench.jpg","E_F_keira_knightley.jpg",NA,NA,NA,NA,NA,"0.176892101764679",NA,NA,NA,NA,NA,NA,NA,NA,NA,NA,FALSE,"SGPT","E_F_Judi_Dench.jpg E_F_keira_knightley.jpg"
NA,"E_F_Judi_Dench.jpg","E_F_sandra_bullock.jpg",NA,NA,NA,NA,NA,"0.259957671165466",NA,NA,NA,NA,NA,NA,NA,NA,NA,NA,FALSE,"SGPT","E_F_Judi_Dench.jpg E_F_sandra_bullock.jpg"
NA,"E_F_Judi_Dench.jpg","E_M_anthony_hopkins.jpg",NA,NA,NA,NA,NA,"0.341601073741913",NA,NA,NA,NA,NA,NA,NA,NA,NA,NA,FALSE,"SGPT","E_F_Judi_Dench.jpg E_M_anthony_hopkins.jpg"
NA,"E_F_Judi_Dench.jpg","E_M_Hugh_Grant.jpg",NA,NA,NA,NA,NA,"0.42393434047699",NA,NA,NA,NA,NA,NA,NA,NA,NA,NA,FALSE,"SGPT","E_F_Judi_Dench.jpg E_M_Hugh_Grant.jpg"
NA,"E_F_Judi_Dench.jpg","E_M_liam_neeson.jpg",NA,NA,NA,NA,NA,"0.37785542011261",NA,NA,NA,NA,NA,NA,NA,NA,NA,NA,FALSE,"SGPT","E_F_Judi_Dench.jpg E_M_liam_neeson.jpg"
NA,"E_F_Judi_Dench.jpg","E_M_Martin_Freeman.jpg",NA,NA,NA,NA,NA,"0.393694519996643",NA,NA,NA,NA,NA,NA,NA,NA,NA,NA,FALSE,"SGPT","E_F_Judi_Dench.jpg E_M_Martin_Freeman.jpg"
NA,"E_F_Judi_Dench.jpg","E_M_michael_caine.jpg",NA,NA,NA,NA,NA,"0.32319837808609",NA,NA,NA,NA,NA,NA,NA,NA,NA,NA,FALSE,"SGPT","E_F_Judi_Dench.jpg E_M_michael_caine.jpg"
NA,"E_F_Judi_Dench.jpg","E_M_nicolas_cage.jpg",NA,NA,NA,NA,NA,"0.451854348182678",NA,NA,NA,NA,NA,NA,NA,NA,NA,NA,FALSE,"SGPT","E_F_Judi_Dench.jpg E_M_nicolas_cage.jpg"
NA,"E_F_Judi_Dench.jpg","E_M_robert_de_niro.jpg",NA,NA,NA,NA,NA,"0.457223057746887",NA,NA,NA,NA,NA,NA,NA,NA,NA,NA,FALSE,"SGPT","E_F_Judi_Dench.jpg E_M_robert_de_niro.jpg"
NA,"E_F_Judi_Dench.jpg","E_M_tom_hankes.jpg",NA,NA,NA,NA,NA,"0.411139667034149",NA,NA,NA,NA,NA,NA,NA,NA,NA,NA,FALSE,"SGPT","E_F_Judi_Dench.jpg E_M_tom_hankes.jpg"
NA,"E_F_Judi_Dench.jpg","P_F_angela_rayner.jpg",NA,NA,NA,NA,NA,"0.572000563144684",NA,NA,NA,NA,NA,NA,NA,NA,NA,NA,FALSE,"SGPT","E_F_Judi_Dench.jpg P_F_angela_rayner.jpg"
NA,"E_F_Judi_Dench.jpg","P_F_esther_mcvey.jpg",NA,NA,NA,NA,NA,"0.4850994348526",NA,NA,NA,NA,NA,NA,NA,NA,NA,NA,FALSE,"SGPT","E_F_Judi_Dench.jpg P_F_esther_mcvey.jpg"
NA,"E_F_Judi_Dench.jpg","P_F_hillary_clinton.jpg",NA,NA,NA,NA,NA,"0.536021649837494",NA,NA,NA,NA,NA,NA,NA,NA,NA,NA,FALSE,"SGPT","E_F_Judi_Dench.jpg P_F_hillary_clinton.jpg"
NA,"E_F_Judi_Dench.jpg","P_F_nicola_sturgeon.jpg",NA,NA,NA,NA,NA,"0.636606574058533",NA,NA,NA,NA,NA,NA,NA,NA,NA,NA,FALSE,"SGPT","E_F_Judi_Dench.jpg P_F_nicola_sturgeon.jpg"
NA,"E_F_Judi_Dench.jpg","P_F_PRITI_PATEL.jpg",NA,NA,NA,NA,NA,"0.600925445556641",NA,NA,NA,NA,NA,NA,NA,NA,NA,NA,FALSE,"SGPT","E_F_Judi_Dench.jpg P_F_PRITI_PATEL.jpg"
NA,"E_F_Judi_Dench.jpg","P_F_tehresy_may.jpg",NA,NA,NA,NA,NA,"0.516446053981781",NA,NA,NA,NA,NA,NA,NA,NA,NA,NA,FALSE,"SGPT","E_F_Judi_Dench.jpg P_F_tehresy_may.jpg"
NA,"E_F_Judi_Dench.jpg","P_M_bill_clinton.jpg",NA,NA,NA,NA,NA,"0.637730836868286",NA,NA,NA,NA,NA,NA,NA,NA,NA,NA,FALSE,"SGPT","E_F_Judi_Dench.jpg P_M_bill_clinton.jpg"
NA,"E_F_Judi_Dench.jpg","P_M_boris_johnson.jpg",NA,NA,NA,NA,NA,"0.620793104171753",NA,NA,NA,NA,NA,NA,NA,NA,NA,NA,FALSE,"SGPT","E_F_Judi_Dench.jpg P_M_boris_johnson.jpg"
NA,"E_F_Judi_Dench.jpg","P_M_david_cameron.jpg",NA,NA,NA,NA,NA,"0.558395326137543",NA,NA,NA,NA,NA,NA,NA,NA,NA,NA,FALSE,"SGPT","E_F_Judi_Dench.jpg P_M_david_cameron.jpg"
NA,"E_F_Judi_Dench.jpg","P_M_donald_trump.jpg",NA,NA,NA,NA,NA,"0.714117407798767",NA,NA,NA,NA,NA,NA,NA,NA,NA,NA,FALSE,"SGPT","E_F_Judi_Dench.jpg P_M_donald_trump.jpg"
NA,"E_F_Judi_Dench.jpg","P_M_george_Wbush.jpg",NA,NA,NA,NA,NA,"0.715534389019012",NA,NA,NA,NA,NA,NA,NA,NA,NA,NA,FALSE,"SGPT","E_F_Judi_Dench.jpg P_M_george_Wbush.jpg"
NA,"E_F_Judi_Dench.jpg","P_M_Tony_Blair.jpg",NA,NA,NA,NA,NA,"0.630579710006714",NA,NA,NA,NA,NA,NA,NA,NA,NA,NA,FALSE,"SGPT","E_F_Judi_Dench.jpg P_M_Tony_Blair.jpg"
NA,"E_F_Kate_Winslet.jpg","E_F_keira_knightley.jpg",NA,NA,NA,NA,NA,"0.166425943374634",NA,NA,NA,NA,NA,NA,NA,NA,NA,NA,FALSE,"SGPT","E_F_Kate_Winslet.jpg E_F_keira_knightley.jpg"
NA,"E_F_Kate_Winslet.jpg","E_F_sandra_bullock.jpg",NA,NA,NA,NA,NA,"0.210535824298859",NA,NA,NA,NA,NA,NA,NA,NA,NA,NA,FALSE,"SGPT","E_F_Kate_Winslet.jpg E_F_sandra_bullock.jpg"
NA,"E_F_Kate_Winslet.jpg","E_M_anthony_hopkins.jpg",NA,NA,NA,NA,NA,"0.302261531352997",NA,NA,NA,NA,NA,NA,NA,NA,NA,NA,FALSE,"SGPT","E_F_Kate_Winslet.jpg E_M_anthony_hopkins.jpg"
NA,"E_F_Kate_Winslet.jpg","E_M_Hugh_Grant.jpg",NA,NA,NA,NA,NA,"0.339135646820068",NA,NA,NA,NA,NA,NA,NA,NA,NA,NA,FALSE,"SGPT","E_F_Kate_Winslet.jpg E_M_Hugh_Grant.jpg"
NA,"E_F_Kate_Winslet.jpg","E_M_liam_neeson.jpg",NA,NA,NA,NA,NA,"0.356520533561707",NA,NA,NA,NA,NA,NA,NA,NA,NA,NA,FALSE,"SGPT","E_F_Kate_Winslet.jpg E_M_liam_neeson.jpg"
NA,"E_F_Kate_Winslet.jpg","E_M_Martin_Freeman.jpg",NA,NA,NA,NA,NA,"0.344438076019287",NA,NA,NA,NA,NA,NA,NA,NA,NA,NA,FALSE,"SGPT","E_F_Kate_Winslet.jpg E_M_Martin_Freeman.jpg"
NA,"E_F_Kate_Winslet.jpg","E_M_michael_caine.jpg",NA,NA,NA,NA,NA,"0.265232563018799",NA,NA,NA,NA,NA,NA,NA,NA,NA,NA,FALSE,"SGPT","E_F_Kate_Winslet.jpg E_M_michael_caine.jpg"
NA,"E_F_Kate_Winslet.jpg","E_M_nicolas_cage.jpg",NA,NA,NA,NA,NA,"0.464905023574829",NA,NA,NA,NA,NA,NA,NA,NA,NA,NA,FALSE,"SGPT","E_F_Kate_Winslet.jpg E_M_nicolas_cage.jpg"
NA,"E_F_Kate_Winslet.jpg","E_M_robert_de_niro.jpg",NA,NA,NA,NA,NA,"0.522613525390625",NA,NA,NA,NA,NA,NA,NA,NA,NA,NA,FALSE,"SGPT","E_F_Kate_Winslet.jpg E_M_robert_de_niro.jpg"
NA,"E_F_Kate_Winslet.jpg","E_M_tom_hankes.jpg",NA,NA,NA,NA,NA,"0.396573543548584",NA,NA,NA,NA,NA,NA,NA,NA,NA,NA,FALSE,"SGPT","E_F_Kate_Winslet.jpg E_M_tom_hankes.jpg"
NA,"E_F_Kate_Winslet.jpg","P_F_angela_rayner.jpg",NA,NA,NA,NA,NA,"0.458823204040527",NA,NA,NA,NA,NA,NA,NA,NA,NA,NA,FALSE,"SGPT","E_F_Kate_Winslet.jpg P_F_angela_rayner.jpg"
NA,"E_F_Kate_Winslet.jpg","P_F_esther_mcvey.jpg",NA,NA,NA,NA,NA,"0.401552081108093",NA,NA,NA,NA,NA,NA,NA,NA,NA,NA,FALSE,"SGPT","E_F_Kate_Winslet.jpg P_F_esther_mcvey.jpg"
NA,"E_F_Kate_Winslet.jpg","P_F_hillary_clinton.jpg",NA,NA,NA,NA,NA,"0.518240451812744",NA,NA,NA,NA,NA,NA,NA,NA,NA,NA,FALSE,"SGPT","E_F_Kate_Winslet.jpg P_F_hillary_clinton.jpg"
NA,"E_F_Kate_Winslet.jpg","P_F_nicola_sturgeon.jpg",NA,NA,NA,NA,NA,"0.577082514762878",NA,NA,NA,NA,NA,NA,NA,NA,NA,NA,FALSE,"SGPT","E_F_Kate_Winslet.jpg P_F_nicola_sturgeon.jpg"
NA,"E_F_Kate_Winslet.jpg","P_F_PRITI_PATEL.jpg",NA,NA,NA,NA,NA,"0.492050349712372",NA,NA,NA,NA,NA,NA,NA,NA,NA,NA,FALSE,"SGPT","E_F_Kate_Winslet.jpg P_F_PRITI_PATEL.jpg"
NA,"E_F_Kate_Winslet.jpg","P_F_tehresy_may.jpg",NA,NA,NA,NA,NA,"0.410946607589722",NA,NA,NA,NA,NA,NA,NA,NA,NA,NA,FALSE,"SGPT","E_F_Kate_Winslet.jpg P_F_tehresy_may.jpg"
NA,"E_F_Kate_Winslet.jpg","P_M_bill_clinton.jpg",NA,NA,NA,NA,NA,"0.576046288013458",NA,NA,NA,NA,NA,NA,NA,NA,NA,NA,FALSE,"SGPT","E_F_Kate_Winslet.jpg P_M_bill_clinton.jpg"
NA,"E_F_Kate_Winslet.jpg","P_M_boris_johnson.jpg",NA,NA,NA,NA,NA,"0.50600528717041",NA,NA,NA,NA,NA,NA,NA,NA,NA,NA,FALSE,"SGPT","E_F_Kate_Winslet.jpg P_M_boris_johnson.jpg"
NA,"E_F_Kate_Winslet.jpg","P_M_david_cameron.jpg",NA,NA,NA,NA,NA,"0.458907783031464",NA,NA,NA,NA,NA,NA,NA,NA,NA,NA,FALSE,"SGPT","E_F_Kate_Winslet.jpg P_M_david_cameron.jpg"
NA,"E_F_Kate_Winslet.jpg","P_M_donald_trump.jpg",NA,NA,NA,NA,NA,"0.631315946578979",NA,NA,NA,NA,NA,NA,NA,NA,NA,NA,FALSE,"SGPT","E_F_Kate_Winslet.jpg P_M_donald_trump.jpg"
NA,"E_F_Kate_Winslet.jpg","P_M_george_Wbush.jpg",NA,NA,NA,NA,NA,"0.616129100322723",NA,NA,NA,NA,NA,NA,NA,NA,NA,NA,FALSE,"SGPT","E_F_Kate_Winslet.jpg P_M_george_Wbush.jpg"
NA,"E_F_Kate_Winslet.jpg","P_M_Tony_Blair.jpg",NA,NA,NA,NA,NA,"0.510637402534485",NA,NA,NA,NA,NA,NA,NA,NA,NA,NA,FALSE,"SGPT","E_F_Kate_Winslet.jpg P_M_Tony_Blair.jpg"
NA,"E_F_keira_knightley.jpg","E_F_sandra_bullock.jpg",NA,NA,NA,NA,NA,"0.282012224197388",NA,NA,NA,NA,NA,NA,NA,NA,NA,NA,FALSE,"SGPT","E_F_keira_knightley.jpg E_F_sandra_bullock.jpg"
NA,"E_F_keira_knightley.jpg","E_M_anthony_hopkins.jpg",NA,NA,NA,NA,NA,"0.257907152175903",NA,NA,NA,NA,NA,NA,NA,NA,NA,NA,FALSE,"SGPT","E_F_keira_knightley.jpg E_M_anthony_hopkins.jpg"
NA,"E_F_keira_knightley.jpg","E_M_Hugh_Grant.jpg",NA,NA,NA,NA,NA,"0.312976956367493",NA,NA,NA,NA,NA,NA,NA,NA,NA,NA,FALSE,"SGPT","E_F_keira_knightley.jpg E_M_Hugh_Grant.jpg"
NA,"E_F_keira_knightley.jpg","E_M_liam_neeson.jpg",NA,NA,NA,NA,NA,"0.323302447795868",NA,NA,NA,NA,NA,NA,NA,NA,NA,NA,FALSE,"SGPT","E_F_keira_knightley.jpg E_M_liam_neeson.jpg"
NA,"E_F_keira_knightley.jpg","E_M_Martin_Freeman.jpg",NA,NA,NA,NA,NA,"0.324828684329987",NA,NA,NA,NA,NA,NA,NA,NA,NA,NA,FALSE,"SGPT","E_F_keira_knightley.jpg E_M_Martin_Freeman.jpg"
NA,"E_F_keira_knightley.jpg","E_M_michael_caine.jpg",NA,NA,NA,NA,NA,"0.277849733829498",NA,NA,NA,NA,NA,NA,NA,NA,NA,NA,FALSE,"SGPT","E_F_keira_knightley.jpg E_M_michael_caine.jpg"
NA,"E_F_keira_knightley.jpg","E_M_nicolas_cage.jpg",NA,NA,NA,NA,NA,"0.413666188716888",NA,NA,NA,NA,NA,NA,NA,NA,NA,NA,FALSE,"SGPT","E_F_keira_knightley.jpg E_M_nicolas_cage.jpg"
NA,"E_F_keira_knightley.jpg","E_M_robert_de_niro.jpg",NA,NA,NA,NA,NA,"0.463443577289581",NA,NA,NA,NA,NA,NA,NA,NA,NA,NA,FALSE,"SGPT","E_F_keira_knightley.jpg E_M_robert_de_niro.jpg"
NA,"E_F_keira_knightley.jpg","E_M_tom_hankes.jpg",NA,NA,NA,NA,NA,"0.394630253314972",NA,NA,NA,NA,NA,NA,NA,NA,NA,NA,FALSE,"SGPT","E_F_keira_knightley.jpg E_M_tom_hankes.jpg"
NA,"E_F_keira_knightley.jpg","P_F_angela_rayner.jpg",NA,NA,NA,NA,NA,"0.440789997577667",NA,NA,NA,NA,NA,NA,NA,NA,NA,NA,FALSE,"SGPT","E_F_keira_knightley.jpg P_F_angela_rayner.jpg"
NA,"E_F_keira_knightley.jpg","P_F_esther_mcvey.jpg",NA,NA,NA,NA,NA,"0.437652111053467",NA,NA,NA,NA,NA,NA,NA,NA,NA,NA,FALSE,"SGPT","E_F_keira_knightley.jpg P_F_esther_mcvey.jpg"
NA,"E_F_keira_knightley.jpg","P_F_hillary_clinton.jpg",NA,NA,NA,NA,NA,"0.612321257591248",NA,NA,NA,NA,NA,NA,NA,NA,NA,NA,FALSE,"SGPT","E_F_keira_knightley.jpg P_F_hillary_clinton.jpg"
NA,"E_F_keira_knightley.jpg","P_F_nicola_sturgeon.jpg",NA,NA,NA,NA,NA,"0.594281136989594",NA,NA,NA,NA,NA,NA,NA,NA,NA,NA,FALSE,"SGPT","E_F_keira_knightley.jpg P_F_nicola_sturgeon.jpg"
NA,"E_F_keira_knightley.jpg","P_F_PRITI_PATEL.jpg",NA,NA,NA,NA,NA,"0.521243333816528",NA,NA,NA,NA,NA,NA,NA,NA,NA,NA,FALSE,"SGPT","E_F_keira_knightley.jpg P_F_PRITI_PATEL.jpg"
NA,"E_F_keira_knightley.jpg","P_F_tehresy_may.jpg",NA,NA,NA,NA,NA,"0.428077638149261",NA,NA,NA,NA,NA,NA,NA,NA,NA,NA,FALSE,"SGPT","E_F_keira_knightley.jpg P_F_tehresy_may.jpg"
NA,"E_F_keira_knightley.jpg","P_M_bill_clinton.jpg",NA,NA,NA,NA,NA,"0.664036870002747",NA,NA,NA,NA,NA,NA,NA,NA,NA,NA,FALSE,"SGPT","E_F_keira_knightley.jpg P_M_bill_clinton.jpg"
NA,"E_F_keira_knightley.jpg","P_M_boris_johnson.jpg",NA,NA,NA,NA,NA,"0.508499085903168",NA,NA,NA,NA,NA,NA,NA,NA,NA,NA,FALSE,"SGPT","E_F_keira_knightley.jpg P_M_boris_johnson.jpg"
NA,"E_F_keira_knightley.jpg","P_M_david_cameron.jpg",NA,NA,NA,NA,NA,"0.498612463474274",NA,NA,NA,NA,NA,NA,NA,NA,NA,NA,FALSE,"SGPT","E_F_keira_knightley.jpg P_M_david_cameron.jpg"
NA,"E_F_keira_knightley.jpg","P_M_donald_trump.jpg",NA,NA,NA,NA,NA,"0.680904567241669",NA,NA,NA,NA,NA,NA,NA,NA,NA,NA,FALSE,"SGPT","E_F_keira_knightley.jpg P_M_donald_trump.jpg"
NA,"E_F_keira_knightley.jpg","P_M_george_Wbush.jpg",NA,NA,NA,NA,NA,"0.677533090114594",NA,NA,NA,NA,NA,NA,NA,NA,NA,NA,FALSE,"SGPT","E_F_keira_knightley.jpg P_M_george_Wbush.jpg"
NA,"E_F_keira_knightley.jpg","P_M_Tony_Blair.jpg",NA,NA,NA,NA,NA,"0.505565941333771",NA,NA,NA,NA,NA,NA,NA,NA,NA,NA,FALSE,"SGPT","E_F_keira_knightley.jpg P_M_Tony_Blair.jpg"
NA,"E_F_sandra_bullock.jpg","E_M_anthony_hopkins.jpg",NA,NA,NA,NA,NA,"0.420194029808044",NA,NA,NA,NA,NA,NA,NA,NA,NA,NA,FALSE,"SGPT","E_F_sandra_bullock.jpg E_M_anthony_hopkins.jpg"
NA,"E_F_sandra_bullock.jpg","E_M_Hugh_Grant.jpg",NA,NA,NA,NA,NA,"0.381849884986877",NA,NA,NA,NA,NA,NA,NA,NA,NA,NA,FALSE,"SGPT","E_F_sandra_bullock.jpg E_M_Hugh_Grant.jpg"
NA,"E_F_sandra_bullock.jpg","E_M_liam_neeson.jpg",NA,NA,NA,NA,NA,"0.402420520782471",NA,NA,NA,NA,NA,NA,NA,NA,NA,NA,FALSE,"SGPT","E_F_sandra_bullock.jpg E_M_liam_neeson.jpg"
NA,"E_F_sandra_bullock.jpg","E_M_Martin_Freeman.jpg",NA,NA,NA,NA,NA,"0.374014794826508",NA,NA,NA,NA,NA,NA,NA,NA,NA,NA,FALSE,"SGPT","E_F_sandra_bullock.jpg E_M_Martin_Freeman.jpg"
NA,"E_F_sandra_bullock.jpg","E_M_michael_caine.jpg",NA,NA,NA,NA,NA,"0.352188587188721",NA,NA,NA,NA,NA,NA,NA,NA,NA,NA,FALSE,"SGPT","E_F_sandra_bullock.jpg E_M_michael_caine.jpg"
NA,"E_F_sandra_bullock.jpg","E_M_nicolas_cage.jpg",NA,NA,NA,NA,NA,"0.397310554981232",NA,NA,NA,NA,NA,NA,NA,NA,NA,NA,FALSE,"SGPT","E_F_sandra_bullock.jpg E_M_nicolas_cage.jpg"
NA,"E_F_sandra_bullock.jpg","E_M_robert_de_niro.jpg",NA,NA,NA,NA,NA,"0.421837210655212",NA,NA,NA,NA,NA,NA,NA,NA,NA,NA,FALSE,"SGPT","E_F_sandra_bullock.jpg E_M_robert_de_niro.jpg"
NA,"E_F_sandra_bullock.jpg","E_M_tom_hankes.jpg",NA,NA,NA,NA,NA,"0.35660707950592",NA,NA,NA,NA,NA,NA,NA,NA,NA,NA,FALSE,"SGPT","E_F_sandra_bullock.jpg E_M_tom_hankes.jpg"
NA,"E_F_sandra_bullock.jpg","P_F_angela_rayner.jpg",NA,NA,NA,NA,NA,"0.495771467685699",NA,NA,NA,NA,NA,NA,NA,NA,NA,NA,FALSE,"SGPT","E_F_sandra_bullock.jpg P_F_angela_rayner.jpg"
NA,"E_F_sandra_bullock.jpg","P_F_esther_mcvey.jpg",NA,NA,NA,NA,NA,"0.472812533378601",NA,NA,NA,NA,NA,NA,NA,NA,NA,NA,FALSE,"SGPT","E_F_sandra_bullock.jpg P_F_esther_mcvey.jpg"
NA,"E_F_sandra_bullock.jpg","P_F_hillary_clinton.jpg",NA,NA,NA,NA,NA,"0.429071009159088",NA,NA,NA,NA,NA,NA,NA,NA,NA,NA,FALSE,"SGPT","E_F_sandra_bullock.jpg P_F_hillary_clinton.jpg"
NA,"E_F_sandra_bullock.jpg","P_F_nicola_sturgeon.jpg",NA,NA,NA,NA,NA,"0.512130320072174",NA,NA,NA,NA,NA,NA,NA,NA,NA,NA,FALSE,"SGPT","E_F_sandra_bullock.jpg P_F_nicola_sturgeon.jpg"
NA,"E_F_sandra_bullock.jpg","P_F_PRITI_PATEL.jpg",NA,NA,NA,NA,NA,"0.56659346818924",NA,NA,NA,NA,NA,NA,NA,NA,NA,NA,FALSE,"SGPT","E_F_sandra_bullock.jpg P_F_PRITI_PATEL.jpg"
NA,"E_F_sandra_bullock.jpg","P_F_tehresy_may.jpg",NA,NA,NA,NA,NA,"0.529828369617462",NA,NA,NA,NA,NA,NA,NA,NA,NA,NA,FALSE,"SGPT","E_F_sandra_bullock.jpg P_F_tehresy_may.jpg"
NA,"E_F_sandra_bullock.jpg","P_M_bill_clinton.jpg",NA,NA,NA,NA,NA,"0.518618583679199",NA,NA,NA,NA,NA,NA,NA,NA,NA,NA,FALSE,"SGPT","E_F_sandra_bullock.jpg P_M_bill_clinton.jpg"
NA,"E_F_sandra_bullock.jpg","P_M_boris_johnson.jpg",NA,NA,NA,NA,NA,"0.590701460838318",NA,NA,NA,NA,NA,NA,NA,NA,NA,NA,FALSE,"SGPT","E_F_sandra_bullock.jpg P_M_boris_johnson.jpg"
NA,"E_F_sandra_bullock.jpg","P_M_david_cameron.jpg",NA,NA,NA,NA,NA,"0.55036985874176",NA,NA,NA,NA,NA,NA,NA,NA,NA,NA,FALSE,"SGPT","E_F_sandra_bullock.jpg P_M_david_cameron.jpg"
NA,"E_F_sandra_bullock.jpg","P_M_donald_trump.jpg",NA,NA,NA,NA,NA,"0.559667527675629",NA,NA,NA,NA,NA,NA,NA,NA,NA,NA,FALSE,"SGPT","E_F_sandra_bullock.jpg P_M_donald_trump.jpg"
NA,"E_F_sandra_bullock.jpg","P_M_george_Wbush.jpg",NA,NA,NA,NA,NA,"0.567283093929291",NA,NA,NA,NA,NA,NA,NA,NA,NA,NA,FALSE,"SGPT","E_F_sandra_bullock.jpg P_M_george_Wbush.jpg"
NA,"E_F_sandra_bullock.jpg","P_M_Tony_Blair.jpg",NA,NA,NA,NA,NA,"0.623464524745941",NA,NA,NA,NA,NA,NA,NA,NA,NA,NA,FALSE,"SGPT","E_F_sandra_bullock.jpg P_M_Tony_Blair.jpg"
NA,"E_M_anthony_hopkins.jpg","E_M_Hugh_Grant.jpg",NA,NA,NA,NA,NA,"0.268122792243958",NA,NA,NA,NA,NA,NA,NA,NA,NA,NA,FALSE,"SGPT","E_M_anthony_hopkins.jpg E_M_Hugh_Grant.jpg"
NA,"E_M_anthony_hopkins.jpg","E_M_liam_neeson.jpg",NA,NA,NA,NA,NA,"0.261084318161011",NA,NA,NA,NA,NA,NA,NA,NA,NA,NA,FALSE,"SGPT","E_M_anthony_hopkins.jpg E_M_liam_neeson.jpg"
NA,"E_M_anthony_hopkins.jpg","E_M_Martin_Freeman.jpg",NA,NA,NA,NA,NA,"0.283668160438538",NA,NA,NA,NA,NA,NA,NA,NA,NA,NA,FALSE,"SGPT","E_M_anthony_hopkins.jpg E_M_Martin_Freeman.jpg"
NA,"E_M_anthony_hopkins.jpg","E_M_michael_caine.jpg",NA,NA,NA,NA,NA,"0.168621897697449",NA,NA,NA,NA,NA,NA,NA,NA,NA,NA,FALSE,"SGPT","E_M_anthony_hopkins.jpg E_M_michael_caine.jpg"
NA,"E_M_anthony_hopkins.jpg","E_M_nicolas_cage.jpg",NA,NA,NA,NA,NA,"0.340399324893951",NA,NA,NA,NA,NA,NA,NA,NA,NA,NA,FALSE,"SGPT","E_M_anthony_hopkins.jpg E_M_nicolas_cage.jpg"
NA,"E_M_anthony_hopkins.jpg","E_M_robert_de_niro.jpg",NA,NA,NA,NA,NA,"0.359917283058167",NA,NA,NA,NA,NA,NA,NA,NA,NA,NA,FALSE,"SGPT","E_M_anthony_hopkins.jpg E_M_robert_de_niro.jpg"
NA,"E_M_anthony_hopkins.jpg","E_M_tom_hankes.jpg",NA,NA,NA,NA,NA,"0.336501836776733",NA,NA,NA,NA,NA,NA,NA,NA,NA,NA,FALSE,"SGPT","E_M_anthony_hopkins.jpg E_M_tom_hankes.jpg"
NA,"E_M_anthony_hopkins.jpg","P_F_angela_rayner.jpg",NA,NA,NA,NA,NA,"0.563553810119629",NA,NA,NA,NA,NA,NA,NA,NA,NA,NA,FALSE,"SGPT","E_M_anthony_hopkins.jpg P_F_angela_rayner.jpg"
NA,"E_M_anthony_hopkins.jpg","P_F_esther_mcvey.jpg",NA,NA,NA,NA,NA,"0.581683278083801",NA,NA,NA,NA,NA,NA,NA,NA,NA,NA,FALSE,"SGPT","E_M_anthony_hopkins.jpg P_F_esther_mcvey.jpg"
NA,"E_M_anthony_hopkins.jpg","P_F_hillary_clinton.jpg",NA,NA,NA,NA,NA,"0.663971185684204",NA,NA,NA,NA,NA,NA,NA,NA,NA,NA,FALSE,"SGPT","E_M_anthony_hopkins.jpg P_F_hillary_clinton.jpg"
NA,"E_M_anthony_hopkins.jpg","P_F_nicola_sturgeon.jpg",NA,NA,NA,NA,NA,"0.762997806072235",NA,NA,NA,NA,NA,NA,NA,NA,NA,NA,FALSE,"SGPT","E_M_anthony_hopkins.jpg P_F_nicola_sturgeon.jpg"
NA,"E_M_anthony_hopkins.jpg","P_F_PRITI_PATEL.jpg",NA,NA,NA,NA,NA,"0.614213407039642",NA,NA,NA,NA,NA,NA,NA,NA,NA,NA,FALSE,"SGPT","E_M_anthony_hopkins.jpg P_F_PRITI_PATEL.jpg"
NA,"E_M_anthony_hopkins.jpg","P_F_tehresy_may.jpg",NA,NA,NA,NA,NA,"0.540679454803467",NA,NA,NA,NA,NA,NA,NA,NA,NA,NA,FALSE,"SGPT","E_M_anthony_hopkins.jpg P_F_tehresy_may.jpg"
NA,"E_M_anthony_hopkins.jpg","P_M_bill_clinton.jpg",NA,NA,NA,NA,NA,"0.616228938102722",NA,NA,NA,NA,NA,NA,NA,NA,NA,NA,FALSE,"SGPT","E_M_anthony_hopkins.jpg P_M_bill_clinton.jpg"
NA,"E_M_anthony_hopkins.jpg","P_M_boris_johnson.jpg",NA,NA,NA,NA,NA,"0.489735066890717",NA,NA,NA,NA,NA,NA,NA,NA,NA,NA,FALSE,"SGPT","E_M_anthony_hopkins.jpg P_M_boris_johnson.jpg"
NA,"E_M_anthony_hopkins.jpg","P_M_david_cameron.jpg",NA,NA,NA,NA,NA,"0.458915114402771",NA,NA,NA,NA,NA,NA,NA,NA,NA,NA,FALSE,"SGPT","E_M_anthony_hopkins.jpg P_M_david_cameron.jpg"
NA,"E_M_anthony_hopkins.jpg","P_M_donald_trump.jpg",NA,NA,NA,NA,NA,"0.60586154460907",NA,NA,NA,NA,NA,NA,NA,NA,NA,NA,FALSE,"SGPT","E_M_anthony_hopkins.jpg P_M_donald_trump.jpg"
NA,"E_M_anthony_hopkins.jpg","P_M_george_Wbush.jpg",NA,NA,NA,NA,NA,"0.566284894943237",NA,NA,NA,NA,NA,NA,NA,NA,NA,NA,FALSE,"SGPT","E_M_anthony_hopkins.jpg P_M_george_Wbush.jpg"
NA,"E_M_anthony_hopkins.jpg","P_M_Tony_Blair.jpg",NA,NA,NA,NA,NA,"0.485835433006287",NA,NA,NA,NA,NA,NA,NA,NA,NA,NA,FALSE,"SGPT","E_M_anthony_hopkins.jpg P_M_Tony_Blair.jpg"
NA,"E_M_Hugh_Grant.jpg","E_M_liam_neeson.jpg",NA,NA,NA,NA,NA,"0.27299976348877",NA,NA,NA,NA,NA,NA,NA,NA,NA,NA,FALSE,"SGPT","E_M_Hugh_Grant.jpg E_M_liam_neeson.jpg"
NA,"E_M_Hugh_Grant.jpg","E_M_Martin_Freeman.jpg",NA,NA,NA,NA,NA,"0.226668834686279",NA,NA,NA,NA,NA,NA,NA,NA,NA,NA,FALSE,"SGPT","E_M_Hugh_Grant.jpg E_M_Martin_Freeman.jpg"
NA,"E_M_Hugh_Grant.jpg","E_M_michael_caine.jpg",NA,NA,NA,NA,NA,"0.180587589740753",NA,NA,NA,NA,NA,NA,NA,NA,NA,NA,FALSE,"SGPT","E_M_Hugh_Grant.jpg E_M_michael_caine.jpg"
NA,"E_M_Hugh_Grant.jpg","E_M_nicolas_cage.jpg",NA,NA,NA,NA,NA,"0.372868537902832",NA,NA,NA,NA,NA,NA,NA,NA,NA,NA,FALSE,"SGPT","E_M_Hugh_Grant.jpg E_M_nicolas_cage.jpg"
NA,"E_M_Hugh_Grant.jpg","E_M_robert_de_niro.jpg",NA,NA,NA,NA,NA,"0.387821316719055",NA,NA,NA,NA,NA,NA,NA,NA,NA,NA,FALSE,"SGPT","E_M_Hugh_Grant.jpg E_M_robert_de_niro.jpg"
NA,"E_M_Hugh_Grant.jpg","E_M_tom_hankes.jpg",NA,NA,NA,NA,NA,"0.207939565181732",NA,NA,NA,NA,NA,NA,NA,NA,NA,NA,FALSE,"SGPT","E_M_Hugh_Grant.jpg E_M_tom_hankes.jpg"
NA,"E_M_Hugh_Grant.jpg","P_F_angela_rayner.jpg",NA,NA,NA,NA,NA,"0.599968254566193",NA,NA,NA,NA,NA,NA,NA,NA,NA,NA,FALSE,"SGPT","E_M_Hugh_Grant.jpg P_F_angela_rayner.jpg"
NA,"E_M_Hugh_Grant.jpg","P_F_esther_mcvey.jpg",NA,NA,NA,NA,NA,"0.545112550258636",NA,NA,NA,NA,NA,NA,NA,NA,NA,NA,FALSE,"SGPT","E_M_Hugh_Grant.jpg P_F_esther_mcvey.jpg"
NA,"E_M_Hugh_Grant.jpg","P_F_hillary_clinton.jpg",NA,NA,NA,NA,NA,"0.683724820613861",NA,NA,NA,NA,NA,NA,NA,NA,NA,NA,FALSE,"SGPT","E_M_Hugh_Grant.jpg P_F_hillary_clinton.jpg"
NA,"E_M_Hugh_Grant.jpg","P_F_nicola_sturgeon.jpg",NA,NA,NA,NA,NA,"0.655674576759338",NA,NA,NA,NA,NA,NA,NA,NA,NA,NA,FALSE,"SGPT","E_M_Hugh_Grant.jpg P_F_nicola_sturgeon.jpg"
NA,"E_M_Hugh_Grant.jpg","P_F_PRITI_PATEL.jpg",NA,NA,NA,NA,NA,"0.643428385257721",NA,NA,NA,NA,NA,NA,NA,NA,NA,NA,FALSE,"SGPT","E_M_Hugh_Grant.jpg P_F_PRITI_PATEL.jpg"
NA,"E_M_Hugh_Grant.jpg","P_F_tehresy_may.jpg",NA,NA,NA,NA,NA,"0.577039182186127",NA,NA,NA,NA,NA,NA,NA,NA,NA,NA,FALSE,"SGPT","E_M_Hugh_Grant.jpg P_F_tehresy_may.jpg"
NA,"E_M_Hugh_Grant.jpg","P_M_bill_clinton.jpg",NA,NA,NA,NA,NA,"0.61696058511734",NA,NA,NA,NA,NA,NA,NA,NA,NA,NA,FALSE,"SGPT","E_M_Hugh_Grant.jpg P_M_bill_clinton.jpg"
NA,"E_M_Hugh_Grant.jpg","P_M_boris_johnson.jpg",NA,NA,NA,NA,NA,"0.472251653671265",NA,NA,NA,NA,NA,NA,NA,NA,NA,NA,FALSE,"SGPT","E_M_Hugh_Grant.jpg P_M_boris_johnson.jpg"
NA,"E_M_Hugh_Grant.jpg","P_M_david_cameron.jpg",NA,NA,NA,NA,NA,"0.431282997131348",NA,NA,NA,NA,NA,NA,NA,NA,NA,NA,FALSE,"SGPT","E_M_Hugh_Grant.jpg P_M_david_cameron.jpg"
NA,"E_M_Hugh_Grant.jpg","P_M_donald_trump.jpg",NA,NA,NA,NA,NA,"0.537226974964142",NA,NA,NA,NA,NA,NA,NA,NA,NA,NA,FALSE,"SGPT","E_M_Hugh_Grant.jpg P_M_donald_trump.jpg"
NA,"E_M_Hugh_Grant.jpg","P_M_george_Wbush.jpg",NA,NA,NA,NA,NA,"0.525411903858185",NA,NA,NA,NA,NA,NA,NA,NA,NA,NA,FALSE,"SGPT","E_M_Hugh_Grant.jpg P_M_george_Wbush.jpg"
NA,"E_M_Hugh_Grant.jpg","P_M_Tony_Blair.jpg",NA,NA,NA,NA,NA,"0.531008243560791",NA,NA,NA,NA,NA,NA,NA,NA,NA,NA,FALSE,"SGPT","E_M_Hugh_Grant.jpg P_M_Tony_Blair.jpg"
NA,"E_M_liam_neeson.jpg","E_M_Martin_Freeman.jpg",NA,NA,NA,NA,NA,"0.251509249210358",NA,NA,NA,NA,NA,NA,NA,NA,NA,NA,FALSE,"SGPT","E_M_liam_neeson.jpg E_M_Martin_Freeman.jpg"
NA,"E_M_liam_neeson.jpg","E_M_michael_caine.jpg",NA,NA,NA,NA,NA,"0.214491724967957",NA,NA,NA,NA,NA,NA,NA,NA,NA,NA,FALSE,"SGPT","E_M_liam_neeson.jpg E_M_michael_caine.jpg"
NA,"E_M_liam_neeson.jpg","E_M_nicolas_cage.jpg",NA,NA,NA,NA,NA,"0.305538356304169",NA,NA,NA,NA,NA,NA,NA,NA,NA,NA,FALSE,"SGPT","E_M_liam_neeson.jpg E_M_nicolas_cage.jpg"
NA,"E_M_liam_neeson.jpg","E_M_robert_de_niro.jpg",NA,NA,NA,NA,NA,"0.233652234077454",NA,NA,NA,NA,NA,NA,NA,NA,NA,NA,FALSE,"SGPT","E_M_liam_neeson.jpg E_M_robert_de_niro.jpg"
NA,"E_M_liam_neeson.jpg","E_M_tom_hankes.jpg",NA,NA,NA,NA,NA,"0.324400305747986",NA,NA,NA,NA,NA,NA,NA,NA,NA,NA,FALSE,"SGPT","E_M_liam_neeson.jpg E_M_tom_hankes.jpg"
NA,"E_M_liam_neeson.jpg","P_F_angela_rayner.jpg",NA,NA,NA,NA,NA,"0.59399950504303",NA,NA,NA,NA,NA,NA,NA,NA,NA,NA,FALSE,"SGPT","E_M_liam_neeson.jpg P_F_angela_rayner.jpg"
NA,"E_M_liam_neeson.jpg","P_F_esther_mcvey.jpg",NA,NA,NA,NA,NA,"0.605570137500763",NA,NA,NA,NA,NA,NA,NA,NA,NA,NA,FALSE,"SGPT","E_M_liam_neeson.jpg P_F_esther_mcvey.jpg"
NA,"E_M_liam_neeson.jpg","P_F_hillary_clinton.jpg",NA,NA,NA,NA,NA,"0.595612049102783",NA,NA,NA,NA,NA,NA,NA,NA,NA,NA,FALSE,"SGPT","E_M_liam_neeson.jpg P_F_hillary_clinton.jpg"
NA,"E_M_liam_neeson.jpg","P_F_nicola_sturgeon.jpg",NA,NA,NA,NA,NA,"0.624047636985779",NA,NA,NA,NA,NA,NA,NA,NA,NA,NA,FALSE,"SGPT","E_M_liam_neeson.jpg P_F_nicola_sturgeon.jpg"
NA,"E_M_liam_neeson.jpg","P_F_PRITI_PATEL.jpg",NA,NA,NA,NA,NA,"0.673698842525482",NA,NA,NA,NA,NA,NA,NA,NA,NA,NA,FALSE,"SGPT","E_M_liam_neeson.jpg P_F_PRITI_PATEL.jpg"
NA,"E_M_liam_neeson.jpg","P_F_tehresy_may.jpg",NA,NA,NA,NA,NA,"0.59468024969101",NA,NA,NA,NA,NA,NA,NA,NA,NA,NA,FALSE,"SGPT","E_M_liam_neeson.jpg P_F_tehresy_may.jpg"
NA,"E_M_liam_neeson.jpg","P_M_bill_clinton.jpg",NA,NA,NA,NA,NA,"0.577934384346008",NA,NA,NA,NA,NA,NA,NA,NA,NA,NA,FALSE,"SGPT","E_M_liam_neeson.jpg P_M_bill_clinton.jpg"
NA,"E_M_liam_neeson.jpg","P_M_boris_johnson.jpg",NA,NA,NA,NA,NA,"0.499140441417694",NA,NA,NA,NA,NA,NA,NA,NA,NA,NA,FALSE,"SGPT","E_M_liam_neeson.jpg P_M_boris_johnson.jpg"
NA,"E_M_liam_neeson.jpg","P_M_david_cameron.jpg",NA,NA,NA,NA,NA,"0.5002201795578",NA,NA,NA,NA,NA,NA,NA,NA,NA,NA,FALSE,"SGPT","E_M_liam_neeson.jpg P_M_david_cameron.jpg"
NA,"E_M_liam_neeson.jpg","P_M_donald_trump.jpg",NA,NA,NA,NA,NA,"0.462441325187683",NA,NA,NA,NA,NA,NA,NA,NA,NA,NA,FALSE,"SGPT","E_M_liam_neeson.jpg P_M_donald_trump.jpg"
NA,"E_M_liam_neeson.jpg","P_M_george_Wbush.jpg",NA,NA,NA,NA,NA,"0.535413503646851",NA,NA,NA,NA,NA,NA,NA,NA,NA,NA,FALSE,"SGPT","E_M_liam_neeson.jpg P_M_george_Wbush.jpg"
NA,"E_M_liam_neeson.jpg","P_M_Tony_Blair.jpg",NA,NA,NA,NA,NA,"0.492475509643555",NA,NA,NA,NA,NA,NA,NA,NA,NA,NA,FALSE,"SGPT","E_M_liam_neeson.jpg P_M_Tony_Blair.jpg"
NA,"E_M_Martin_Freeman.jpg","E_M_michael_caine.jpg",NA,NA,NA,NA,NA,"0.208653509616852",NA,NA,NA,NA,NA,NA,NA,NA,NA,NA,FALSE,"SGPT","E_M_Martin_Freeman.jpg E_M_michael_caine.jpg"
NA,"E_M_Martin_Freeman.jpg","E_M_nicolas_cage.jpg",NA,NA,NA,NA,NA,"0.357306957244873",NA,NA,NA,NA,NA,NA,NA,NA,NA,NA,FALSE,"SGPT","E_M_Martin_Freeman.jpg E_M_nicolas_cage.jpg"
NA,"E_M_Martin_Freeman.jpg","E_M_robert_de_niro.jpg",NA,NA,NA,NA,NA,"0.369266271591187",NA,NA,NA,NA,NA,NA,NA,NA,NA,NA,FALSE,"SGPT","E_M_Martin_Freeman.jpg E_M_robert_de_niro.jpg"
NA,"E_M_Martin_Freeman.jpg","E_M_tom_hankes.jpg",NA,NA,NA,NA,NA,"0.368778705596924",NA,NA,NA,NA,NA,NA,NA,NA,NA,NA,FALSE,"SGPT","E_M_Martin_Freeman.jpg E_M_tom_hankes.jpg"
NA,"E_M_Martin_Freeman.jpg","P_F_angela_rayner.jpg",NA,NA,NA,NA,NA,"0.601869583129883",NA,NA,NA,NA,NA,NA,NA,NA,NA,NA,FALSE,"SGPT","E_M_Martin_Freeman.jpg P_F_angela_rayner.jpg"
NA,"E_M_Martin_Freeman.jpg","P_F_esther_mcvey.jpg",NA,NA,NA,NA,NA,"0.562891244888306",NA,NA,NA,NA,NA,NA,NA,NA,NA,NA,FALSE,"SGPT","E_M_Martin_Freeman.jpg P_F_esther_mcvey.jpg"
NA,"E_M_Martin_Freeman.jpg","P_F_hillary_clinton.jpg",NA,NA,NA,NA,NA,"0.67629212141037",NA,NA,NA,NA,NA,NA,NA,NA,NA,NA,FALSE,"SGPT","E_M_Martin_Freeman.jpg P_F_hillary_clinton.jpg"
NA,"E_M_Martin_Freeman.jpg","P_F_nicola_sturgeon.jpg",NA,NA,NA,NA,NA,"0.603776395320892",NA,NA,NA,NA,NA,NA,NA,NA,NA,NA,FALSE,"SGPT","E_M_Martin_Freeman.jpg P_F_nicola_sturgeon.jpg"
NA,"E_M_Martin_Freeman.jpg","P_F_PRITI_PATEL.jpg",NA,NA,NA,NA,NA,"0.706161141395569",NA,NA,NA,NA,NA,NA,NA,NA,NA,NA,FALSE,"SGPT","E_M_Martin_Freeman.jpg P_F_PRITI_PATEL.jpg"
NA,"E_M_Martin_Freeman.jpg","P_F_tehresy_may.jpg",NA,NA,NA,NA,NA,"0.64947497844696",NA,NA,NA,NA,NA,NA,NA,NA,NA,NA,FALSE,"SGPT","E_M_Martin_Freeman.jpg P_F_tehresy_may.jpg"
NA,"E_M_Martin_Freeman.jpg","P_M_bill_clinton.jpg",NA,NA,NA,NA,NA,"0.627567410469055",NA,NA,NA,NA,NA,NA,NA,NA,NA,NA,FALSE,"SGPT","E_M_Martin_Freeman.jpg P_M_bill_clinton.jpg"
NA,"E_M_Martin_Freeman.jpg","P_M_boris_johnson.jpg",NA,NA,NA,NA,NA,"0.525735199451447",NA,NA,NA,NA,NA,NA,NA,NA,NA,NA,FALSE,"SGPT","E_M_Martin_Freeman.jpg P_M_boris_johnson.jpg"
NA,"E_M_Martin_Freeman.jpg","P_M_david_cameron.jpg",NA,NA,NA,NA,NA,"0.516237854957581",NA,NA,NA,NA,NA,NA,NA,NA,NA,NA,FALSE,"SGPT","E_M_Martin_Freeman.jpg P_M_david_cameron.jpg"
NA,"E_M_Martin_Freeman.jpg","P_M_donald_trump.jpg",NA,NA,NA,NA,NA,"0.508707523345947",NA,NA,NA,NA,NA,NA,NA,NA,NA,NA,FALSE,"SGPT","E_M_Martin_Freeman.jpg P_M_donald_trump.jpg"
NA,"E_M_Martin_Freeman.jpg","P_M_george_Wbush.jpg",NA,NA,NA,NA,NA,"0.615690112113953",NA,NA,NA,NA,NA,NA,NA,NA,NA,NA,FALSE,"SGPT","E_M_Martin_Freeman.jpg P_M_george_Wbush.jpg"
NA,"E_M_Martin_Freeman.jpg","P_M_Tony_Blair.jpg",NA,NA,NA,NA,NA,"0.575933635234833",NA,NA,NA,NA,NA,NA,NA,NA,NA,NA,FALSE,"SGPT","E_M_Martin_Freeman.jpg P_M_Tony_Blair.jpg"
NA,"E_M_michael_caine.jpg","E_M_nicolas_cage.jpg",NA,NA,NA,NA,NA,"0.316283464431763",NA,NA,NA,NA,NA,NA,NA,NA,NA,NA,FALSE,"SGPT","E_M_michael_caine.jpg E_M_nicolas_cage.jpg"
NA,"E_M_michael_caine.jpg","E_M_robert_de_niro.jpg",NA,NA,NA,NA,NA,"0.369813323020935",NA,NA,NA,NA,NA,NA,NA,NA,NA,NA,FALSE,"SGPT","E_M_michael_caine.jpg E_M_robert_de_niro.jpg"
NA,"E_M_michael_caine.jpg","E_M_tom_hankes.jpg",NA,NA,NA,NA,NA,"0.266471803188324",NA,NA,NA,NA,NA,NA,NA,NA,NA,NA,FALSE,"SGPT","E_M_michael_caine.jpg E_M_tom_hankes.jpg"
NA,"E_M_michael_caine.jpg","P_F_angela_rayner.jpg",NA,NA,NA,NA,NA,"0.582427620887756",NA,NA,NA,NA,NA,NA,NA,NA,NA,NA,FALSE,"SGPT","E_M_michael_caine.jpg P_F_angela_rayner.jpg"
NA,"E_M_michael_caine.jpg","P_F_esther_mcvey.jpg",NA,NA,NA,NA,NA,"0.55517965555191",NA,NA,NA,NA,NA,NA,NA,NA,NA,NA,FALSE,"SGPT","E_M_michael_caine.jpg P_F_esther_mcvey.jpg"
NA,"E_M_michael_caine.jpg","P_F_hillary_clinton.jpg",NA,NA,NA,NA,NA,"0.70794153213501",NA,NA,NA,NA,NA,NA,NA,NA,NA,NA,FALSE,"SGPT","E_M_michael_caine.jpg P_F_hillary_clinton.jpg"
NA,"E_M_michael_caine.jpg","P_F_nicola_sturgeon.jpg",NA,NA,NA,NA,NA,"0.684360265731812",NA,NA,NA,NA,NA,NA,NA,NA,NA,NA,FALSE,"SGPT","E_M_michael_caine.jpg P_F_nicola_sturgeon.jpg"
NA,"E_M_michael_caine.jpg","P_F_PRITI_PATEL.jpg",NA,NA,NA,NA,NA,"0.651005029678345",NA,NA,NA,NA,NA,NA,NA,NA,NA,NA,FALSE,"SGPT","E_M_michael_caine.jpg P_F_PRITI_PATEL.jpg"
NA,"E_M_michael_caine.jpg","P_F_tehresy_may.jpg",NA,NA,NA,NA,NA,"0.550584554672241",NA,NA,NA,NA,NA,NA,NA,NA,NA,NA,FALSE,"SGPT","E_M_michael_caine.jpg P_F_tehresy_may.jpg"
NA,"E_M_michael_caine.jpg","P_M_bill_clinton.jpg",NA,NA,NA,NA,NA,"0.658629953861237",NA,NA,NA,NA,NA,NA,NA,NA,NA,NA,FALSE,"SGPT","E_M_michael_caine.jpg P_M_bill_clinton.jpg"
NA,"E_M_michael_caine.jpg","P_M_boris_johnson.jpg",NA,NA,NA,NA,NA,"0.485276103019714",NA,NA,NA,NA,NA,NA,NA,NA,NA,NA,FALSE,"SGPT","E_M_michael_caine.jpg P_M_boris_johnson.jpg"
NA,"E_M_michael_caine.jpg","P_M_david_cameron.jpg",NA,NA,NA,NA,NA,"0.433553338050842",NA,NA,NA,NA,NA,NA,NA,NA,NA,NA,FALSE,"SGPT","E_M_michael_caine.jpg P_M_david_cameron.jpg"
NA,"E_M_michael_caine.jpg","P_M_donald_trump.jpg",NA,NA,NA,NA,NA,"0.600600957870483",NA,NA,NA,NA,NA,NA,NA,NA,NA,NA,FALSE,"SGPT","E_M_michael_caine.jpg P_M_donald_trump.jpg"
NA,"E_M_michael_caine.jpg","P_M_george_Wbush.jpg",NA,NA,NA,NA,NA,"0.597913324832916",NA,NA,NA,NA,NA,NA,NA,NA,NA,NA,FALSE,"SGPT","E_M_michael_caine.jpg P_M_george_Wbush.jpg"
NA,"E_M_michael_caine.jpg","P_M_Tony_Blair.jpg",NA,NA,NA,NA,NA,"0.504181504249573",NA,NA,NA,NA,NA,NA,NA,NA,NA,NA,FALSE,"SGPT","E_M_michael_caine.jpg P_M_Tony_Blair.jpg"
NA,"E_M_nicolas_cage.jpg","E_M_robert_de_niro.jpg",NA,NA,NA,NA,NA,"0.229347109794617",NA,NA,NA,NA,NA,NA,NA,NA,NA,NA,FALSE,"SGPT","E_M_nicolas_cage.jpg E_M_robert_de_niro.jpg"
NA,"E_M_nicolas_cage.jpg","E_M_tom_hankes.jpg",NA,NA,NA,NA,NA,"0.381707966327667",NA,NA,NA,NA,NA,NA,NA,NA,NA,NA,FALSE,"SGPT","E_M_nicolas_cage.jpg E_M_tom_hankes.jpg"
NA,"E_M_nicolas_cage.jpg","P_F_angela_rayner.jpg",NA,NA,NA,NA,NA,"0.662931561470032",NA,NA,NA,NA,NA,NA,NA,NA,NA,NA,FALSE,"SGPT","E_M_nicolas_cage.jpg P_F_angela_rayner.jpg"
NA,"E_M_nicolas_cage.jpg","P_F_esther_mcvey.jpg",NA,NA,NA,NA,NA,"0.669321417808533",NA,NA,NA,NA,NA,NA,NA,NA,NA,NA,FALSE,"SGPT","E_M_nicolas_cage.jpg P_F_esther_mcvey.jpg"
NA,"E_M_nicolas_cage.jpg","P_F_hillary_clinton.jpg",NA,NA,NA,NA,NA,"0.61529266834259",NA,NA,NA,NA,NA,NA,NA,NA,NA,NA,FALSE,"SGPT","E_M_nicolas_cage.jpg P_F_hillary_clinton.jpg"
NA,"E_M_nicolas_cage.jpg","P_F_nicola_sturgeon.jpg",NA,NA,NA,NA,NA,"0.728406667709351",NA,NA,NA,NA,NA,NA,NA,NA,NA,NA,FALSE,"SGPT","E_M_nicolas_cage.jpg P_F_nicola_sturgeon.jpg"
NA,"E_M_nicolas_cage.jpg","P_F_PRITI_PATEL.jpg",NA,NA,NA,NA,NA,"0.743004858493805",NA,NA,NA,NA,NA,NA,NA,NA,NA,NA,FALSE,"SGPT","E_M_nicolas_cage.jpg P_F_PRITI_PATEL.jpg"
NA,"E_M_nicolas_cage.jpg","P_F_tehresy_may.jpg",NA,NA,NA,NA,NA,"0.718560755252838",NA,NA,NA,NA,NA,NA,NA,NA,NA,NA,FALSE,"SGPT","E_M_nicolas_cage.jpg P_F_tehresy_may.jpg"
NA,"E_M_nicolas_cage.jpg","P_M_bill_clinton.jpg",NA,NA,NA,NA,NA,"0.566207051277161",NA,NA,NA,NA,NA,NA,NA,NA,NA,NA,FALSE,"SGPT","E_M_nicolas_cage.jpg P_M_bill_clinton.jpg"
NA,"E_M_nicolas_cage.jpg","P_M_boris_johnson.jpg",NA,NA,NA,NA,NA,"0.629052519798279",NA,NA,NA,NA,NA,NA,NA,NA,NA,NA,FALSE,"SGPT","E_M_nicolas_cage.jpg P_M_boris_johnson.jpg"
NA,"E_M_nicolas_cage.jpg","P_M_david_cameron.jpg",NA,NA,NA,NA,NA,"0.548453807830811",NA,NA,NA,NA,NA,NA,NA,NA,NA,NA,FALSE,"SGPT","E_M_nicolas_cage.jpg P_M_david_cameron.jpg"
NA,"E_M_nicolas_cage.jpg","P_M_donald_trump.jpg",NA,NA,NA,NA,NA,"0.541624307632446",NA,NA,NA,NA,NA,NA,NA,NA,NA,NA,FALSE,"SGPT","E_M_nicolas_cage.jpg P_M_donald_trump.jpg"
NA,"E_M_nicolas_cage.jpg","P_M_george_Wbush.jpg",NA,NA,NA,NA,NA,"0.62887316942215",NA,NA,NA,NA,NA,NA,NA,NA,NA,NA,FALSE,"SGPT","E_M_nicolas_cage.jpg P_M_george_Wbush.jpg"
NA,"E_M_nicolas_cage.jpg","P_M_Tony_Blair.jpg",NA,NA,NA,NA,NA,"0.629341244697571",NA,NA,NA,NA,NA,NA,NA,NA,NA,NA,FALSE,"SGPT","E_M_nicolas_cage.jpg P_M_Tony_Blair.jpg"
NA,"E_M_robert_de_niro.jpg","E_M_tom_hankes.jpg",NA,NA,NA,NA,NA,"0.396663844585419",NA,NA,NA,NA,NA,NA,NA,NA,NA,NA,FALSE,"SGPT","E_M_robert_de_niro.jpg E_M_tom_hankes.jpg"
NA,"E_M_robert_de_niro.jpg","P_F_angela_rayner.jpg",NA,NA,NA,NA,NA,"0.670542895793915",NA,NA,NA,NA,NA,NA,NA,NA,NA,NA,FALSE,"SGPT","E_M_robert_de_niro.jpg P_F_angela_rayner.jpg"
NA,"E_M_robert_de_niro.jpg","P_F_esther_mcvey.jpg",NA,NA,NA,NA,NA,"0.731381058692932",NA,NA,NA,NA,NA,NA,NA,NA,NA,NA,FALSE,"SGPT","E_M_robert_de_niro.jpg P_F_esther_mcvey.jpg"
NA,"E_M_robert_de_niro.jpg","P_F_hillary_clinton.jpg",NA,NA,NA,NA,NA,"0.507453083992004",NA,NA,NA,NA,NA,NA,NA,NA,NA,NA,FALSE,"SGPT","E_M_robert_de_niro.jpg P_F_hillary_clinton.jpg"
NA,"E_M_robert_de_niro.jpg","P_F_nicola_sturgeon.jpg",NA,NA,NA,NA,NA,"0.732256889343262",NA,NA,NA,NA,NA,NA,NA,NA,NA,NA,FALSE,"SGPT","E_M_robert_de_niro.jpg P_F_nicola_sturgeon.jpg"
NA,"E_M_robert_de_niro.jpg","P_F_PRITI_PATEL.jpg",NA,NA,NA,NA,NA,"0.762990474700928",NA,NA,NA,NA,NA,NA,NA,NA,NA,NA,FALSE,"SGPT","E_M_robert_de_niro.jpg P_F_PRITI_PATEL.jpg"
NA,"E_M_robert_de_niro.jpg","P_F_tehresy_may.jpg",NA,NA,NA,NA,NA,"0.725477933883667",NA,NA,NA,NA,NA,NA,NA,NA,NA,NA,FALSE,"SGPT","E_M_robert_de_niro.jpg P_F_tehresy_may.jpg"
NA,"E_M_robert_de_niro.jpg","P_M_bill_clinton.jpg",NA,NA,NA,NA,NA,"0.478517293930054",NA,NA,NA,NA,NA,NA,NA,NA,NA,NA,FALSE,"SGPT","E_M_robert_de_niro.jpg P_M_bill_clinton.jpg"
NA,"E_M_robert_de_niro.jpg","P_M_boris_johnson.jpg",NA,NA,NA,NA,NA,"0.602061629295349",NA,NA,NA,NA,NA,NA,NA,NA,NA,NA,FALSE,"SGPT","E_M_robert_de_niro.jpg P_M_boris_johnson.jpg"
NA,"E_M_robert_de_niro.jpg","P_M_david_cameron.jpg",NA,NA,NA,NA,NA,"0.597446739673615",NA,NA,NA,NA,NA,NA,NA,NA,NA,NA,FALSE,"SGPT","E_M_robert_de_niro.jpg P_M_david_cameron.jpg"
NA,"E_M_robert_de_niro.jpg","P_M_donald_trump.jpg",NA,NA,NA,NA,NA,"0.413174271583557",NA,NA,NA,NA,NA,NA,NA,NA,NA,NA,FALSE,"SGPT","E_M_robert_de_niro.jpg P_M_donald_trump.jpg"
NA,"E_M_robert_de_niro.jpg","P_M_george_Wbush.jpg",NA,NA,NA,NA,NA,"0.493504166603088",NA,NA,NA,NA,NA,NA,NA,NA,NA,NA,FALSE,"SGPT","E_M_robert_de_niro.jpg P_M_george_Wbush.jpg"
NA,"E_M_robert_de_niro.jpg","P_M_Tony_Blair.jpg",NA,NA,NA,NA,NA,"0.621497273445129",NA,NA,NA,NA,NA,NA,NA,NA,NA,NA,FALSE,"SGPT","E_M_robert_de_niro.jpg P_M_Tony_Blair.jpg"
NA,"E_M_tom_hankes.jpg","P_F_angela_rayner.jpg",NA,NA,NA,NA,NA,"0.67587012052536",NA,NA,NA,NA,NA,NA,NA,NA,NA,NA,FALSE,"SGPT","E_M_tom_hankes.jpg P_F_angela_rayner.jpg"
NA,"E_M_tom_hankes.jpg","P_F_esther_mcvey.jpg",NA,NA,NA,NA,NA,"0.670758068561554",NA,NA,NA,NA,NA,NA,NA,NA,NA,NA,FALSE,"SGPT","E_M_tom_hankes.jpg P_F_esther_mcvey.jpg"
NA,"E_M_tom_hankes.jpg","P_F_hillary_clinton.jpg",NA,NA,NA,NA,NA,"0.668244123458862",NA,NA,NA,NA,NA,NA,NA,NA,NA,NA,FALSE,"SGPT","E_M_tom_hankes.jpg P_F_hillary_clinton.jpg"
NA,"E_M_tom_hankes.jpg","P_F_nicola_sturgeon.jpg",NA,NA,NA,NA,NA,"0.770380318164825",NA,NA,NA,NA,NA,NA,NA,NA,NA,NA,FALSE,"SGPT","E_M_tom_hankes.jpg P_F_nicola_sturgeon.jpg"
NA,"E_M_tom_hankes.jpg","P_F_PRITI_PATEL.jpg",NA,NA,NA,NA,NA,"0.731911480426788",NA,NA,NA,NA,NA,NA,NA,NA,NA,NA,FALSE,"SGPT","E_M_tom_hankes.jpg P_F_PRITI_PATEL.jpg"
NA,"E_M_tom_hankes.jpg","P_F_tehresy_may.jpg",NA,NA,NA,NA,NA,"0.675294518470764",NA,NA,NA,NA,NA,NA,NA,NA,NA,NA,FALSE,"SGPT","E_M_tom_hankes.jpg P_F_tehresy_may.jpg"
NA,"E_M_tom_hankes.jpg","P_M_bill_clinton.jpg",NA,NA,NA,NA,NA,"0.615286886692047",NA,NA,NA,NA,NA,NA,NA,NA,NA,NA,FALSE,"SGPT","E_M_tom_hankes.jpg P_M_bill_clinton.jpg"
NA,"E_M_tom_hankes.jpg","P_M_boris_johnson.jpg",NA,NA,NA,NA,NA,"0.591854333877563",NA,NA,NA,NA,NA,NA,NA,NA,NA,NA,FALSE,"SGPT","E_M_tom_hankes.jpg P_M_boris_johnson.jpg"
NA,"E_M_tom_hankes.jpg","P_M_david_cameron.jpg",NA,NA,NA,NA,NA,"0.528963565826416",NA,NA,NA,NA,NA,NA,NA,NA,NA,NA,FALSE,"SGPT","E_M_tom_hankes.jpg P_M_david_cameron.jpg"
NA,"E_M_tom_hankes.jpg","P_M_donald_trump.jpg",NA,NA,NA,NA,NA,"0.498966336250305",NA,NA,NA,NA,NA,NA,NA,NA,NA,NA,FALSE,"SGPT","E_M_tom_hankes.jpg P_M_donald_trump.jpg"
NA,"E_M_tom_hankes.jpg","P_M_george_Wbush.jpg",NA,NA,NA,NA,NA,"0.517529487609863",NA,NA,NA,NA,NA,NA,NA,NA,NA,NA,FALSE,"SGPT","E_M_tom_hankes.jpg P_M_george_Wbush.jpg"
NA,"E_M_tom_hankes.jpg","P_M_Tony_Blair.jpg",NA,NA,NA,NA,NA,"0.648172318935394",NA,NA,NA,NA,NA,NA,NA,NA,NA,NA,FALSE,"SGPT","E_M_tom_hankes.jpg P_M_Tony_Blair.jpg"
NA,"P_F_angela_rayner.jpg","P_F_esther_mcvey.jpg",NA,NA,NA,NA,NA,"0.316079616546631",NA,NA,NA,NA,NA,NA,NA,NA,NA,NA,FALSE,"SGPT","P_F_angela_rayner.jpg P_F_esther_mcvey.jpg"
NA,"P_F_angela_rayner.jpg","P_F_hillary_clinton.jpg",NA,NA,NA,NA,NA,"0.491047084331512",NA,NA,NA,NA,NA,NA,NA,NA,NA,NA,FALSE,"SGPT","P_F_angela_rayner.jpg P_F_hillary_clinton.jpg"
NA,"P_F_angela_rayner.jpg","P_F_nicola_sturgeon.jpg",NA,NA,NA,NA,NA,"0.366138458251953",NA,NA,NA,NA,NA,NA,NA,NA,NA,NA,FALSE,"SGPT","P_F_angela_rayner.jpg P_F_nicola_sturgeon.jpg"
NA,"P_F_angela_rayner.jpg","P_F_PRITI_PATEL.jpg",NA,NA,NA,NA,NA,"0.287108898162842",NA,NA,NA,NA,NA,NA,NA,NA,NA,NA,FALSE,"SGPT","P_F_angela_rayner.jpg P_F_PRITI_PATEL.jpg"
