"RT","img_1","img_2","isSameProffesion","img1proffesion","img2proffesion","img1Gender","img2Gender","keyPressed","participant","time","normlised_keyPress","age","gender","handedness","isFamiliar_img1","isFamiliar_img2","vividness_img1","vividness_img2","reject_trial","pair"
7563,"E_M_robert_de_niro.jpg","P_M_david_cameron.jpg","FALSE","pictures/stimuli/E","pictures/stimuli/P","M","M","6","559e16a2fdf99b4f0b984e34","11/29/2021, 17:32:33",0.482811178349782,"30","Female","right",0,1,0,0,TRUE,"E_M_robert_de_niro.jpg P_M_david_cameron.jpg"
2588,"P_F_PRITI_PATEL.jpg","P_M_george_Wbush.jpg","TRUE","pictures/stimuli/P","pictures/stimuli/P","F","M","6","559e16a2fdf99b4f0b984e34","11/29/2021, 17:32:33",0.482811178349782,"30","Female","right",0,1,0,0,TRUE,"P_F_PRITI_PATEL.jpg P_M_george_Wbush.jpg"
2565,"E_M_anthony_hopkins.jpg","P_F_tehresy_may.jpg","FALSE","pictures/stimuli/E","pictures/stimuli/P","M","F","6","559e16a2fdf99b4f0b984e34","11/29/2021, 17:32:33",0.482811178349782,"30","Female","right",0,1,0,0,TRUE,"E_M_anthony_hopkins.jpg P_F_tehresy_may.jpg"
2013,"E_F_angelina_jolie.jpg","E_F_jennifer_aniston.jpg","TRUE","pictures/stimuli/E","pictures/stimuli/E","F","F","6","559e16a2fdf99b4f0b984e34","11/29/2021, 17:32:33",0.482811178349782,"30","Female","right",1,1,0,0,TRUE,"E_F_angelina_jolie.jpg E_F_jennifer_aniston.jpg"
2459,"E_M_Hugh_Grant.jpg","E_M_tom_hankes.jpg","TRUE","pictures/stimuli/E","pictures/stimuli/E","M","M","6","559e16a2fdf99b4f0b984e34","11/29/2021, 17:32:33",0.482811178349782,"30","Female","right",0,0,0,0,TRUE,"E_M_Hugh_Grant.jpg E_M_tom_hankes.jpg"
2056,"E_F_sandra_bullock.jpg","P_F_tehresy_may.jpg","FALSE","pictures/stimuli/E","pictures/stimuli/P","F","F","6","559e16a2fdf99b4f0b984e34","11/29/2021, 17:32:33",0.482811178349782,"30","Female","right",0,1,0,0,TRUE,"E_F_sandra_bullock.jpg P_F_tehresy_may.jpg"
2374,"E_F_keira_knightley.jpg","E_M_michael_caine.jpg","TRUE","pictures/stimuli/E","pictures/stimuli/E","F","M","6","559e16a2fdf99b4f0b984e34","11/29/2021, 17:32:33",0.482811178349782,"30","Female","right",0,0,0,0,TRUE,"E_F_keira_knightley.jpg E_M_michael_caine.jpg"
1893,"E_M_Hugh_Grant.jpg","P_M_donald_trump.jpg","FALSE","pictures/stimuli/E","pictures/stimuli/P","M","M","6","559e16a2fdf99b4f0b984e34","11/29/2021, 17:32:33",0.482811178349782,"30","Female","right",0,1,0,0,TRUE,"E_M_Hugh_Grant.jpg P_M_donald_trump.jpg"
1917,"E_F_sandra_bullock.jpg","P_F_esther_mcvey.jpg","FALSE","pictures/stimuli/E","pictures/stimuli/P","F","F","6","559e16a2fdf99b4f0b984e34","11/29/2021, 17:32:33",0.482811178349782,"30","Female","right",0,0,0,0,TRUE,"E_F_sandra_bullock.jpg P_F_esther_mcvey.jpg"
4412,"P_F_hillary_clinton.jpg","P_F_nicola_sturgeon.jpg","TRUE","pictures/stimuli/P","pictures/stimuli/P","F","F","4","559e16a2fdf99b4f0b984e34","11/29/2021, 17:32:33",-0.81937664707494,"30","Female","right",0,0,0,0,TRUE,"P_F_hillary_clinton.jpg P_F_nicola_sturgeon.jpg"
3365,"E_M_tom_hankes.jpg","P_M_bill_clinton.jpg","FALSE","pictures/stimuli/E","pictures/stimuli/P","M","M","6","559e16a2fdf99b4f0b984e34","11/29/2021, 17:32:33",0.482811178349782,"30","Female","right",0,0,0,0,TRUE,"E_M_tom_hankes.jpg P_M_bill_clinton.jpg"
2309,"P_F_angela_rayner.jpg","P_M_donald_trump.jpg","TRUE","pictures/stimuli/P","pictures/stimuli/P","F","M","6","559e16a2fdf99b4f0b984e34","11/29/2021, 17:32:33",0.482811178349782,"30","Female","right",0,1,0,0,TRUE,"P_F_angela_rayner.jpg P_M_donald_trump.jpg"
2017,"P_F_nicola_sturgeon.jpg","P_M_boris_johnson.jpg","TRUE","pictures/stimuli/P","pictures/stimuli/P","F","M","6","559e16a2fdf99b4f0b984e34","11/29/2021, 17:32:33",0.482811178349782,"30","Female","right",0,1,0,0,TRUE,"P_F_nicola_sturgeon.jpg P_M_boris_johnson.jpg"
2870,"P_F_tehresy_may.jpg","P_M_donald_trump.jpg","TRUE","pictures/stimuli/P","pictures/stimuli/P","F","M","6","559e16a2fdf99b4f0b984e34","11/29/2021, 17:32:33",0.482811178349782,"30","Female","right",1,1,0,0,TRUE,"P_F_tehresy_may.jpg P_M_donald_trump.jpg"
1902,"E_F_angelina_jolie.jpg","P_M_george_Wbush.jpg","FALSE","pictures/stimuli/E","pictures/stimuli/P","F","M","6","559e16a2fdf99b4f0b984e34","11/29/2021, 17:32:33",0.482811178349782,"30","Female","right",1,1,0,0,TRUE,"E_F_angelina_jolie.jpg P_M_george_Wbush.jpg"
2957,"E_M_anthony_hopkins.jpg","E_M_Martin_Freeman.jpg","TRUE","pictures/stimuli/E","pictures/stimuli/E","M","M","6","559e16a2fdf99b4f0b984e34","11/29/2021, 17:32:33",0.482811178349782,"30","Female","right",0,0,0,0,TRUE,"E_M_anthony_hopkins.jpg E_M_Martin_Freeman.jpg"
3260,"P_F_esther_mcvey.jpg","P_M_george_Wbush.jpg","TRUE","pictures/stimuli/P","pictures/stimuli/P","F","M","4","559e16a2fdf99b4f0b984e34","11/29/2021, 17:32:33",-0.81937664707494,"30","Female","right",0,1,0,0,TRUE,"P_F_esther_mcvey.jpg P_M_george_Wbush.jpg"
3597,"E_M_anthony_hopkins.jpg","P_M_david_cameron.jpg","FALSE","pictures/stimuli/E","pictures/stimuli/P","M","M","6","559e16a2fdf99b4f0b984e34","11/29/2021, 17:32:33",0.482811178349782,"30","Female","right",0,1,0,0,TRUE,"E_M_anthony_hopkins.jpg P_M_david_cameron.jpg"
2511,"E_M_liam_neeson.jpg","P_F_angela_rayner.jpg","FALSE","pictures/stimuli/E","pictures/stimuli/P","M","F","6","559e16a2fdf99b4f0b984e34","11/29/2021, 17:32:33",0.482811178349782,"30","Female","right",0,0,0,0,TRUE,"E_M_liam_neeson.jpg P_F_angela_rayner.jpg"
2014,"E_M_michael_caine.jpg","E_M_robert_de_niro.jpg","TRUE","pictures/stimuli/E","pictures/stimuli/E","M","M","6","559e16a2fdf99b4f0b984e34","11/29/2021, 17:32:33",0.482811178349782,"30","Female","right",0,0,0,0,TRUE,"E_M_michael_caine.jpg E_M_robert_de_niro.jpg"
3272,"E_F_Kate_Winslet.jpg","P_F_angela_rayner.jpg","FALSE","pictures/stimuli/E","pictures/stimuli/P","F","F","6","559e16a2fdf99b4f0b984e34","11/29/2021, 17:32:33",0.482811178349782,"30","Female","right",0,0,0,0,TRUE,"E_F_Kate_Winslet.jpg P_F_angela_rayner.jpg"
4565,"E_M_Martin_Freeman.jpg","P_M_david_cameron.jpg","FALSE","pictures/stimuli/E","pictures/stimuli/P","M","M","6","559e16a2fdf99b4f0b984e34","11/29/2021, 17:32:33",0.482811178349782,"30","Female","right",0,1,0,0,TRUE,"E_M_Martin_Freeman.jpg P_M_david_cameron.jpg"
9626,"E_M_Hugh_Grant.jpg","E_M_Martin_Freeman.jpg","TRUE","pictures/stimuli/E","pictures/stimuli/E","M","M","6","559e16a2fdf99b4f0b984e34","11/29/2021, 17:32:33",0.482811178349782,"30","Female","right",0,0,0,0,TRUE,"E_M_Hugh_Grant.jpg E_M_Martin_Freeman.jpg"
2606,"E_M_nicolas_cage.jpg","P_F_PRITI_PATEL.jpg","FALSE","pictures/stimuli/E","pictures/stimuli/P","M","F","6","559e16a2fdf99b4f0b984e34","11/29/2021, 17:32:33",0.482811178349782,"30","Female","right",1,0,0,0,TRUE,"E_M_nicolas_cage.jpg P_F_PRITI_PATEL.jpg"
5279,"E_M_robert_de_niro.jpg","P_M_boris_johnson.jpg","FALSE","pictures/stimuli/E","pictures/stimuli/P","M","M","6","559e16a2fdf99b4f0b984e34","11/29/2021, 17:32:33",0.482811178349782,"30","Female","right",0,1,0,0,TRUE,"E_M_robert_de_niro.jpg P_M_boris_johnson.jpg"
2317,"E_F_sandra_bullock.jpg","E_M_anthony_hopkins.jpg","TRUE","pictures/stimuli/E","pictures/stimuli/E","F","M","6","559e16a2fdf99b4f0b984e34","11/29/2021, 17:32:33",0.482811178349782,"30","Female","right",0,0,0,0,TRUE,"E_F_sandra_bullock.jpg E_M_anthony_hopkins.jpg"
2038,"E_M_liam_neeson.jpg","P_F_esther_mcvey.jpg","FALSE","pictures/stimuli/E","pictures/stimuli/P","M","F","6","559e16a2fdf99b4f0b984e34","11/29/2021, 17:32:33",0.482811178349782,"30","Female","right",0,0,0,0,TRUE,"E_M_liam_neeson.jpg P_F_esther_mcvey.jpg"
1358,"E_F_keira_knightley.jpg","P_F_nicola_sturgeon.jpg","FALSE","pictures/stimuli/E","pictures/stimuli/P","F","F","6","559e16a2fdf99b4f0b984e34","11/29/2021, 17:32:33",0.482811178349782,"30","Female","right",0,0,0,0,TRUE,"E_F_keira_knightley.jpg P_F_nicola_sturgeon.jpg"
1381,"E_M_anthony_hopkins.jpg","P_M_Tony_Blair.jpg","FALSE","pictures/stimuli/E","pictures/stimuli/P","M","M","6","559e16a2fdf99b4f0b984e34","11/29/2021, 17:32:33",0.482811178349782,"30","Female","right",0,1,0,0,TRUE,"E_M_anthony_hopkins.jpg P_M_Tony_Blair.jpg"
1002,"E_M_liam_neeson.jpg","P_M_george_Wbush.jpg","FALSE","pictures/stimuli/E","pictures/stimuli/P","M","M","6","559e16a2fdf99b4f0b984e34","11/29/2021, 17:32:33",0.482811178349782,"30","Female","right",0,1,0,0,TRUE,"E_M_liam_neeson.jpg P_M_george_Wbush.jpg"
2454,"E_F_keira_knightley.jpg","P_M_donald_trump.jpg","FALSE","pictures/stimuli/E","pictures/stimuli/P","F","M","6","559e16a2fdf99b4f0b984e34","11/29/2021, 17:32:33",0.482811178349782,"30","Female","right",0,1,0,0,TRUE,"E_F_keira_knightley.jpg P_M_donald_trump.jpg"
1846,"E_M_tom_hankes.jpg","P_M_george_Wbush.jpg","FALSE","pictures/stimuli/E","pictures/stimuli/P","M","M","6","559e16a2fdf99b4f0b984e34","11/29/2021, 17:32:33",0.482811178349782,"30","Female","right",0,1,0,0,TRUE,"E_M_tom_hankes.jpg P_M_george_Wbush.jpg"
1237,"E_F_Kate_Winslet.jpg","P_M_donald_trump.jpg","FALSE","pictures/stimuli/E","pictures/stimuli/P","F","M","6","559e16a2fdf99b4f0b984e34","11/29/2021, 17:32:33",0.482811178349782,"30","Female","right",0,1,0,0,TRUE,"E_F_Kate_Winslet.jpg P_M_donald_trump.jpg"
1332,"P_F_esther_mcvey.jpg","P_F_tehresy_may.jpg","TRUE","pictures/stimuli/P","pictures/stimuli/P","F","F","6","559e16a2fdf99b4f0b984e34","11/29/2021, 17:32:33",0.482811178349782,"30","Female","right",0,1,0,0,TRUE,"P_F_esther_mcvey.jpg P_F_tehresy_may.jpg"
4904,"P_F_esther_mcvey.jpg","P_F_PRITI_PATEL.jpg","TRUE","pictures/stimuli/P","pictures/stimuli/P","F","F","6","559e16a2fdf99b4f0b984e34","11/29/2021, 17:32:33",0.482811178349782,"30","Female","right",0,0,0,0,TRUE,"P_F_esther_mcvey.jpg P_F_PRITI_PATEL.jpg"
2598,"E_F_sandra_bullock.jpg","E_M_liam_neeson.jpg","TRUE","pictures/stimuli/E","pictures/stimuli/E","F","M","6","559e16a2fdf99b4f0b984e34","11/29/2021, 17:32:33",0.482811178349782,"30","Female","right",0,0,0,0,TRUE,"E_F_sandra_bullock.jpg E_M_liam_neeson.jpg"
1334,"P_M_bill_clinton.jpg","P_M_donald_trump.jpg","TRUE","pictures/stimuli/P","pictures/stimuli/P","M","M","6","559e16a2fdf99b4f0b984e34","11/29/2021, 17:32:33",0.482811178349782,"30","Female","right",0,1,0,0,TRUE,"P_M_bill_clinton.jpg P_M_donald_trump.jpg"
2866,"E_F_Judi_Dench.jpg","E_F_sandra_bullock.jpg","TRUE","pictures/stimuli/E","pictures/stimuli/E","F","F","6","559e16a2fdf99b4f0b984e34","11/29/2021, 17:32:33",0.482811178349782,"30","Female","right",0,0,0,0,TRUE,"E_F_Judi_Dench.jpg E_F_sandra_bullock.jpg"
1850,"E_M_michael_caine.jpg","P_F_angela_rayner.jpg","FALSE","pictures/stimuli/E","pictures/stimuli/P","M","F","6","559e16a2fdf99b4f0b984e34","11/29/2021, 17:32:33",0.482811178349782,"30","Female","right",0,0,0,0,TRUE,"E_M_michael_caine.jpg P_F_angela_rayner.jpg"
1542,"E_F_Kate_Winslet.jpg","E_M_robert_de_niro.jpg","TRUE","pictures/stimuli/E","pictures/stimuli/E","F","M","6","559e16a2fdf99b4f0b984e34","11/29/2021, 17:32:33",0.482811178349782,"30","Female","right",0,0,0,0,TRUE,"E_F_Kate_Winslet.jpg E_M_robert_de_niro.jpg"
4509,"E_M_michael_caine.jpg","P_M_Tony_Blair.jpg","FALSE","pictures/stimuli/E","pictures/stimuli/P","M","M","4","559e16a2fdf99b4f0b984e34","11/29/2021, 17:32:33",-0.81937664707494,"30","Female","right",0,1,0,0,TRUE,"E_M_michael_caine.jpg P_M_Tony_Blair.jpg"
2054,"E_M_michael_caine.jpg","E_M_nicolas_cage.jpg","TRUE","pictures/stimuli/E","pictures/stimuli/E","M","M","6","559e16a2fdf99b4f0b984e34","11/29/2021, 17:32:33",0.482811178349782,"30","Female","right",0,1,0,0,TRUE,"E_M_michael_caine.jpg E_M_nicolas_cage.jpg"
1422,"E_F_sandra_bullock.jpg","P_M_donald_trump.jpg","FALSE","pictures/stimuli/E","pictures/stimuli/P","F","M","6","559e16a2fdf99b4f0b984e34","11/29/2021, 17:32:33",0.482811178349782,"30","Female","right",0,1,0,0,TRUE,"E_F_sandra_bullock.jpg P_M_donald_trump.jpg"
3526,"P_M_bill_clinton.jpg","P_M_george_Wbush.jpg","TRUE","pictures/stimuli/P","pictures/stimuli/P","M","M","6","559e16a2fdf99b4f0b984e34","11/29/2021, 17:32:33",0.482811178349782,"30","Female","right",0,1,0,0,TRUE,"P_M_bill_clinton.jpg P_M_george_Wbush.jpg"
1686,"E_M_Hugh_Grant.jpg","E_M_michael_caine.jpg","TRUE","pictures/stimuli/E","pictures/stimuli/E","M","M","6","559e16a2fdf99b4f0b984e34","11/29/2021, 17:32:33",0.482811178349782,"30","Female","right",0,0,0,0,TRUE,"E_M_Hugh_Grant.jpg E_M_michael_caine.jpg"
2872,"E_M_Martin_Freeman.jpg","E_M_robert_de_niro.jpg","TRUE","pictures/stimuli/E","pictures/stimuli/E","M","M","6","559e16a2fdf99b4f0b984e34","11/29/2021, 17:32:33",0.482811178349782,"30","Female","right",0,0,0,0,TRUE,"E_M_Martin_Freeman.jpg E_M_robert_de_niro.jpg"
2281,"P_F_nicola_sturgeon.jpg","P_M_george_Wbush.jpg","TRUE","pictures/stimuli/P","pictures/stimuli/P","F","M","6","559e16a2fdf99b4f0b984e34","11/29/2021, 17:32:33",0.482811178349782,"30","Female","right",0,1,0,0,TRUE,"P_F_nicola_sturgeon.jpg P_M_george_Wbush.jpg"
1801,"E_F_sandra_bullock.jpg","E_M_nicolas_cage.jpg","TRUE","pictures/stimuli/E","pictures/stimuli/E","F","M","6","559e16a2fdf99b4f0b984e34","11/29/2021, 17:32:33",0.482811178349782,"30","Female","right",0,1,0,0,TRUE,"E_F_sandra_bullock.jpg E_M_nicolas_cage.jpg"
4390,"P_M_donald_trump.jpg","P_M_Tony_Blair.jpg","TRUE","pictures/stimuli/P","pictures/stimuli/P","M","M","4","559e16a2fdf99b4f0b984e34","11/29/2021, 17:32:33",-0.81937664707494,"30","Female","right",1,1,0,0,TRUE,"P_M_donald_trump.jpg P_M_Tony_Blair.jpg"
1654,"E_M_nicolas_cage.jpg","P_F_esther_mcvey.jpg","FALSE","pictures/stimuli/E","pictures/stimuli/P","M","F","6","559e16a2fdf99b4f0b984e34","11/29/2021, 17:32:33",0.482811178349782,"30","Female","right",1,0,0,0,TRUE,"E_M_nicolas_cage.jpg P_F_esther_mcvey.jpg"
3727,"E_M_tom_hankes.jpg","P_M_boris_johnson.jpg","FALSE","pictures/stimuli/E","pictures/stimuli/P","M","M","6","559e16a2fdf99b4f0b984e34","11/29/2021, 17:32:33",0.482811178349782,"30","Female","right",0,1,0,0,TRUE,"E_M_tom_hankes.jpg P_M_boris_johnson.jpg"
2446,"P_F_hillary_clinton.jpg","P_F_PRITI_PATEL.jpg","TRUE","pictures/stimuli/P","pictures/stimuli/P","F","F","4","559e16a2fdf99b4f0b984e34","11/29/2021, 17:32:33",-0.81937664707494,"30","Female","right",0,0,0,0,TRUE,"P_F_hillary_clinton.jpg P_F_PRITI_PATEL.jpg"
1878,"E_M_nicolas_cage.jpg","P_M_boris_johnson.jpg","FALSE","pictures/stimuli/E","pictures/stimuli/P","M","M","6","559e16a2fdf99b4f0b984e34","11/29/2021, 17:32:33",0.482811178349782,"30","Female","right",1,1,0,0,TRUE,"E_M_nicolas_cage.jpg P_M_boris_johnson.jpg"
1423,"E_M_michael_caine.jpg","P_M_george_Wbush.jpg","FALSE","pictures/stimuli/E","pictures/stimuli/P","M","M","6","559e16a2fdf99b4f0b984e34","11/29/2021, 17:32:33",0.482811178349782,"30","Female","right",0,1,0,0,TRUE,"E_M_michael_caine.jpg P_M_george_Wbush.jpg"
1045,"E_F_angelina_jolie.jpg","P_M_bill_clinton.jpg","FALSE","pictures/stimuli/E","pictures/stimuli/P","F","M","6","559e16a2fdf99b4f0b984e34","11/29/2021, 17:32:33",0.482811178349782,"30","Female","right",1,0,0,0,TRUE,"E_F_angelina_jolie.jpg P_M_bill_clinton.jpg"
1126,"E_F_sandra_bullock.jpg","P_M_bill_clinton.jpg","FALSE","pictures/stimuli/E","pictures/stimuli/P","F","M","6","559e16a2fdf99b4f0b984e34","11/29/2021, 17:32:33",0.482811178349782,"30","Female","right",0,0,0,0,TRUE,"E_F_sandra_bullock.jpg P_M_bill_clinton.jpg"
1374,"E_F_jennifer_aniston.jpg","E_F_Judi_Dench.jpg","TRUE","pictures/stimuli/E","pictures/stimuli/E","F","F","6","559e16a2fdf99b4f0b984e34","11/29/2021, 17:32:33",0.482811178349782,"30","Female","right",1,0,0,0,TRUE,"E_F_jennifer_aniston.jpg E_F_Judi_Dench.jpg"
1678,"E_M_robert_de_niro.jpg","P_M_george_Wbush.jpg","FALSE","pictures/stimuli/E","pictures/stimuli/P","M","M","6","559e16a2fdf99b4f0b984e34","11/29/2021, 17:32:33",0.482811178349782,"30","Female","right",0,1,0,0,TRUE,"E_M_robert_de_niro.jpg P_M_george_Wbush.jpg"
1438,"P_F_tehresy_may.jpg","P_M_bill_clinton.jpg","TRUE","pictures/stimuli/P","pictures/stimuli/P","F","M","6","559e16a2fdf99b4f0b984e34","11/29/2021, 17:32:33",0.482811178349782,"30","Female","right",1,0,0,0,TRUE,"P_F_tehresy_may.jpg P_M_bill_clinton.jpg"
3510,"E_F_keira_knightley.jpg","P_F_angela_rayner.jpg","FALSE","pictures/stimuli/E","pictures/stimuli/P","F","F","5","559e16a2fdf99b4f0b984e34","11/29/2021, 17:32:33",-0.168282734362579,"30","Female","right",0,0,0,0,TRUE,"E_F_keira_knightley.jpg P_F_angela_rayner.jpg"
2661,"E_F_Kate_Winslet.jpg","P_F_hillary_clinton.jpg","FALSE","pictures/stimuli/E","pictures/stimuli/P","F","F","6","559e16a2fdf99b4f0b984e34","11/29/2021, 17:32:33",0.482811178349782,"30","Female","right",0,0,0,0,TRUE,"E_F_Kate_Winslet.jpg P_F_hillary_clinton.jpg"
1598,"E_F_keira_knightley.jpg","E_M_liam_neeson.jpg","TRUE","pictures/stimuli/E","pictures/stimuli/E","F","M","6","559e16a2fdf99b4f0b984e34","11/29/2021, 17:32:33",0.482811178349782,"30","Female","right",0,0,0,0,TRUE,"E_F_keira_knightley.jpg E_M_liam_neeson.jpg"
1389,"P_M_donald_trump.jpg","P_M_george_Wbush.jpg","TRUE","pictures/stimuli/P","pictures/stimuli/P","M","M","6","559e16a2fdf99b4f0b984e34","11/29/2021, 17:32:33",0.482811178349782,"30","Female","right",1,1,0,0,TRUE,"P_M_donald_trump.jpg P_M_george_Wbush.jpg"
6549,"E_F_keira_knightley.jpg","E_F_sandra_bullock.jpg","TRUE","pictures/stimuli/E","pictures/stimuli/E","F","F","1","559e16a2fdf99b4f0b984e34","11/29/2021, 17:32:33",-2.77265838521202,"30","Female","right",0,0,0,0,TRUE,"E_F_keira_knightley.jpg E_F_sandra_bullock.jpg"
2194,"E_M_anthony_hopkins.jpg","P_F_angela_rayner.jpg","FALSE","pictures/stimuli/E","pictures/stimuli/P","M","F","6","559e16a2fdf99b4f0b984e34","11/29/2021, 17:32:33",0.482811178349782,"30","Female","right",0,0,0,0,TRUE,"E_M_anthony_hopkins.jpg P_F_angela_rayner.jpg"
2134,"E_M_tom_hankes.jpg","P_F_tehresy_may.jpg","FALSE","pictures/stimuli/E","pictures/stimuli/P","M","F","6","559e16a2fdf99b4f0b984e34","11/29/2021, 17:32:33",0.482811178349782,"30","Female","right",0,1,0,0,TRUE,"E_M_tom_hankes.jpg P_F_tehresy_may.jpg"
4046,"E_F_jennifer_aniston.jpg","P_F_hillary_clinton.jpg","FALSE","pictures/stimuli/E","pictures/stimuli/P","F","F","3","559e16a2fdf99b4f0b984e34","11/29/2021, 17:32:33",-1.4704705597873,"30","Female","right",1,0,0,0,TRUE,"E_F_jennifer_aniston.jpg P_F_hillary_clinton.jpg"
1998,"P_F_esther_mcvey.jpg","P_M_Tony_Blair.jpg","TRUE","pictures/stimuli/P","pictures/stimuli/P","F","M","6","559e16a2fdf99b4f0b984e34","11/29/2021, 17:32:33",0.482811178349782,"30","Female","right",0,1,0,0,TRUE,"P_F_esther_mcvey.jpg P_M_Tony_Blair.jpg"
1206,"E_M_Martin_Freeman.jpg","P_F_tehresy_may.jpg","FALSE","pictures/stimuli/E","pictures/stimuli/P","M","F","6","559e16a2fdf99b4f0b984e34","11/29/2021, 17:32:33",0.482811178349782,"30","Female","right",0,1,0,0,TRUE,"E_M_Martin_Freeman.jpg P_F_tehresy_may.jpg"
5092,"E_M_michael_caine.jpg","P_M_boris_johnson.jpg","FALSE","pictures/stimuli/E","pictures/stimuli/P","M","M","1","559e16a2fdf99b4f0b984e34","11/29/2021, 17:32:33",-2.77265838521202,"30","Female","right",0,1,0,0,TRUE,"E_M_michael_caine.jpg P_M_boris_johnson.jpg"
3139,"P_F_esther_mcvey.jpg","P_M_boris_johnson.jpg","TRUE","pictures/stimuli/P","pictures/stimuli/P","F","M","6","559e16a2fdf99b4f0b984e34","11/29/2021, 17:32:33",0.482811178349782,"30","Female","right",0,1,0,0,TRUE,"P_F_esther_mcvey.jpg P_M_boris_johnson.jpg"
1598,"E_F_Kate_Winslet.jpg","P_F_tehresy_may.jpg","FALSE","pictures/stimuli/E","pictures/stimuli/P","F","F","6","559e16a2fdf99b4f0b984e34","11/29/2021, 17:32:33",0.482811178349782,"30","Female","right",0,1,0,0,TRUE,"E_F_Kate_Winslet.jpg P_F_tehresy_may.jpg"
1743,"E_M_anthony_hopkins.jpg","E_M_Hugh_Grant.jpg","TRUE","pictures/stimuli/E","pictures/stimuli/E","M","M","6","559e16a2fdf99b4f0b984e34","11/29/2021, 17:32:33",0.482811178349782,"30","Female","right",0,0,0,0,TRUE,"E_M_anthony_hopkins.jpg E_M_Hugh_Grant.jpg"
3110,"E_F_Judi_Dench.jpg","P_M_donald_trump.jpg","FALSE","pictures/stimuli/E","pictures/stimuli/P","F","M","6","559e16a2fdf99b4f0b984e34","11/29/2021, 17:32:33",0.482811178349782,"30","Female","right",0,1,0,0,TRUE,"E_F_Judi_Dench.jpg P_M_donald_trump.jpg"
1599,"P_F_angela_rayner.jpg","P_F_nicola_sturgeon.jpg","TRUE","pictures/stimuli/P","pictures/stimuli/P","F","F","6","559e16a2fdf99b4f0b984e34","11/29/2021, 17:32:33",0.482811178349782,"30","Female","right",0,0,0,0,TRUE,"P_F_angela_rayner.jpg P_F_nicola_sturgeon.jpg"
1302,"P_F_hillary_clinton.jpg","P_M_bill_clinton.jpg","TRUE","pictures/stimuli/P","pictures/stimuli/P","F","M","6","559e16a2fdf99b4f0b984e34","11/29/2021, 17:32:33",0.482811178349782,"30","Female","right",0,0,0,0,TRUE,"P_F_hillary_clinton.jpg P_M_bill_clinton.jpg"
1142,"E_F_Kate_Winslet.jpg","E_M_anthony_hopkins.jpg","TRUE","pictures/stimuli/E","pictures/stimuli/E","F","M","6","559e16a2fdf99b4f0b984e34","11/29/2021, 17:32:33",0.482811178349782,"30","Female","right",0,0,0,0,TRUE,"E_F_Kate_Winslet.jpg E_M_anthony_hopkins.jpg"
1143,"E_F_Judi_Dench.jpg","E_M_nicolas_cage.jpg","TRUE","pictures/stimuli/E","pictures/stimuli/E","F","M","6","559e16a2fdf99b4f0b984e34","11/29/2021, 17:32:33",0.482811178349782,"30","Female","right",0,1,0,0,TRUE,"E_F_Judi_Dench.jpg E_M_nicolas_cage.jpg"
1464,"E_M_anthony_hopkins.jpg","P_M_george_Wbush.jpg","FALSE","pictures/stimuli/E","pictures/stimuli/P","M","M","6","559e16a2fdf99b4f0b984e34","11/29/2021, 17:32:33",0.482811178349782,"30","Female","right",0,1,0,0,TRUE,"E_M_anthony_hopkins.jpg P_M_george_Wbush.jpg"
1686,"E_F_keira_knightley.jpg","P_M_david_cameron.jpg","FALSE","pictures/stimuli/E","pictures/stimuli/P","F","M","6","559e16a2fdf99b4f0b984e34","11/29/2021, 17:32:33",0.482811178349782,"30","Female","right",0,1,0,0,TRUE,"E_F_keira_knightley.jpg P_M_david_cameron.jpg"
3526,"E_M_anthony_hopkins.jpg","E_M_nicolas_cage.jpg","TRUE","pictures/stimuli/E","pictures/stimuli/E","M","M","6","559e16a2fdf99b4f0b984e34","11/29/2021, 17:32:33",0.482811178349782,"30","Female","right",0,1,0,0,TRUE,"E_M_anthony_hopkins.jpg E_M_nicolas_cage.jpg"
2667,"E_M_liam_neeson.jpg","P_F_PRITI_PATEL.jpg","FALSE","pictures/stimuli/E","pictures/stimuli/P","M","F","6","559e16a2fdf99b4f0b984e34","11/29/2021, 17:32:33",0.482811178349782,"30","Female","right",0,0,0,0,TRUE,"E_M_liam_neeson.jpg P_F_PRITI_PATEL.jpg"
4041,"E_M_Martin_Freeman.jpg","P_F_hillary_clinton.jpg","FALSE","pictures/stimuli/E","pictures/stimuli/P","M","F","4","559e16a2fdf99b4f0b984e34","11/29/2021, 17:32:33",-0.81937664707494,"30","Female","right",0,0,0,0,TRUE,"E_M_Martin_Freeman.jpg P_F_hillary_clinton.jpg"
3937,"E_M_anthony_hopkins.jpg","P_M_boris_johnson.jpg","FALSE","pictures/stimuli/E","pictures/stimuli/P","M","M","6","559e16a2fdf99b4f0b984e34","11/29/2021, 17:32:33",0.482811178349782,"30","Female","right",0,1,0,0,TRUE,"E_M_anthony_hopkins.jpg P_M_boris_johnson.jpg"
2281,"E_M_michael_caine.jpg","P_M_donald_trump.jpg","FALSE","pictures/stimuli/E","pictures/stimuli/P","M","M","6","559e16a2fdf99b4f0b984e34","11/29/2021, 17:32:33",0.482811178349782,"30","Female","right",0,1,0,0,TRUE,"E_M_michael_caine.jpg P_M_donald_trump.jpg"
3238,"E_F_jennifer_aniston.jpg","P_M_boris_johnson.jpg","FALSE","pictures/stimuli/E","pictures/stimuli/P","F","M","4","559e16a2fdf99b4f0b984e34","11/29/2021, 17:32:33",-0.81937664707494,"30","Female","right",1,1,0,0,TRUE,"E_F_jennifer_aniston.jpg P_M_boris_johnson.jpg"
2804,"P_F_PRITI_PATEL.jpg","P_F_tehresy_may.jpg","TRUE","pictures/stimuli/P","pictures/stimuli/P","F","F","6","559e16a2fdf99b4f0b984e34","11/29/2021, 17:32:33",0.482811178349782,"30","Female","right",0,1,0,0,TRUE,"P_F_PRITI_PATEL.jpg P_F_tehresy_may.jpg"
3502,"E_F_angelina_jolie.jpg","P_F_angela_rayner.jpg","FALSE","pictures/stimuli/E","pictures/stimuli/P","F","F","6","559e16a2fdf99b4f0b984e34","11/29/2021, 17:32:33",0.482811178349782,"30","Female","right",1,0,0,0,TRUE,"E_F_angelina_jolie.jpg P_F_angela_rayner.jpg"
1909,"E_M_Hugh_Grant.jpg","P_F_angela_rayner.jpg","FALSE","pictures/stimuli/E","pictures/stimuli/P","M","F","6","559e16a2fdf99b4f0b984e34","11/29/2021, 17:32:33",0.482811178349782,"30","Female","right",0,0,0,0,TRUE,"E_M_Hugh_Grant.jpg P_F_angela_rayner.jpg"
4611,"E_M_robert_de_niro.jpg","P_M_Tony_Blair.jpg","FALSE","pictures/stimuli/E","pictures/stimuli/P","M","M","1","559e16a2fdf99b4f0b984e34","11/29/2021, 17:32:33",-2.77265838521202,"30","Female","right",0,1,0,0,TRUE,"E_M_robert_de_niro.jpg P_M_Tony_Blair.jpg"
9841,"E_M_robert_de_niro.jpg","P_F_hillary_clinton.jpg","FALSE","pictures/stimuli/E","pictures/stimuli/P","M","F","2","559e16a2fdf99b4f0b984e34","11/29/2021, 17:32:33",-2.12156447249966,"30","Female","right",0,0,0,0,TRUE,"E_M_robert_de_niro.jpg P_F_hillary_clinton.jpg"
4830,"P_M_boris_johnson.jpg","P_M_donald_trump.jpg","TRUE","pictures/stimuli/P","pictures/stimuli/P","M","M","2","559e16a2fdf99b4f0b984e34","11/29/2021, 17:32:33",-2.12156447249966,"30","Female","right",1,1,0,0,TRUE,"P_M_boris_johnson.jpg P_M_donald_trump.jpg"
3994,"E_M_nicolas_cage.jpg","E_M_tom_hankes.jpg","TRUE","pictures/stimuli/E","pictures/stimuli/E","M","M","6","559e16a2fdf99b4f0b984e34","11/29/2021, 17:32:33",0.482811178349782,"30","Female","right",1,0,0,0,TRUE,"E_M_nicolas_cage.jpg E_M_tom_hankes.jpg"
2992,"E_F_Judi_Dench.jpg","P_F_nicola_sturgeon.jpg","FALSE","pictures/stimuli/E","pictures/stimuli/P","F","F","4","559e16a2fdf99b4f0b984e34","11/29/2021, 17:32:33",-0.81937664707494,"30","Female","right",0,0,0,0,TRUE,"E_F_Judi_Dench.jpg P_F_nicola_sturgeon.jpg"
2286,"E_M_nicolas_cage.jpg","P_F_hillary_clinton.jpg","FALSE","pictures/stimuli/E","pictures/stimuli/P","M","F","6","559e16a2fdf99b4f0b984e34","11/29/2021, 17:32:33",0.482811178349782,"30","Female","right",1,0,0,0,TRUE,"E_M_nicolas_cage.jpg P_F_hillary_clinton.jpg"
1917,"E_F_jennifer_aniston.jpg","E_M_nicolas_cage.jpg","TRUE","pictures/stimuli/E","pictures/stimuli/E","F","M","6","559e16a2fdf99b4f0b984e34","11/29/2021, 17:32:33",0.482811178349782,"30","Female","right",1,1,0,0,TRUE,"E_F_jennifer_aniston.jpg E_M_nicolas_cage.jpg"
1700,"P_F_nicola_sturgeon.jpg","P_M_donald_trump.jpg","TRUE","pictures/stimuli/P","pictures/stimuli/P","F","M","6","559e16a2fdf99b4f0b984e34","11/29/2021, 17:32:33",0.482811178349782,"30","Female","right",0,1,0,0,TRUE,"P_F_nicola_sturgeon.jpg P_M_donald_trump.jpg"
5030,"E_F_angelina_jolie.jpg","E_M_Hugh_Grant.jpg","TRUE","pictures/stimuli/E","pictures/stimuli/E","F","M","4","559e16a2fdf99b4f0b984e34","11/29/2021, 17:32:33",-0.81937664707494,"30","Female","right",1,0,0,0,TRUE,"E_F_angelina_jolie.jpg E_M_Hugh_Grant.jpg"
2000,"E_F_Judi_Dench.jpg","P_M_bill_clinton.jpg","FALSE","pictures/stimuli/E","pictures/stimuli/P","F","M","6","559e16a2fdf99b4f0b984e34","11/29/2021, 17:32:33",0.482811178349782,"30","Female","right",0,0,0,0,TRUE,"E_F_Judi_Dench.jpg P_M_bill_clinton.jpg"
2553,"E_F_sandra_bullock.jpg","P_M_david_cameron.jpg","FALSE","pictures/stimuli/E","pictures/stimuli/P","F","M","6","559e16a2fdf99b4f0b984e34","11/29/2021, 17:32:33",0.482811178349782,"30","Female","right",0,1,0,0,TRUE,"E_F_sandra_bullock.jpg P_M_david_cameron.jpg"
3315,"E_M_tom_hankes.jpg","P_F_PRITI_PATEL.jpg","FALSE","pictures/stimuli/E","pictures/stimuli/P","M","F","6","559e16a2fdf99b4f0b984e34","11/29/2021, 17:32:33",0.482811178349782,"30","Female","right",0,0,0,0,TRUE,"E_M_tom_hankes.jpg P_F_PRITI_PATEL.jpg"
4166,"E_F_jennifer_aniston.jpg","E_F_sandra_bullock.jpg","TRUE","pictures/stimuli/E","pictures/stimuli/E","F","F","4","559e16a2fdf99b4f0b984e34","11/29/2021, 17:32:33",-0.81937664707494,"30","Female","right",1,0,0,0,TRUE,"E_F_jennifer_aniston.jpg E_F_sandra_bullock.jpg"
4254,"E_F_Judi_Dench.jpg","P_F_angela_rayner.jpg","FALSE","pictures/stimuli/E","pictures/stimuli/P","F","F","4","559e16a2fdf99b4f0b984e34","11/29/2021, 17:32:33",-0.81937664707494,"30","Female","right",0,0,0,0,TRUE,"E_F_Judi_Dench.jpg P_F_angela_rayner.jpg"
1411,"E_F_Judi_Dench.jpg","E_M_michael_caine.jpg","TRUE","pictures/stimuli/E","pictures/stimuli/E","F","M","4","559e16a2fdf99b4f0b984e34","11/29/2021, 17:32:33",-0.81937664707494,"30","Female","right",0,0,0,0,TRUE,"E_F_Judi_Dench.jpg E_M_michael_caine.jpg"
5042,"E_F_sandra_bullock.jpg","P_F_nicola_sturgeon.jpg","FALSE","pictures/stimuli/E","pictures/stimuli/P","F","F","4","559e16a2fdf99b4f0b984e34","11/29/2021, 17:32:33",-0.81937664707494,"30","Female","right",0,0,0,0,TRUE,"E_F_sandra_bullock.jpg P_F_nicola_sturgeon.jpg"
4017,"P_F_hillary_clinton.jpg","P_M_david_cameron.jpg","TRUE","pictures/stimuli/P","pictures/stimuli/P","F","M","2","559e16a2fdf99b4f0b984e34","11/29/2021, 17:32:33",-2.12156447249966,"30","Female","right",0,1,0,0,TRUE,"P_F_hillary_clinton.jpg P_M_david_cameron.jpg"
3807,"E_F_angelina_jolie.jpg","P_F_PRITI_PATEL.jpg","FALSE","pictures/stimuli/E","pictures/stimuli/P","F","F","1","559e16a2fdf99b4f0b984e34","11/29/2021, 17:32:33",-2.77265838521202,"30","Female","right",1,0,0,0,TRUE,"E_F_angelina_jolie.jpg P_F_PRITI_PATEL.jpg"
3125,"E_M_robert_de_niro.jpg","P_F_tehresy_may.jpg","FALSE","pictures/stimuli/E","pictures/stimuli/P","M","F","6","559e16a2fdf99b4f0b984e34","11/29/2021, 17:32:33",0.482811178349782,"30","Female","right",0,1,0,0,TRUE,"E_M_robert_de_niro.jpg P_F_tehresy_may.jpg"
8938,"E_M_Hugh_Grant.jpg","P_M_david_cameron.jpg","FALSE","pictures/stimuli/E","pictures/stimuli/P","M","M","4","559e16a2fdf99b4f0b984e34","11/29/2021, 17:32:33",-0.81937664707494,"30","Female","right",0,1,0,0,TRUE,"E_M_Hugh_Grant.jpg P_M_david_cameron.jpg"
3907,"P_M_david_cameron.jpg","P_M_george_Wbush.jpg","TRUE","pictures/stimuli/P","pictures/stimuli/P","M","M","6","559e16a2fdf99b4f0b984e34","11/29/2021, 17:32:33",0.482811178349782,"30","Female","right",1,1,0,0,TRUE,"P_M_david_cameron.jpg P_M_george_Wbush.jpg"
2218,"P_F_angela_rayner.jpg","P_M_boris_johnson.jpg","TRUE","pictures/stimuli/P","pictures/stimuli/P","F","M","6","559e16a2fdf99b4f0b984e34","11/29/2021, 17:32:33",0.482811178349782,"30","Female","right",0,1,0,0,TRUE,"P_F_angela_rayner.jpg P_M_boris_johnson.jpg"
2670,"E_F_sandra_bullock.jpg","E_M_michael_caine.jpg","TRUE","pictures/stimuli/E","pictures/stimuli/E","F","M","6","559e16a2fdf99b4f0b984e34","11/29/2021, 17:32:33",0.482811178349782,"30","Female","right",0,0,0,0,TRUE,"E_F_sandra_bullock.jpg E_M_michael_caine.jpg"
3544,"P_F_angela_rayner.jpg","P_M_Tony_Blair.jpg","TRUE","pictures/stimuli/P","pictures/stimuli/P","F","M","6","559e16a2fdf99b4f0b984e34","11/29/2021, 17:32:33",0.482811178349782,"30","Female","right",0,1,0,0,TRUE,"P_F_angela_rayner.jpg P_M_Tony_Blair.jpg"
5340,"P_M_boris_johnson.jpg","P_M_david_cameron.jpg","TRUE","pictures/stimuli/P","pictures/stimuli/P","M","M","2","559e16a2fdf99b4f0b984e34","11/29/2021, 17:32:33",-2.12156447249966,"30","Female","right",1,1,0,0,TRUE,"P_M_boris_johnson.jpg P_M_david_cameron.jpg"
2533,"E_M_nicolas_cage.jpg","P_F_tehresy_may.jpg","FALSE","pictures/stimuli/E","pictures/stimuli/P","M","F","6","559e16a2fdf99b4f0b984e34","11/29/2021, 17:32:33",0.482811178349782,"30","Female","right",1,1,0,0,TRUE,"E_M_nicolas_cage.jpg P_F_tehresy_may.jpg"
2382,"E_M_robert_de_niro.jpg","P_M_donald_trump.jpg","FALSE","pictures/stimuli/E","pictures/stimuli/P","M","M","6","559e16a2fdf99b4f0b984e34","11/29/2021, 17:32:33",0.482811178349782,"30","Female","right",0,1,0,0,TRUE,"E_M_robert_de_niro.jpg P_M_donald_trump.jpg"
2464,"E_F_angelina_jolie.jpg","P_M_david_cameron.jpg","FALSE","pictures/stimuli/E","pictures/stimuli/P","F","M","6","559e16a2fdf99b4f0b984e34","11/29/2021, 17:32:33",0.482811178349782,"30","Female","right",1,1,0,0,TRUE,"E_F_angelina_jolie.jpg P_M_david_cameron.jpg"
2153,"E_F_Judi_Dench.jpg","P_F_tehresy_may.jpg","FALSE","pictures/stimuli/E","pictures/stimuli/P","F","F","6","559e16a2fdf99b4f0b984e34","11/29/2021, 17:32:33",0.482811178349782,"30","Female","right",0,1,0,0,TRUE,"E_F_Judi_Dench.jpg P_F_tehresy_may.jpg"
4309,"E_F_jennifer_aniston.jpg","P_F_PRITI_PATEL.jpg","FALSE","pictures/stimuli/E","pictures/stimuli/P","F","F","4","559e16a2fdf99b4f0b984e34","11/29/2021, 17:32:33",-0.81937664707494,"30","Female","right",1,0,0,0,TRUE,"E_F_jennifer_aniston.jpg P_F_PRITI_PATEL.jpg"
2247,"E_F_angelina_jolie.jpg","E_M_michael_caine.jpg","TRUE","pictures/stimuli/E","pictures/stimuli/E","F","M","6","559e16a2fdf99b4f0b984e34","11/29/2021, 17:32:33",0.482811178349782,"30","Female","right",1,0,0,0,TRUE,"E_F_angelina_jolie.jpg E_M_michael_caine.jpg"
2845,"E_F_Judi_Dench.jpg","E_F_Kate_Winslet.jpg","TRUE","pictures/stimuli/E","pictures/stimuli/E","F","F","6","559e16a2fdf99b4f0b984e34","11/29/2021, 17:32:33",0.482811178349782,"30","Female","right",0,0,0,0,TRUE,"E_F_Judi_Dench.jpg E_F_Kate_Winslet.jpg"
6366,"E_M_anthony_hopkins.jpg","E_M_robert_de_niro.jpg","TRUE","pictures/stimuli/E","pictures/stimuli/E","M","M","1","559e16a2fdf99b4f0b984e34","11/29/2021, 17:32:33",-2.77265838521202,"30","Female","right",0,0,0,0,TRUE,"E_M_anthony_hopkins.jpg E_M_robert_de_niro.jpg"
2121,"E_F_angelina_jolie.jpg","E_M_liam_neeson.jpg","TRUE","pictures/stimuli/E","pictures/stimuli/E","F","M","6","559e16a2fdf99b4f0b984e34","11/29/2021, 17:32:33",0.482811178349782,"30","Female","right",1,0,0,0,TRUE,"E_F_angelina_jolie.jpg E_M_liam_neeson.jpg"
2728,"E_F_keira_knightley.jpg","P_M_george_Wbush.jpg","FALSE","pictures/stimuli/E","pictures/stimuli/P","F","M","6","559e16a2fdf99b4f0b984e34","11/29/2021, 17:32:33",0.482811178349782,"30","Female","right",0,1,0,0,TRUE,"E_F_keira_knightley.jpg P_M_george_Wbush.jpg"
2834,"E_F_Kate_Winslet.jpg","P_M_david_cameron.jpg","FALSE","pictures/stimuli/E","pictures/stimuli/P","F","M","6","559e16a2fdf99b4f0b984e34","11/29/2021, 17:32:33",0.482811178349782,"30","Female","right",0,1,0,0,TRUE,"E_F_Kate_Winslet.jpg P_M_david_cameron.jpg"
4965,"P_M_david_cameron.jpg","P_M_Tony_Blair.jpg","TRUE","pictures/stimuli/P","pictures/stimuli/P","M","M","4","559e16a2fdf99b4f0b984e34","11/29/2021, 17:32:33",-0.81937664707494,"30","Female","right",1,1,0,0,TRUE,"P_M_david_cameron.jpg P_M_Tony_Blair.jpg"
4037,"E_F_Kate_Winslet.jpg","E_F_sandra_bullock.jpg","TRUE","pictures/stimuli/E","pictures/stimuli/E","F","F","6","559e16a2fdf99b4f0b984e34","11/29/2021, 17:32:33",0.482811178349782,"30","Female","right",0,0,0,0,TRUE,"E_F_Kate_Winslet.jpg E_F_sandra_bullock.jpg"
3260,"E_F_jennifer_aniston.jpg","E_F_Kate_Winslet.jpg","TRUE","pictures/stimuli/E","pictures/stimuli/E","F","F","6","559e16a2fdf99b4f0b984e34","11/29/2021, 17:32:33",0.482811178349782,"30","Female","right",1,0,0,0,TRUE,"E_F_jennifer_aniston.jpg E_F_Kate_Winslet.jpg"
2176,"E_M_Martin_Freeman.jpg","P_M_Tony_Blair.jpg","FALSE","pictures/stimuli/E","pictures/stimuli/P","M","M","6","559e16a2fdf99b4f0b984e34","11/29/2021, 17:32:33",0.482811178349782,"30","Female","right",0,1,0,0,TRUE,"E_M_Martin_Freeman.jpg P_M_Tony_Blair.jpg"
3510,"E_M_liam_neeson.jpg","P_M_david_cameron.jpg","FALSE","pictures/stimuli/E","pictures/stimuli/P","M","M","4","559e16a2fdf99b4f0b984e34","11/29/2021, 17:32:33",-0.81937664707494,"30","Female","right",0,1,0,0,TRUE,"E_M_liam_neeson.jpg P_M_david_cameron.jpg"
1582,"P_M_david_cameron.jpg","P_M_donald_trump.jpg","TRUE","pictures/stimuli/P","pictures/stimuli/P","M","M","4","559e16a2fdf99b4f0b984e34","11/29/2021, 17:32:33",-0.81937664707494,"30","Female","right",1,1,0,0,TRUE,"P_M_david_cameron.jpg P_M_donald_trump.jpg"
2430,"E_F_jennifer_aniston.jpg","E_M_Martin_Freeman.jpg","TRUE","pictures/stimuli/E","pictures/stimuli/E","F","M","4","559e16a2fdf99b4f0b984e34","11/29/2021, 17:32:33",-0.81937664707494,"30","Female","right",1,0,0,0,TRUE,"E_F_jennifer_aniston.jpg E_M_Martin_Freeman.jpg"
4102,"E_M_Martin_Freeman.jpg","P_F_PRITI_PATEL.jpg","FALSE","pictures/stimuli/E","pictures/stimuli/P","M","F","4","559e16a2fdf99b4f0b984e34","11/29/2021, 17:32:33",-0.81937664707494,"30","Female","right",0,0,0,0,TRUE,"E_M_Martin_Freeman.jpg P_F_PRITI_PATEL.jpg"
6979,"E_M_anthony_hopkins.jpg","P_M_bill_clinton.jpg","FALSE","pictures/stimuli/E","pictures/stimuli/P","M","M","6","559e16a2fdf99b4f0b984e34","11/29/2021, 17:32:33",0.482811178349782,"30","Female","right",0,0,0,0,TRUE,"E_M_anthony_hopkins.jpg P_M_bill_clinton.jpg"
3007,"E_M_anthony_hopkins.jpg","P_F_nicola_sturgeon.jpg","FALSE","pictures/stimuli/E","pictures/stimuli/P","M","F","6","559e16a2fdf99b4f0b984e34","11/29/2021, 17:32:33",0.482811178349782,"30","Female","right",0,0,0,0,TRUE,"E_M_anthony_hopkins.jpg P_F_nicola_sturgeon.jpg"
1893,"E_M_Hugh_Grant.jpg","P_F_nicola_sturgeon.jpg","FALSE","pictures/stimuli/E","pictures/stimuli/P","M","F","6","559e16a2fdf99b4f0b984e34","11/29/2021, 17:32:33",0.482811178349782,"30","Female","right",0,0,0,0,TRUE,"E_M_Hugh_Grant.jpg P_F_nicola_sturgeon.jpg"
6658,"E_M_nicolas_cage.jpg","P_M_george_Wbush.jpg","FALSE","pictures/stimuli/E","pictures/stimuli/P","M","M","4","559e16a2fdf99b4f0b984e34","11/29/2021, 17:32:33",-0.81937664707494,"30","Female","right",1,1,0,0,TRUE,"E_M_nicolas_cage.jpg P_M_george_Wbush.jpg"
2714,"P_M_bill_clinton.jpg","P_M_Tony_Blair.jpg","TRUE","pictures/stimuli/P","pictures/stimuli/P","M","M","6","559e16a2fdf99b4f0b984e34","11/29/2021, 17:32:33",0.482811178349782,"30","Female","right",0,1,0,0,TRUE,"P_M_bill_clinton.jpg P_M_Tony_Blair.jpg"
3403,"E_M_Martin_Freeman.jpg","P_F_nicola_sturgeon.jpg","FALSE","pictures/stimuli/E","pictures/stimuli/P","M","F","6","559e16a2fdf99b4f0b984e34","11/29/2021, 17:32:33",0.482811178349782,"30","Female","right",0,0,0,0,TRUE,"E_M_Martin_Freeman.jpg P_F_nicola_sturgeon.jpg"
2022,"E_F_Kate_Winslet.jpg","E_M_Hugh_Grant.jpg","TRUE","pictures/stimuli/E","pictures/stimuli/E","F","M","6","559e16a2fdf99b4f0b984e34","11/29/2021, 17:32:33",0.482811178349782,"30","Female","right",0,0,0,0,TRUE,"E_F_Kate_Winslet.jpg E_M_Hugh_Grant.jpg"
4016,"E_F_angelina_jolie.jpg","P_F_nicola_sturgeon.jpg","FALSE","pictures/stimuli/E","pictures/stimuli/P","F","F","6","559e16a2fdf99b4f0b984e34","11/29/2021, 17:32:33",0.482811178349782,"30","Female","right",1,0,0,0,TRUE,"E_F_angelina_jolie.jpg P_F_nicola_sturgeon.jpg"
3693,"P_F_angela_rayner.jpg","P_M_george_Wbush.jpg","TRUE","pictures/stimuli/P","pictures/stimuli/P","F","M","6","559e16a2fdf99b4f0b984e34","11/29/2021, 17:32:33",0.482811178349782,"30","Female","right",0,1,0,0,TRUE,"P_F_angela_rayner.jpg P_M_george_Wbush.jpg"
3906,"P_F_hillary_clinton.jpg","P_M_george_Wbush.jpg","TRUE","pictures/stimuli/P","pictures/stimuli/P","F","M","6","559e16a2fdf99b4f0b984e34","11/29/2021, 17:32:33",0.482811178349782,"30","Female","right",0,1,0,0,TRUE,"P_F_hillary_clinton.jpg P_M_george_Wbush.jpg"
3227,"E_M_Martin_Freeman.jpg","P_M_donald_trump.jpg","FALSE","pictures/stimuli/E","pictures/stimuli/P","M","M","6","559e16a2fdf99b4f0b984e34","11/29/2021, 17:32:33",0.482811178349782,"30","Female","right",0,1,0,0,TRUE,"E_M_Martin_Freeman.jpg P_M_donald_trump.jpg"
3306,"E_M_nicolas_cage.jpg","P_F_angela_rayner.jpg","FALSE","pictures/stimuli/E","pictures/stimuli/P","M","F","4","559e16a2fdf99b4f0b984e34","11/29/2021, 17:32:33",-0.81937664707494,"30","Female","right",1,0,0,0,TRUE,"E_M_nicolas_cage.jpg P_F_angela_rayner.jpg"
3270,"E_F_Kate_Winslet.jpg","E_M_michael_caine.jpg","TRUE","pictures/stimuli/E","pictures/stimuli/E","F","M","6","559e16a2fdf99b4f0b984e34","11/29/2021, 17:32:33",0.482811178349782,"30","Female","right",0,0,0,0,TRUE,"E_F_Kate_Winslet.jpg E_M_michael_caine.jpg"
5614,"E_F_sandra_bullock.jpg","P_M_boris_johnson.jpg","FALSE","pictures/stimuli/E","pictures/stimuli/P","F","M","3","559e16a2fdf99b4f0b984e34","11/29/2021, 17:32:33",-1.4704705597873,"30","Female","right",0,1,0,0,TRUE,"E_F_sandra_bullock.jpg P_M_boris_johnson.jpg"
7237,"P_F_nicola_sturgeon.jpg","P_M_Tony_Blair.jpg","TRUE","pictures/stimuli/P","pictures/stimuli/P","F","M","1","559e16a2fdf99b4f0b984e34","11/29/2021, 17:32:33",-2.77265838521202,"30","Female","right",0,1,0,0,TRUE,"P_F_nicola_sturgeon.jpg P_M_Tony_Blair.jpg"
5831,"E_M_liam_neeson.jpg","P_M_donald_trump.jpg","FALSE","pictures/stimuli/E","pictures/stimuli/P","M","M","1","559e16a2fdf99b4f0b984e34","11/29/2021, 17:32:33",-2.77265838521202,"30","Female","right",0,1,0,0,TRUE,"E_M_liam_neeson.jpg P_M_donald_trump.jpg"
5640,"E_F_angelina_jolie.jpg","E_M_Martin_Freeman.jpg","TRUE","pictures/stimuli/E","pictures/stimuli/E","F","M","6","559e16a2fdf99b4f0b984e34","11/29/2021, 17:32:33",0.482811178349782,"30","Female","right",1,0,0,0,TRUE,"E_F_angelina_jolie.jpg E_M_Martin_Freeman.jpg"
1792,"E_F_Judi_Dench.jpg","E_M_robert_de_niro.jpg","TRUE","pictures/stimuli/E","pictures/stimuli/E","F","M","6","559e16a2fdf99b4f0b984e34","11/29/2021, 17:32:33",0.482811178349782,"30","Female","right",0,0,0,0,TRUE,"E_F_Judi_Dench.jpg E_M_robert_de_niro.jpg"
2514,"E_M_michael_caine.jpg","E_M_tom_hankes.jpg","TRUE","pictures/stimuli/E","pictures/stimuli/E","M","M","6","559e16a2fdf99b4f0b984e34","11/29/2021, 17:32:33",0.482811178349782,"30","Female","right",0,0,0,0,TRUE,"E_M_michael_caine.jpg E_M_tom_hankes.jpg"
7303,"E_F_angelina_jolie.jpg","E_F_sandra_bullock.jpg","TRUE","pictures/stimuli/E","pictures/stimuli/E","F","F","1","559e16a2fdf99b4f0b984e34","11/29/2021, 17:32:33",-2.77265838521202,"30","Female","right",1,0,0,0,TRUE,"E_F_angelina_jolie.jpg E_F_sandra_bullock.jpg"
4322,"E_M_anthony_hopkins.jpg","E_M_tom_hankes.jpg","TRUE","pictures/stimuli/E","pictures/stimuli/E","M","M","6","559e16a2fdf99b4f0b984e34","11/29/2021, 17:32:33",0.482811178349782,"30","Female","right",0,0,0,0,TRUE,"E_M_anthony_hopkins.jpg E_M_tom_hankes.jpg"
5462,"E_F_Judi_Dench.jpg","E_M_liam_neeson.jpg","TRUE","pictures/stimuli/E","pictures/stimuli/E","F","M","6","559e16a2fdf99b4f0b984e34","11/29/2021, 17:32:33",0.482811178349782,"30","Female","right",0,0,0,0,TRUE,"E_F_Judi_Dench.jpg E_M_liam_neeson.jpg"
4575,"E_M_Hugh_Grant.jpg","P_F_hillary_clinton.jpg","FALSE","pictures/stimuli/E","pictures/stimuli/P","M","F","6","559e16a2fdf99b4f0b984e34","11/29/2021, 17:32:33",0.482811178349782,"30","Female","right",0,0,0,0,TRUE,"E_M_Hugh_Grant.jpg P_F_hillary_clinton.jpg"
2790,"E_M_liam_neeson.jpg","P_F_tehresy_may.jpg","FALSE","pictures/stimuli/E","pictures/stimuli/P","M","F","6","559e16a2fdf99b4f0b984e34","11/29/2021, 17:32:33",0.482811178349782,"30","Female","right",0,1,0,0,TRUE,"E_M_liam_neeson.jpg P_F_tehresy_may.jpg"
2271,"P_F_esther_mcvey.jpg","P_M_david_cameron.jpg","TRUE","pictures/stimuli/P","pictures/stimuli/P","F","M","6","559e16a2fdf99b4f0b984e34","11/29/2021, 17:32:33",0.482811178349782,"30","Female","right",0,1,0,0,TRUE,"P_F_esther_mcvey.jpg P_M_david_cameron.jpg"
1862,"P_F_tehresy_may.jpg","P_M_boris_johnson.jpg","TRUE","pictures/stimuli/P","pictures/stimuli/P","F","M","6","559e16a2fdf99b4f0b984e34","11/29/2021, 17:32:33",0.482811178349782,"30","Female","right",1,1,0,0,TRUE,"P_F_tehresy_may.jpg P_M_boris_johnson.jpg"
3668,"E_F_jennifer_aniston.jpg","E_M_tom_hankes.jpg","TRUE","pictures/stimuli/E","pictures/stimuli/E","F","M","6","559e16a2fdf99b4f0b984e34","11/29/2021, 17:32:33",0.482811178349782,"30","Female","right",1,0,0,0,TRUE,"E_F_jennifer_aniston.jpg E_M_tom_hankes.jpg"
5859,"P_F_esther_mcvey.jpg","P_M_bill_clinton.jpg","TRUE","pictures/stimuli/P","pictures/stimuli/P","F","M","6","559e16a2fdf99b4f0b984e34","11/29/2021, 17:32:33",0.482811178349782,"30","Female","right",0,0,0,0,TRUE,"P_F_esther_mcvey.jpg P_M_bill_clinton.jpg"
2967,"E_F_jennifer_aniston.jpg","P_M_Tony_Blair.jpg","FALSE","pictures/stimuli/E","pictures/stimuli/P","F","M","4","559e16a2fdf99b4f0b984e34","11/29/2021, 17:32:33",-0.81937664707494,"30","Female","right",1,1,0,0,TRUE,"E_F_jennifer_aniston.jpg P_M_Tony_Blair.jpg"
5128,"P_F_angela_rayner.jpg","P_M_bill_clinton.jpg","TRUE","pictures/stimuli/P","pictures/stimuli/P","F","M","4","559e16a2fdf99b4f0b984e34","11/29/2021, 17:32:33",-0.81937664707494,"30","Female","right",0,0,0,0,TRUE,"P_F_angela_rayner.jpg P_M_bill_clinton.jpg"
2820,"E_M_robert_de_niro.jpg","P_M_bill_clinton.jpg","FALSE","pictures/stimuli/E","pictures/stimuli/P","M","M","6","559e16a2fdf99b4f0b984e34","11/29/2021, 17:32:33",0.482811178349782,"30","Female","right",0,0,0,0,TRUE,"E_M_robert_de_niro.jpg P_M_bill_clinton.jpg"
4244,"E_F_sandra_bullock.jpg","E_M_robert_de_niro.jpg","TRUE","pictures/stimuli/E","pictures/stimuli/E","F","M","4","559e16a2fdf99b4f0b984e34","11/29/2021, 17:32:33",-0.81937664707494,"30","Female","right",0,0,0,0,TRUE,"E_F_sandra_bullock.jpg E_M_robert_de_niro.jpg"
3565,"E_F_sandra_bullock.jpg","P_F_hillary_clinton.jpg","FALSE","pictures/stimuli/E","pictures/stimuli/P","F","F","6","559e16a2fdf99b4f0b984e34","11/29/2021, 17:32:33",0.482811178349782,"30","Female","right",0,0,0,0,TRUE,"E_F_sandra_bullock.jpg P_F_hillary_clinton.jpg"
4057,"E_F_jennifer_aniston.jpg","P_F_angela_rayner.jpg","FALSE","pictures/stimuli/E","pictures/stimuli/P","F","F","3","559e16a2fdf99b4f0b984e34","11/29/2021, 17:32:33",-1.4704705597873,"30","Female","right",1,0,0,0,TRUE,"E_F_jennifer_aniston.jpg P_F_angela_rayner.jpg"
3240,"E_F_jennifer_aniston.jpg","P_M_george_Wbush.jpg","FALSE","pictures/stimuli/E","pictures/stimuli/P","F","M","3","559e16a2fdf99b4f0b984e34","11/29/2021, 17:32:33",-1.4704705597873,"30","Female","right",1,1,0,0,TRUE,"E_F_jennifer_aniston.jpg P_M_george_Wbush.jpg"
4057,"E_F_jennifer_aniston.jpg","E_F_keira_knightley.jpg","TRUE","pictures/stimuli/E","pictures/stimuli/E","F","F","1","559e16a2fdf99b4f0b984e34","11/29/2021, 17:32:33",-2.77265838521202,"30","Female","right",1,0,0,0,TRUE,"E_F_jennifer_aniston.jpg E_F_keira_knightley.jpg"
2585,"E_M_Hugh_Grant.jpg","P_F_tehresy_may.jpg","FALSE","pictures/stimuli/E","pictures/stimuli/P","M","F","6","559e16a2fdf99b4f0b984e34","11/29/2021, 17:32:33",0.482811178349782,"30","Female","right",0,1,0,0,TRUE,"E_M_Hugh_Grant.jpg P_F_tehresy_may.jpg"
5475,"E_F_Judi_Dench.jpg","E_M_anthony_hopkins.jpg","TRUE","pictures/stimuli/E","pictures/stimuli/E","F","M","6","559e16a2fdf99b4f0b984e34","11/29/2021, 17:32:33",0.482811178349782,"30","Female","right",0,0,0,0,TRUE,"E_F_Judi_Dench.jpg E_M_anthony_hopkins.jpg"
3935,"P_F_PRITI_PATEL.jpg","P_M_boris_johnson.jpg","TRUE","pictures/stimuli/P","pictures/stimuli/P","F","M","1","559e16a2fdf99b4f0b984e34","11/29/2021, 17:32:33",-2.77265838521202,"30","Female","right",0,1,0,0,TRUE,"P_F_PRITI_PATEL.jpg P_M_boris_johnson.jpg"
4276,"E_F_Kate_Winslet.jpg","P_M_bill_clinton.jpg","FALSE","pictures/stimuli/E","pictures/stimuli/P","F","M","6","559e16a2fdf99b4f0b984e34","11/29/2021, 17:32:33",0.482811178349782,"30","Female","right",0,0,0,0,TRUE,"E_F_Kate_Winslet.jpg P_M_bill_clinton.jpg"
2979,"P_F_PRITI_PATEL.jpg","P_M_bill_clinton.jpg","TRUE","pictures/stimuli/P","pictures/stimuli/P","F","M","6","559e16a2fdf99b4f0b984e34","11/29/2021, 17:32:33",0.482811178349782,"30","Female","right",0,0,0,0,TRUE,"P_F_PRITI_PATEL.jpg P_M_bill_clinton.jpg"
3397,"E_F_keira_knightley.jpg","P_F_hillary_clinton.jpg","FALSE","pictures/stimuli/E","pictures/stimuli/P","F","F","6","559e16a2fdf99b4f0b984e34","11/29/2021, 17:32:33",0.482811178349782,"30","Female","right",0,0,0,0,TRUE,"E_F_keira_knightley.jpg P_F_hillary_clinton.jpg"
4614,"E_M_tom_hankes.jpg","P_M_david_cameron.jpg","FALSE","pictures/stimuli/E","pictures/stimuli/P","M","M","6","559e16a2fdf99b4f0b984e34","11/29/2021, 17:32:33",0.482811178349782,"30","Female","right",0,1,0,0,TRUE,"E_M_tom_hankes.jpg P_M_david_cameron.jpg"
2782,"E_F_Kate_Winslet.jpg","P_F_PRITI_PATEL.jpg","FALSE","pictures/stimuli/E","pictures/stimuli/P","F","F","6","559e16a2fdf99b4f0b984e34","11/29/2021, 17:32:33",0.482811178349782,"30","Female","right",0,0,0,0,TRUE,"E_F_Kate_Winslet.jpg P_F_PRITI_PATEL.jpg"
3806,"E_M_michael_caine.jpg","P_M_bill_clinton.jpg","FALSE","pictures/stimuli/E","pictures/stimuli/P","M","M","6","559e16a2fdf99b4f0b984e34","11/29/2021, 17:32:33",0.482811178349782,"30","Female","right",0,0,0,0,TRUE,"E_M_michael_caine.jpg P_M_bill_clinton.jpg"
4590,"P_F_hillary_clinton.jpg","P_M_boris_johnson.jpg","TRUE","pictures/stimuli/P","pictures/stimuli/P","F","M","1","559e16a2fdf99b4f0b984e34","11/29/2021, 17:32:33",-2.77265838521202,"30","Female","right",0,1,0,0,TRUE,"P_F_hillary_clinton.jpg P_M_boris_johnson.jpg"
3621,"E_M_nicolas_cage.jpg","P_M_bill_clinton.jpg","FALSE","pictures/stimuli/E","pictures/stimuli/P","M","M","1","559e16a2fdf99b4f0b984e34","11/29/2021, 17:32:33",-2.77265838521202,"30","Female","right",1,0,0,0,TRUE,"E_M_nicolas_cage.jpg P_M_bill_clinton.jpg"
3660,"E_M_Hugh_Grant.jpg","E_M_robert_de_niro.jpg","TRUE","pictures/stimuli/E","pictures/stimuli/E","M","M","6","559e16a2fdf99b4f0b984e34","11/29/2021, 17:32:33",0.482811178349782,"30","Female","right",0,0,0,0,TRUE,"E_M_Hugh_Grant.jpg E_M_robert_de_niro.jpg"
5214,"E_M_robert_de_niro.jpg","P_F_angela_rayner.jpg","FALSE","pictures/stimuli/E","pictures/stimuli/P","M","F","1","559e16a2fdf99b4f0b984e34","11/29/2021, 17:32:33",-2.77265838521202,"30","Female","right",0,0,0,0,TRUE,"E_M_robert_de_niro.jpg P_F_angela_rayner.jpg"
4462,"E_M_robert_de_niro.jpg","P_F_PRITI_PATEL.jpg","FALSE","pictures/stimuli/E","pictures/stimuli/P","M","F","4","559e16a2fdf99b4f0b984e34","11/29/2021, 17:32:33",-0.81937664707494,"30","Female","right",0,0,0,0,TRUE,"E_M_robert_de_niro.jpg P_F_PRITI_PATEL.jpg"
3804,"E_F_sandra_bullock.jpg","E_M_Hugh_Grant.jpg","TRUE","pictures/stimuli/E","pictures/stimuli/E","F","M","4","559e16a2fdf99b4f0b984e34","11/29/2021, 17:32:33",-0.81937664707494,"30","Female","right",0,0,0,0,TRUE,"E_F_sandra_bullock.jpg E_M_Hugh_Grant.jpg"
4385,"E_M_anthony_hopkins.jpg","E_M_liam_neeson.jpg","TRUE","pictures/stimuli/E","pictures/stimuli/E","M","M","4","559e16a2fdf99b4f0b984e34","11/29/2021, 17:32:33",-0.81937664707494,"30","Female","right",0,0,0,0,TRUE,"E_M_anthony_hopkins.jpg E_M_liam_neeson.jpg"
3817,"E_F_keira_knightley.jpg","P_F_PRITI_PATEL.jpg","FALSE","pictures/stimuli/E","pictures/stimuli/P","F","F","1","559e16a2fdf99b4f0b984e34","11/29/2021, 17:32:33",-2.77265838521202,"30","Female","right",0,0,0,0,TRUE,"E_F_keira_knightley.jpg P_F_PRITI_PATEL.jpg"
7455,"E_F_angelina_jolie.jpg","E_F_Kate_Winslet.jpg","TRUE","pictures/stimuli/E","pictures/stimuli/E","F","F","1","559e16a2fdf99b4f0b984e34","11/29/2021, 17:32:33",-2.77265838521202,"30","Female","right",1,0,0,0,TRUE,"E_F_angelina_jolie.jpg E_F_Kate_Winslet.jpg"
2796,"E_F_keira_knightley.jpg","E_M_tom_hankes.jpg","TRUE","pictures/stimuli/E","pictures/stimuli/E","F","M","6","559e16a2fdf99b4f0b984e34","11/29/2021, 17:32:33",0.482811178349782,"30","Female","right",0,0,0,0,TRUE,"E_F_keira_knightley.jpg E_M_tom_hankes.jpg"
4316,"P_F_angela_rayner.jpg","P_F_hillary_clinton.jpg","TRUE","pictures/stimuli/P","pictures/stimuli/P","F","F","6","559e16a2fdf99b4f0b984e34","11/29/2021, 17:32:33",0.482811178349782,"30","Female","right",0,0,0,0,TRUE,"P_F_angela_rayner.jpg P_F_hillary_clinton.jpg"
3568,"P_F_angela_rayner.jpg","P_F_esther_mcvey.jpg","TRUE","pictures/stimuli/P","pictures/stimuli/P","F","F","1","559e16a2fdf99b4f0b984e34","11/29/2021, 17:32:33",-2.77265838521202,"30","Female","right",0,0,0,0,TRUE,"P_F_angela_rayner.jpg P_F_esther_mcvey.jpg"
4351,"E_M_Hugh_Grant.jpg","E_M_liam_neeson.jpg","TRUE","pictures/stimuli/E","pictures/stimuli/E","M","M","6","559e16a2fdf99b4f0b984e34","11/29/2021, 17:32:33",0.482811178349782,"30","Female","right",0,0,0,0,TRUE,"E_M_Hugh_Grant.jpg E_M_liam_neeson.jpg"
2977,"E_F_sandra_bullock.jpg","E_M_tom_hankes.jpg","TRUE","pictures/stimuli/E","pictures/stimuli/E","F","M","6","559e16a2fdf99b4f0b984e34","11/29/2021, 17:32:33",0.482811178349782,"30","Female","right",0,0,0,0,TRUE,"E_F_sandra_bullock.jpg E_M_tom_hankes.jpg"
4322,"E_F_Judi_Dench.jpg","E_M_Martin_Freeman.jpg","TRUE","pictures/stimuli/E","pictures/stimuli/E","F","M","6","559e16a2fdf99b4f0b984e34","11/29/2021, 17:32:33",0.482811178349782,"30","Female","right",0,0,0,0,TRUE,"E_F_Judi_Dench.jpg E_M_Martin_Freeman.jpg"
21786,"E_F_jennifer_aniston.jpg","P_M_donald_trump.jpg","FALSE","pictures/stimuli/E","pictures/stimuli/P","F","M","6","559e16a2fdf99b4f0b984e34","11/29/2021, 17:32:33",0.482811178349782,"30","Female","right",1,1,0,0,TRUE,"E_F_jennifer_aniston.jpg P_M_donald_trump.jpg"
3954,"E_F_angelina_jolie.jpg","P_M_boris_johnson.jpg","FALSE","pictures/stimuli/E","pictures/stimuli/P","F","M","6","559e16a2fdf99b4f0b984e34","11/29/2021, 17:32:33",0.482811178349782,"30","Female","right",1,1,0,0,TRUE,"E_F_angelina_jolie.jpg P_M_boris_johnson.jpg"
3787,"E_M_tom_hankes.jpg","P_F_nicola_sturgeon.jpg","FALSE","pictures/stimuli/E","pictures/stimuli/P","M","F","6","559e16a2fdf99b4f0b984e34","11/29/2021, 17:32:33",0.482811178349782,"30","Female","right",0,0,0,0,TRUE,"E_M_tom_hankes.jpg P_F_nicola_sturgeon.jpg"
3648,"E_M_liam_neeson.jpg","P_M_boris_johnson.jpg","FALSE","pictures/stimuli/E","pictures/stimuli/P","M","M","6","559e16a2fdf99b4f0b984e34","11/29/2021, 17:32:33",0.482811178349782,"30","Female","right",0,1,0,0,TRUE,"E_M_liam_neeson.jpg P_M_boris_johnson.jpg"
3591,"E_F_sandra_bullock.jpg","E_M_Martin_Freeman.jpg","TRUE","pictures/stimuli/E","pictures/stimuli/E","F","M","6","559e16a2fdf99b4f0b984e34","11/29/2021, 17:32:33",0.482811178349782,"30","Female","right",0,0,0,0,TRUE,"E_F_sandra_bullock.jpg E_M_Martin_Freeman.jpg"
3979,"E_F_jennifer_aniston.jpg","P_F_nicola_sturgeon.jpg","FALSE","pictures/stimuli/E","pictures/stimuli/P","F","F","6","559e16a2fdf99b4f0b984e34","11/29/2021, 17:32:33",0.482811178349782,"30","Female","right",1,0,0,0,TRUE,"E_F_jennifer_aniston.jpg P_F_nicola_sturgeon.jpg"
2877,"E_M_anthony_hopkins.jpg","P_F_esther_mcvey.jpg","FALSE","pictures/stimuli/E","pictures/stimuli/P","M","F","6","559e16a2fdf99b4f0b984e34","11/29/2021, 17:32:33",0.482811178349782,"30","Female","right",0,0,0,0,TRUE,"E_M_anthony_hopkins.jpg P_F_esther_mcvey.jpg"
3228,"P_F_angela_rayner.jpg","P_M_david_cameron.jpg","TRUE","pictures/stimuli/P","pictures/stimuli/P","F","M","6","559e16a2fdf99b4f0b984e34","11/29/2021, 17:32:33",0.482811178349782,"30","Female","right",0,1,0,0,TRUE,"P_F_angela_rayner.jpg P_M_david_cameron.jpg"
2944,"E_M_liam_neeson.jpg","E_M_michael_caine.jpg","TRUE","pictures/stimuli/E","pictures/stimuli/E","M","M","6","559e16a2fdf99b4f0b984e34","11/29/2021, 17:32:33",0.482811178349782,"30","Female","right",0,0,0,0,TRUE,"E_M_liam_neeson.jpg E_M_michael_caine.jpg"
11877,"E_M_michael_caine.jpg","P_M_david_cameron.jpg","FALSE","pictures/stimuli/E","pictures/stimuli/P","M","M","1","559e16a2fdf99b4f0b984e34","11/29/2021, 17:32:33",-2.77265838521202,"30","Female","right",0,1,0,0,TRUE,"E_M_michael_caine.jpg P_M_david_cameron.jpg"
3483,"E_M_nicolas_cage.jpg","P_M_donald_trump.jpg","FALSE","pictures/stimuli/E","pictures/stimuli/P","M","M","6","559e16a2fdf99b4f0b984e34","11/29/2021, 17:32:33",0.482811178349782,"30","Female","right",1,1,0,0,TRUE,"E_M_nicolas_cage.jpg P_M_donald_trump.jpg"
5570,"P_F_hillary_clinton.jpg","P_M_Tony_Blair.jpg","TRUE","pictures/stimuli/P","pictures/stimuli/P","F","M","1","559e16a2fdf99b4f0b984e34","11/29/2021, 17:32:33",-2.77265838521202,"30","Female","right",0,1,0,0,TRUE,"P_F_hillary_clinton.jpg P_M_Tony_Blair.jpg"
3299,"E_F_angelina_jolie.jpg","E_M_robert_de_niro.jpg","TRUE","pictures/stimuli/E","pictures/stimuli/E","F","M","6","559e16a2fdf99b4f0b984e34","11/29/2021, 17:32:33",0.482811178349782,"30","Female","right",1,0,0,0,TRUE,"E_F_angelina_jolie.jpg E_M_robert_de_niro.jpg"
4312,"E_F_sandra_bullock.jpg","P_F_angela_rayner.jpg","FALSE","pictures/stimuli/E","pictures/stimuli/P","F","F","1","559e16a2fdf99b4f0b984e34","11/29/2021, 17:32:33",-2.77265838521202,"30","Female","right",0,0,0,0,TRUE,"E_F_sandra_bullock.jpg P_F_angela_rayner.jpg"
4602,"P_F_hillary_clinton.jpg","P_F_tehresy_may.jpg","TRUE","pictures/stimuli/P","pictures/stimuli/P","F","F","6","559e16a2fdf99b4f0b984e34","11/29/2021, 17:32:33",0.482811178349782,"30","Female","right",0,1,0,0,TRUE,"P_F_hillary_clinton.jpg P_F_tehresy_may.jpg"
6994,"P_M_bill_clinton.jpg","P_M_david_cameron.jpg","TRUE","pictures/stimuli/P","pictures/stimuli/P","M","M","6","559e16a2fdf99b4f0b984e34","11/29/2021, 17:32:33",0.482811178349782,"30","Female","right",0,1,0,0,TRUE,"P_M_bill_clinton.jpg P_M_david_cameron.jpg"
4473,"E_M_nicolas_cage.jpg","P_M_Tony_Blair.jpg","FALSE","pictures/stimuli/E","pictures/stimuli/P","M","M","6","559e16a2fdf99b4f0b984e34","11/29/2021, 17:32:33",0.482811178349782,"30","Female","right",1,1,0,0,TRUE,"E_M_nicolas_cage.jpg P_M_Tony_Blair.jpg"
4815,"E_F_Kate_Winslet.jpg","P_M_boris_johnson.jpg","FALSE","pictures/stimuli/E","pictures/stimuli/P","F","M","6","559e16a2fdf99b4f0b984e34","11/29/2021, 17:32:33",0.482811178349782,"30","Female","right",0,1,0,0,TRUE,"E_F_Kate_Winslet.jpg P_M_boris_johnson.jpg"
2876,"E_F_Judi_Dench.jpg","P_M_boris_johnson.jpg","FALSE","pictures/stimuli/E","pictures/stimuli/P","F","M","6","559e16a2fdf99b4f0b984e34","11/29/2021, 17:32:33",0.482811178349782,"30","Female","right",0,1,0,0,TRUE,"E_F_Judi_Dench.jpg P_M_boris_johnson.jpg"
2964,"E_M_Martin_Freeman.jpg","P_F_esther_mcvey.jpg","FALSE","pictures/stimuli/E","pictures/stimuli/P","M","F","6","559e16a2fdf99b4f0b984e34","11/29/2021, 17:32:33",0.482811178349782,"30","Female","right",0,0,0,0,TRUE,"E_M_Martin_Freeman.jpg P_F_esther_mcvey.jpg"
6899,"E_F_sandra_bullock.jpg","P_F_PRITI_PATEL.jpg","FALSE","pictures/stimuli/E","pictures/stimuli/P","F","F","1","559e16a2fdf99b4f0b984e34","11/29/2021, 17:32:33",-2.77265838521202,"30","Female","right",0,0,0,0,TRUE,"E_F_sandra_bullock.jpg P_F_PRITI_PATEL.jpg"
3455,"E_F_jennifer_aniston.jpg","P_M_bill_clinton.jpg","FALSE","pictures/stimuli/E","pictures/stimuli/P","F","M","6","559e16a2fdf99b4f0b984e34","11/29/2021, 17:32:33",0.482811178349782,"30","Female","right",1,0,0,0,TRUE,"E_F_jennifer_aniston.jpg P_M_bill_clinton.jpg"
3644,"E_M_Martin_Freeman.jpg","P_M_boris_johnson.jpg","FALSE","pictures/stimuli/E","pictures/stimuli/P","M","M","6","559e16a2fdf99b4f0b984e34","11/29/2021, 17:32:33",0.482811178349782,"30","Female","right",0,1,0,0,TRUE,"E_M_Martin_Freeman.jpg P_M_boris_johnson.jpg"
3270,"P_F_PRITI_PATEL.jpg","P_M_donald_trump.jpg","TRUE","pictures/stimuli/P","pictures/stimuli/P","F","M","6","559e16a2fdf99b4f0b984e34","11/29/2021, 17:32:33",0.482811178349782,"30","Female","right",0,1,0,0,TRUE,"P_F_PRITI_PATEL.jpg P_M_donald_trump.jpg"
5094,"E_M_liam_neeson.jpg","P_M_Tony_Blair.jpg","FALSE","pictures/stimuli/E","pictures/stimuli/P","M","M","1","559e16a2fdf99b4f0b984e34","11/29/2021, 17:32:33",-2.77265838521202,"30","Female","right",0,1,0,0,TRUE,"E_M_liam_neeson.jpg P_M_Tony_Blair.jpg"
23156,"E_F_Judi_Dench.jpg","P_M_david_cameron.jpg","FALSE","pictures/stimuli/E","pictures/stimuli/P","F","M","6","559e16a2fdf99b4f0b984e34","11/29/2021, 17:32:33",0.482811178349782,"30","Female","right",0,1,0,0,TRUE,"E_F_Judi_Dench.jpg P_M_david_cameron.jpg"
3812,"E_M_nicolas_cage.jpg","P_F_nicola_sturgeon.jpg","FALSE","pictures/stimuli/E","pictures/stimuli/P","M","F","6","559e16a2fdf99b4f0b984e34","11/29/2021, 17:32:33",0.482811178349782,"30","Female","right",1,0,0,0,TRUE,"E_M_nicolas_cage.jpg P_F_nicola_sturgeon.jpg"
2781,"E_M_Martin_Freeman.jpg","E_M_michael_caine.jpg","TRUE","pictures/stimuli/E","pictures/stimuli/E","M","M","6","559e16a2fdf99b4f0b984e34","11/29/2021, 17:32:33",0.482811178349782,"30","Female","right",0,0,0,0,TRUE,"E_M_Martin_Freeman.jpg E_M_michael_caine.jpg"
2484,"E_F_angelina_jolie.jpg","P_F_tehresy_may.jpg","FALSE","pictures/stimuli/E","pictures/stimuli/P","F","F","6","559e16a2fdf99b4f0b984e34","11/29/2021, 17:32:33",0.482811178349782,"30","Female","right",1,1,0,0,TRUE,"E_F_angelina_jolie.jpg P_F_tehresy_may.jpg"
2481,"P_F_angela_rayner.jpg","P_F_tehresy_may.jpg","TRUE","pictures/stimuli/P","pictures/stimuli/P","F","F","6","559e16a2fdf99b4f0b984e34","11/29/2021, 17:32:33",0.482811178349782,"30","Female","right",0,1,0,0,TRUE,"P_F_angela_rayner.jpg P_F_tehresy_may.jpg"
2585,"E_F_Kate_Winslet.jpg","E_M_Martin_Freeman.jpg","TRUE","pictures/stimuli/E","pictures/stimuli/E","F","M","6","559e16a2fdf99b4f0b984e34","11/29/2021, 17:32:33",0.482811178349782,"30","Female","right",0,0,0,0,TRUE,"E_F_Kate_Winslet.jpg E_M_Martin_Freeman.jpg"
2411,"E_M_liam_neeson.jpg","E_M_tom_hankes.jpg","TRUE","pictures/stimuli/E","pictures/stimuli/E","M","M","6","559e16a2fdf99b4f0b984e34","11/29/2021, 17:32:33",0.482811178349782,"30","Female","right",0,0,0,0,TRUE,"E_M_liam_neeson.jpg E_M_tom_hankes.jpg"
4199,"P_M_george_Wbush.jpg","P_M_Tony_Blair.jpg","TRUE","pictures/stimuli/P","pictures/stimuli/P","M","M","1","559e16a2fdf99b4f0b984e34","11/29/2021, 17:32:33",-2.77265838521202,"30","Female","right",1,1,0,0,TRUE,"P_M_george_Wbush.jpg P_M_Tony_Blair.jpg"
2403,"E_F_Judi_Dench.jpg","P_M_george_Wbush.jpg","FALSE","pictures/stimuli/E","pictures/stimuli/P","F","M","6","559e16a2fdf99b4f0b984e34","11/29/2021, 17:32:33",0.482811178349782,"30","Female","right",0,1,0,0,TRUE,"E_F_Judi_Dench.jpg P_M_george_Wbush.jpg"
2078,"E_F_angelina_jolie.jpg","P_F_hillary_clinton.jpg","FALSE","pictures/stimuli/E","pictures/stimuli/P","F","F","6","559e16a2fdf99b4f0b984e34","11/29/2021, 17:32:33",0.482811178349782,"30","Female","right",1,0,0,0,TRUE,"E_F_angelina_jolie.jpg P_F_hillary_clinton.jpg"
1472,"P_F_PRITI_PATEL.jpg","P_M_david_cameron.jpg","TRUE","pictures/stimuli/P","pictures/stimuli/P","F","M","6","559e16a2fdf99b4f0b984e34","11/29/2021, 17:32:33",0.482811178349782,"30","Female","right",0,1,0,0,TRUE,"P_F_PRITI_PATEL.jpg P_M_david_cameron.jpg"
1952,"E_M_tom_hankes.jpg","P_F_angela_rayner.jpg","FALSE","pictures/stimuli/E","pictures/stimuli/P","M","F","6","559e16a2fdf99b4f0b984e34","11/29/2021, 17:32:33",0.482811178349782,"30","Female","right",0,0,0,0,TRUE,"E_M_tom_hankes.jpg P_F_angela_rayner.jpg"
2465,"E_F_keira_knightley.jpg","E_M_anthony_hopkins.jpg","TRUE","pictures/stimuli/E","pictures/stimuli/E","F","M","6","559e16a2fdf99b4f0b984e34","11/29/2021, 17:32:33",0.482811178349782,"30","Female","right",0,0,0,0,TRUE,"E_F_keira_knightley.jpg E_M_anthony_hopkins.jpg"
2797,"E_F_angelina_jolie.jpg","E_M_nicolas_cage.jpg","TRUE","pictures/stimuli/E","pictures/stimuli/E","F","M","6","559e16a2fdf99b4f0b984e34","11/29/2021, 17:32:33",0.482811178349782,"30","Female","right",1,1,0,0,TRUE,"E_F_angelina_jolie.jpg E_M_nicolas_cage.jpg"
3275,"P_F_esther_mcvey.jpg","P_M_donald_trump.jpg","TRUE","pictures/stimuli/P","pictures/stimuli/P","F","M","6","559e16a2fdf99b4f0b984e34","11/29/2021, 17:32:33",0.482811178349782,"30","Female","right",0,1,0,0,TRUE,"P_F_esther_mcvey.jpg P_M_donald_trump.jpg"
2942,"E_F_Judi_Dench.jpg","E_F_keira_knightley.jpg","TRUE","pictures/stimuli/E","pictures/stimuli/E","F","F","6","559e16a2fdf99b4f0b984e34","11/29/2021, 17:32:33",0.482811178349782,"30","Female","right",0,0,0,0,TRUE,"E_F_Judi_Dench.jpg E_F_keira_knightley.jpg"
2535,"E_F_Kate_Winslet.jpg","E_M_nicolas_cage.jpg","TRUE","pictures/stimuli/E","pictures/stimuli/E","F","M","6","559e16a2fdf99b4f0b984e34","11/29/2021, 17:32:33",0.482811178349782,"30","Female","right",0,1,0,0,TRUE,"E_F_Kate_Winslet.jpg E_M_nicolas_cage.jpg"
4206,"E_M_anthony_hopkins.jpg","P_F_hillary_clinton.jpg","FALSE","pictures/stimuli/E","pictures/stimuli/P","M","F","3","559e16a2fdf99b4f0b984e34","11/29/2021, 17:32:33",-1.4704705597873,"30","Female","right",0,0,0,0,TRUE,"E_M_anthony_hopkins.jpg P_F_hillary_clinton.jpg"
2578,"E_M_nicolas_cage.jpg","E_M_robert_de_niro.jpg","TRUE","pictures/stimuli/E","pictures/stimuli/E","M","M","6","559e16a2fdf99b4f0b984e34","11/29/2021, 17:32:33",0.482811178349782,"30","Female","right",1,0,0,0,TRUE,"E_M_nicolas_cage.jpg E_M_robert_de_niro.jpg"
5833,"P_M_boris_johnson.jpg","P_M_Tony_Blair.jpg","TRUE","pictures/stimuli/P","pictures/stimuli/P","M","M","3","559e16a2fdf99b4f0b984e34","11/29/2021, 17:32:33",-1.4704705597873,"30","Female","right",1,1,0,0,TRUE,"P_M_boris_johnson.jpg P_M_Tony_Blair.jpg"
4167,"P_M_boris_johnson.jpg","P_M_george_Wbush.jpg","TRUE","pictures/stimuli/P","pictures/stimuli/P","M","M","1","559e16a2fdf99b4f0b984e34","11/29/2021, 17:32:33",-2.77265838521202,"30","Female","right",1,1,0,0,TRUE,"P_M_boris_johnson.jpg P_M_george_Wbush.jpg"
4599,"E_F_Judi_Dench.jpg","P_F_PRITI_PATEL.jpg","FALSE","pictures/stimuli/E","pictures/stimuli/P","F","F","6","559e16a2fdf99b4f0b984e34","11/29/2021, 17:32:33",0.482811178349782,"30","Female","right",0,0,0,0,TRUE,"E_F_Judi_Dench.jpg P_F_PRITI_PATEL.jpg"
4674,"E_M_Martin_Freeman.jpg","E_M_tom_hankes.jpg","TRUE","pictures/stimuli/E","pictures/stimuli/E","M","M","6","559e16a2fdf99b4f0b984e34","11/29/2021, 17:32:33",0.482811178349782,"30","Female","right",0,0,0,0,TRUE,"E_M_Martin_Freeman.jpg E_M_tom_hankes.jpg"
2460,"E_M_Hugh_Grant.jpg","P_M_bill_clinton.jpg","FALSE","pictures/stimuli/E","pictures/stimuli/P","M","M","6","559e16a2fdf99b4f0b984e34","11/29/2021, 17:32:33",0.482811178349782,"30","Female","right",0,0,0,0,TRUE,"E_M_Hugh_Grant.jpg P_M_bill_clinton.jpg"
3941,"E_F_angelina_jolie.jpg","P_M_Tony_Blair.jpg","FALSE","pictures/stimuli/E","pictures/stimuli/P","F","M","6","559e16a2fdf99b4f0b984e34","11/29/2021, 17:32:33",0.482811178349782,"30","Female","right",1,1,0,0,TRUE,"E_F_angelina_jolie.jpg P_M_Tony_Blair.jpg"
2794,"E_M_Hugh_Grant.jpg","P_M_Tony_Blair.jpg","FALSE","pictures/stimuli/E","pictures/stimuli/P","M","M","6","559e16a2fdf99b4f0b984e34","11/29/2021, 17:32:33",0.482811178349782,"30","Female","right",0,1,0,0,TRUE,"E_M_Hugh_Grant.jpg P_M_Tony_Blair.jpg"
3972,"E_M_robert_de_niro.jpg","E_M_tom_hankes.jpg","TRUE","pictures/stimuli/E","pictures/stimuli/E","M","M","4","559e16a2fdf99b4f0b984e34","11/29/2021, 17:32:33",-0.81937664707494,"30","Female","right",0,0,0,0,TRUE,"E_M_robert_de_niro.jpg E_M_tom_hankes.jpg"
4673,"E_M_nicolas_cage.jpg","P_M_david_cameron.jpg","FALSE","pictures/stimuli/E","pictures/stimuli/P","M","M","6","559e16a2fdf99b4f0b984e34","11/29/2021, 17:32:33",0.482811178349782,"30","Female","right",1,1,0,0,TRUE,"E_M_nicolas_cage.jpg P_M_david_cameron.jpg"
2298,"E_M_Hugh_Grant.jpg","P_F_esther_mcvey.jpg","FALSE","pictures/stimuli/E","pictures/stimuli/P","M","F","6","559e16a2fdf99b4f0b984e34","11/29/2021, 17:32:33",0.482811178349782,"30","Female","right",0,0,0,0,TRUE,"E_M_Hugh_Grant.jpg P_F_esther_mcvey.jpg"
4196,"E_M_Martin_Freeman.jpg","P_F_angela_rayner.jpg","FALSE","pictures/stimuli/E","pictures/stimuli/P","M","F","6","559e16a2fdf99b4f0b984e34","11/29/2021, 17:32:33",0.482811178349782,"30","Female","right",0,0,0,0,TRUE,"E_M_Martin_Freeman.jpg P_F_angela_rayner.jpg"
2789,"E_F_angelina_jolie.jpg","E_F_keira_knightley.jpg","TRUE","pictures/stimuli/E","pictures/stimuli/E","F","F","1","559e16a2fdf99b4f0b984e34","11/29/2021, 17:32:33",-2.77265838521202,"30","Female","right",1,0,0,0,TRUE,"E_F_angelina_jolie.jpg E_F_keira_knightley.jpg"
3196,"E_F_jennifer_aniston.jpg","E_M_liam_neeson.jpg","TRUE","pictures/stimuli/E","pictures/stimuli/E","F","M","4","559e16a2fdf99b4f0b984e34","11/29/2021, 17:32:33",-0.81937664707494,"30","Female","right",1,0,0,0,TRUE,"E_F_jennifer_aniston.jpg E_M_liam_neeson.jpg"
2709,"E_M_liam_neeson.jpg","E_M_robert_de_niro.jpg","TRUE","pictures/stimuli/E","pictures/stimuli/E","M","M","6","559e16a2fdf99b4f0b984e34","11/29/2021, 17:32:33",0.482811178349782,"30","Female","right",0,0,0,0,TRUE,"E_M_liam_neeson.jpg E_M_robert_de_niro.jpg"
3721,"E_F_angelina_jolie.jpg","E_M_tom_hankes.jpg","TRUE","pictures/stimuli/E","pictures/stimuli/E","F","M","6","559e16a2fdf99b4f0b984e34","11/29/2021, 17:32:33",0.482811178349782,"30","Female","right",1,0,0,0,TRUE,"E_F_angelina_jolie.jpg E_M_tom_hankes.jpg"
2462,"E_F_Kate_Winslet.jpg","P_F_nicola_sturgeon.jpg","FALSE","pictures/stimuli/E","pictures/stimuli/P","F","F","6","559e16a2fdf99b4f0b984e34","11/29/2021, 17:32:33",0.482811178349782,"30","Female","right",0,0,0,0,TRUE,"E_F_Kate_Winslet.jpg P_F_nicola_sturgeon.jpg"
3202,"E_F_angelina_jolie.jpg","E_F_Judi_Dench.jpg","TRUE","pictures/stimuli/E","pictures/stimuli/E","F","F","6","559e16a2fdf99b4f0b984e34","11/29/2021, 17:32:33",0.482811178349782,"30","Female","right",1,0,0,0,TRUE,"E_F_angelina_jolie.jpg E_F_Judi_Dench.jpg"
12106,"E_F_jennifer_aniston.jpg","E_M_robert_de_niro.jpg","TRUE","pictures/stimuli/E","pictures/stimuli/E","F","M","6","559e16a2fdf99b4f0b984e34","11/29/2021, 17:32:33",0.482811178349782,"30","Female","right",1,0,0,0,TRUE,"E_F_jennifer_aniston.jpg E_M_robert_de_niro.jpg"
2461,"E_F_angelina_jolie.jpg","P_M_donald_trump.jpg","FALSE","pictures/stimuli/E","pictures/stimuli/P","F","M","6","559e16a2fdf99b4f0b984e34","11/29/2021, 17:32:33",0.482811178349782,"30","Female","right",1,1,0,0,TRUE,"E_F_angelina_jolie.jpg P_M_donald_trump.jpg"
4378,"E_F_Kate_Winslet.jpg","E_M_liam_neeson.jpg","TRUE","pictures/stimuli/E","pictures/stimuli/E","F","M","6","559e16a2fdf99b4f0b984e34","11/29/2021, 17:32:33",0.482811178349782,"30","Female","right",0,0,0,0,TRUE,"E_F_Kate_Winslet.jpg E_M_liam_neeson.jpg"
3310,"P_F_nicola_sturgeon.jpg","P_F_tehresy_may.jpg","TRUE","pictures/stimuli/P","pictures/stimuli/P","F","F","6","559e16a2fdf99b4f0b984e34","11/29/2021, 17:32:33",0.482811178349782,"30","Female","right",0,1,0,0,TRUE,"P_F_nicola_sturgeon.jpg P_F_tehresy_may.jpg"
3549,"P_F_tehresy_may.jpg","P_M_Tony_Blair.jpg","TRUE","pictures/stimuli/P","pictures/stimuli/P","F","M","6","559e16a2fdf99b4f0b984e34","11/29/2021, 17:32:33",0.482811178349782,"30","Female","right",1,1,0,0,TRUE,"P_F_tehresy_may.jpg P_M_Tony_Blair.jpg"
7308,"E_M_liam_neeson.jpg","P_F_hillary_clinton.jpg","FALSE","pictures/stimuli/E","pictures/stimuli/P","M","F","6","559e16a2fdf99b4f0b984e34","11/29/2021, 17:32:33",0.482811178349782,"30","Female","right",0,0,0,0,TRUE,"E_M_liam_neeson.jpg P_F_hillary_clinton.jpg"
2855,"E_F_keira_knightley.jpg","E_M_nicolas_cage.jpg","TRUE","pictures/stimuli/E","pictures/stimuli/E","F","M","6","559e16a2fdf99b4f0b984e34","11/29/2021, 17:32:33",0.482811178349782,"30","Female","right",0,1,0,0,TRUE,"E_F_keira_knightley.jpg E_M_nicolas_cage.jpg"
2630,"E_F_Kate_Winslet.jpg","P_F_esther_mcvey.jpg","FALSE","pictures/stimuli/E","pictures/stimuli/P","F","F","6","559e16a2fdf99b4f0b984e34","11/29/2021, 17:32:33",0.482811178349782,"30","Female","right",0,0,0,0,TRUE,"E_F_Kate_Winslet.jpg P_F_esther_mcvey.jpg"
3974,"E_F_Judi_Dench.jpg","P_F_hillary_clinton.jpg","FALSE","pictures/stimuli/E","pictures/stimuli/P","F","F","6","559e16a2fdf99b4f0b984e34","11/29/2021, 17:32:33",0.482811178349782,"30","Female","right",0,0,0,0,TRUE,"E_F_Judi_Dench.jpg P_F_hillary_clinton.jpg"
2326,"E_F_Judi_Dench.jpg","E_M_Hugh_Grant.jpg","TRUE","pictures/stimuli/E","pictures/stimuli/E","F","M","6","559e16a2fdf99b4f0b984e34","11/29/2021, 17:32:33",0.482811178349782,"30","Female","right",0,0,0,0,TRUE,"E_F_Judi_Dench.jpg E_M_Hugh_Grant.jpg"
1997,"E_M_Martin_Freeman.jpg","P_M_george_Wbush.jpg","FALSE","pictures/stimuli/E","pictures/stimuli/P","M","M","6","559e16a2fdf99b4f0b984e34","11/29/2021, 17:32:33",0.482811178349782,"30","Female","right",0,1,0,0,TRUE,"E_M_Martin_Freeman.jpg P_M_george_Wbush.jpg"
3338,"P_F_nicola_sturgeon.jpg","P_M_david_cameron.jpg","TRUE","pictures/stimuli/P","pictures/stimuli/P","F","M","6","559e16a2fdf99b4f0b984e34","11/29/2021, 17:32:33",0.482811178349782,"30","Female","right",0,1,0,0,TRUE,"P_F_nicola_sturgeon.jpg P_M_david_cameron.jpg"
2866,"E_F_angelina_jolie.jpg","E_M_anthony_hopkins.jpg","TRUE","pictures/stimuli/E","pictures/stimuli/E","F","M","6","559e16a2fdf99b4f0b984e34","11/29/2021, 17:32:33",0.482811178349782,"30","Female","right",1,0,0,0,TRUE,"E_F_angelina_jolie.jpg E_M_anthony_hopkins.jpg"
2250,"E_M_tom_hankes.jpg","P_F_esther_mcvey.jpg","FALSE","pictures/stimuli/E","pictures/stimuli/P","M","F","6","559e16a2fdf99b4f0b984e34","11/29/2021, 17:32:33",0.482811178349782,"30","Female","right",0,0,0,0,TRUE,"E_M_tom_hankes.jpg P_F_esther_mcvey.jpg"
1972,"E_M_Hugh_Grant.jpg","P_M_george_Wbush.jpg","FALSE","pictures/stimuli/E","pictures/stimuli/P","M","M","6","559e16a2fdf99b4f0b984e34","11/29/2021, 17:32:33",0.482811178349782,"30","Female","right",0,1,0,0,TRUE,"E_M_Hugh_Grant.jpg P_M_george_Wbush.jpg"
1837,"E_M_michael_caine.jpg","P_F_PRITI_PATEL.jpg","FALSE","pictures/stimuli/E","pictures/stimuli/P","M","F","6","559e16a2fdf99b4f0b984e34","11/29/2021, 17:32:33",0.482811178349782,"30","Female","right",0,0,0,0,TRUE,"E_M_michael_caine.jpg P_F_PRITI_PATEL.jpg"
1727,"E_M_tom_hankes.jpg","P_M_donald_trump.jpg","FALSE","pictures/stimuli/E","pictures/stimuli/P","M","M","6","559e16a2fdf99b4f0b984e34","11/29/2021, 17:32:33",0.482811178349782,"30","Female","right",0,1,0,0,TRUE,"E_M_tom_hankes.jpg P_M_donald_trump.jpg"
1878,"E_M_robert_de_niro.jpg","P_F_esther_mcvey.jpg","FALSE","pictures/stimuli/E","pictures/stimuli/P","M","F","6","559e16a2fdf99b4f0b984e34","11/29/2021, 17:32:33",0.482811178349782,"30","Female","right",0,0,0,0,TRUE,"E_M_robert_de_niro.jpg P_F_esther_mcvey.jpg"
4286,"E_F_Kate_Winslet.jpg","E_M_tom_hankes.jpg","TRUE","pictures/stimuli/E","pictures/stimuli/E","F","M","6","559e16a2fdf99b4f0b984e34","11/29/2021, 17:32:33",0.482811178349782,"30","Female","right",0,0,0,0,TRUE,"E_F_Kate_Winslet.jpg E_M_tom_hankes.jpg"
3877,"E_F_jennifer_aniston.jpg","P_F_tehresy_may.jpg","FALSE","pictures/stimuli/E","pictures/stimuli/P","F","F","4","559e16a2fdf99b4f0b984e34","11/29/2021, 17:32:33",-0.81937664707494,"30","Female","right",1,1,0,0,TRUE,"E_F_jennifer_aniston.jpg P_F_tehresy_may.jpg"
1877,"E_F_keira_knightley.jpg","P_M_boris_johnson.jpg","FALSE","pictures/stimuli/E","pictures/stimuli/P","F","M","6","559e16a2fdf99b4f0b984e34","11/29/2021, 17:32:33",0.482811178349782,"30","Female","right",0,1,0,0,TRUE,"E_F_keira_knightley.jpg P_M_boris_johnson.jpg"
3279,"E_F_Judi_Dench.jpg","P_M_Tony_Blair.jpg","FALSE","pictures/stimuli/E","pictures/stimuli/P","F","M","6","559e16a2fdf99b4f0b984e34","11/29/2021, 17:32:33",0.482811178349782,"30","Female","right",0,1,0,0,TRUE,"E_F_Judi_Dench.jpg P_M_Tony_Blair.jpg"
2605,"E_M_Hugh_Grant.jpg","P_M_boris_johnson.jpg","FALSE","pictures/stimuli/E","pictures/stimuli/P","M","M","6","559e16a2fdf99b4f0b984e34","11/29/2021, 17:32:33",0.482811178349782,"30","Female","right",0,1,0,0,TRUE,"E_M_Hugh_Grant.jpg P_M_boris_johnson.jpg"
3510,"E_F_Kate_Winslet.jpg","E_F_keira_knightley.jpg","TRUE","pictures/stimuli/E","pictures/stimuli/E","F","F","1","559e16a2fdf99b4f0b984e34","11/29/2021, 17:32:33",-2.77265838521202,"30","Female","right",0,0,0,0,TRUE,"E_F_Kate_Winslet.jpg E_F_keira_knightley.jpg"
1968,"E_F_keira_knightley.jpg","P_M_Tony_Blair.jpg","FALSE","pictures/stimuli/E","pictures/stimuli/P","F","M","6","559e16a2fdf99b4f0b984e34","11/29/2021, 17:32:33",0.482811178349782,"30","Female","right",0,1,0,0,TRUE,"E_F_keira_knightley.jpg P_M_Tony_Blair.jpg"
2736,"P_F_tehresy_may.jpg","P_M_george_Wbush.jpg","TRUE","pictures/stimuli/P","pictures/stimuli/P","F","M","6","559e16a2fdf99b4f0b984e34","11/29/2021, 17:32:33",0.482811178349782,"30","Female","right",1,1,0,0,TRUE,"P_F_tehresy_may.jpg P_M_george_Wbush.jpg"
2317,"E_M_anthony_hopkins.jpg","P_F_PRITI_PATEL.jpg","FALSE","pictures/stimuli/E","pictures/stimuli/P","M","F","6","559e16a2fdf99b4f0b984e34","11/29/2021, 17:32:33",0.482811178349782,"30","Female","right",0,0,0,0,TRUE,"E_M_anthony_hopkins.jpg P_F_PRITI_PATEL.jpg"
2031,"E_F_keira_knightley.jpg","P_F_esther_mcvey.jpg","FALSE","pictures/stimuli/E","pictures/stimuli/P","F","F","6","559e16a2fdf99b4f0b984e34","11/29/2021, 17:32:33",0.482811178349782,"30","Female","right",0,0,0,0,TRUE,"E_F_keira_knightley.jpg P_F_esther_mcvey.jpg"
2822,"E_F_keira_knightley.jpg","E_M_Martin_Freeman.jpg","TRUE","pictures/stimuli/E","pictures/stimuli/E","F","M","6","559e16a2fdf99b4f0b984e34","11/29/2021, 17:32:33",0.482811178349782,"30","Female","right",0,0,0,0,TRUE,"E_F_keira_knightley.jpg E_M_Martin_Freeman.jpg"
2253,"E_M_liam_neeson.jpg","P_M_bill_clinton.jpg","FALSE","pictures/stimuli/E","pictures/stimuli/P","M","M","6","559e16a2fdf99b4f0b984e34","11/29/2021, 17:32:33",0.482811178349782,"30","Female","right",0,0,0,0,TRUE,"E_M_liam_neeson.jpg P_M_bill_clinton.jpg"
3082,"E_M_anthony_hopkins.jpg","E_M_michael_caine.jpg","TRUE","pictures/stimuli/E","pictures/stimuli/E","M","M","6","559e16a2fdf99b4f0b984e34","11/29/2021, 17:32:33",0.482811178349782,"30","Female","right",0,0,0,0,TRUE,"E_M_anthony_hopkins.jpg E_M_michael_caine.jpg"
3597,"P_F_hillary_clinton.jpg","P_M_donald_trump.jpg","TRUE","pictures/stimuli/P","pictures/stimuli/P","F","M","2","559e16a2fdf99b4f0b984e34","11/29/2021, 17:32:33",-2.12156447249966,"30","Female","right",0,1,0,0,TRUE,"P_F_hillary_clinton.jpg P_M_donald_trump.jpg"
3702,"E_M_michael_caine.jpg","P_F_nicola_sturgeon.jpg","FALSE","pictures/stimuli/E","pictures/stimuli/P","M","F","6","559e16a2fdf99b4f0b984e34","11/29/2021, 17:32:33",0.482811178349782,"30","Female","right",0,0,0,0,TRUE,"E_M_michael_caine.jpg P_F_nicola_sturgeon.jpg"
2776,"E_M_michael_caine.jpg","P_F_esther_mcvey.jpg","FALSE","pictures/stimuli/E","pictures/stimuli/P","M","F","6","559e16a2fdf99b4f0b984e34","11/29/2021, 17:32:33",0.482811178349782,"30","Female","right",0,0,0,0,TRUE,"E_M_michael_caine.jpg P_F_esther_mcvey.jpg"
2658,"E_M_liam_neeson.jpg","E_M_Martin_Freeman.jpg","TRUE","pictures/stimuli/E","pictures/stimuli/E","M","M","6","559e16a2fdf99b4f0b984e34","11/29/2021, 17:32:33",0.482811178349782,"30","Female","right",0,0,0,0,TRUE,"E_M_liam_neeson.jpg E_M_Martin_Freeman.jpg"
2502,"E_F_jennifer_aniston.jpg","P_M_david_cameron.jpg","FALSE","pictures/stimuli/E","pictures/stimuli/P","F","M","6","559e16a2fdf99b4f0b984e34","11/29/2021, 17:32:33",0.482811178349782,"30","Female","right",1,1,0,0,TRUE,"E_F_jennifer_aniston.jpg P_M_david_cameron.jpg"
3013,"E_F_keira_knightley.jpg","P_M_bill_clinton.jpg","FALSE","pictures/stimuli/E","pictures/stimuli/P","F","M","6","559e16a2fdf99b4f0b984e34","11/29/2021, 17:32:33",0.482811178349782,"30","Female","right",0,0,0,0,TRUE,"E_F_keira_knightley.jpg P_M_bill_clinton.jpg"
2000,"E_M_Martin_Freeman.jpg","E_M_nicolas_cage.jpg","TRUE","pictures/stimuli/E","pictures/stimuli/E","M","M","6","559e16a2fdf99b4f0b984e34","11/29/2021, 17:32:33",0.482811178349782,"30","Female","right",0,1,0,0,TRUE,"E_M_Martin_Freeman.jpg E_M_nicolas_cage.jpg"
2374,"E_M_Martin_Freeman.jpg","P_M_bill_clinton.jpg","FALSE","pictures/stimuli/E","pictures/stimuli/P","M","M","6","559e16a2fdf99b4f0b984e34","11/29/2021, 17:32:33",0.482811178349782,"30","Female","right",0,0,0,0,TRUE,"E_M_Martin_Freeman.jpg P_M_bill_clinton.jpg"
3523,"E_F_jennifer_aniston.jpg","P_F_esther_mcvey.jpg","FALSE","pictures/stimuli/E","pictures/stimuli/P","F","F","6","559e16a2fdf99b4f0b984e34","11/29/2021, 17:32:33",0.482811178349782,"30","Female","right",1,0,0,0,TRUE,"E_F_jennifer_aniston.jpg P_F_esther_mcvey.jpg"
2892,"E_M_liam_neeson.jpg","E_M_nicolas_cage.jpg","TRUE","pictures/stimuli/E","pictures/stimuli/E","M","M","6","559e16a2fdf99b4f0b984e34","11/29/2021, 17:32:33",0.482811178349782,"30","Female","right",0,1,0,0,TRUE,"E_M_liam_neeson.jpg E_M_nicolas_cage.jpg"
2755,"E_M_liam_neeson.jpg","P_F_nicola_sturgeon.jpg","FALSE","pictures/stimuli/E","pictures/stimuli/P","M","F","6","559e16a2fdf99b4f0b984e34","11/29/2021, 17:32:33",0.482811178349782,"30","Female","right",0,0,0,0,TRUE,"E_M_liam_neeson.jpg P_F_nicola_sturgeon.jpg"
2782,"E_F_jennifer_aniston.jpg","E_M_anthony_hopkins.jpg","TRUE","pictures/stimuli/E","pictures/stimuli/E","F","M","6","559e16a2fdf99b4f0b984e34","11/29/2021, 17:32:33",0.482811178349782,"30","Female","right",1,0,0,0,TRUE,"E_F_jennifer_aniston.jpg E_M_anthony_hopkins.jpg"
3532,"P_F_esther_mcvey.jpg","P_F_nicola_sturgeon.jpg","TRUE","pictures/stimuli/P","pictures/stimuli/P","F","F","3","559e16a2fdf99b4f0b984e34","11/29/2021, 17:32:33",-1.4704705597873,"30","Female","right",0,0,0,0,TRUE,"P_F_esther_mcvey.jpg P_F_nicola_sturgeon.jpg"
4972,"E_F_Kate_Winslet.jpg","P_M_george_Wbush.jpg","FALSE","pictures/stimuli/E","pictures/stimuli/P","F","M","2","559e16a2fdf99b4f0b984e34","11/29/2021, 17:32:33",-2.12156447249966,"30","Female","right",0,1,0,0,TRUE,"E_F_Kate_Winslet.jpg P_M_george_Wbush.jpg"
2671,"E_F_Judi_Dench.jpg","E_M_tom_hankes.jpg","TRUE","pictures/stimuli/E","pictures/stimuli/E","F","M","6","559e16a2fdf99b4f0b984e34","11/29/2021, 17:32:33",0.482811178349782,"30","Female","right",0,0,0,0,TRUE,"E_F_Judi_Dench.jpg E_M_tom_hankes.jpg"
2489,"E_M_Hugh_Grant.jpg","P_F_PRITI_PATEL.jpg","FALSE","pictures/stimuli/E","pictures/stimuli/P","M","F","6","559e16a2fdf99b4f0b984e34","11/29/2021, 17:32:33",0.482811178349782,"30","Female","right",0,0,0,0,TRUE,"E_M_Hugh_Grant.jpg P_F_PRITI_PATEL.jpg"
2092,"E_M_robert_de_niro.jpg","P_F_nicola_sturgeon.jpg","FALSE","pictures/stimuli/E","pictures/stimuli/P","M","F","6","559e16a2fdf99b4f0b984e34","11/29/2021, 17:32:33",0.482811178349782,"30","Female","right",0,0,0,0,TRUE,"E_M_robert_de_niro.jpg P_F_nicola_sturgeon.jpg"
4197,"E_F_jennifer_aniston.jpg","E_M_Hugh_Grant.jpg","TRUE","pictures/stimuli/E","pictures/stimuli/E","F","M","6","559e16a2fdf99b4f0b984e34","11/29/2021, 17:32:33",0.482811178349782,"30","Female","right",1,0,0,0,TRUE,"E_F_jennifer_aniston.jpg E_M_Hugh_Grant.jpg"
3238,"E_M_michael_caine.jpg","P_F_tehresy_may.jpg","FALSE","pictures/stimuli/E","pictures/stimuli/P","M","F","6","559e16a2fdf99b4f0b984e34","11/29/2021, 17:32:33",0.482811178349782,"30","Female","right",0,1,0,0,TRUE,"E_M_michael_caine.jpg P_F_tehresy_may.jpg"
27510,"E_F_sandra_bullock.jpg","P_M_Tony_Blair.jpg","FALSE","pictures/stimuli/E","pictures/stimuli/P","F","M","6","559e16a2fdf99b4f0b984e34","11/29/2021, 17:32:33",0.482811178349782,"30","Female","right",0,1,0,0,TRUE,"E_F_sandra_bullock.jpg P_M_Tony_Blair.jpg"
3144,"P_M_bill_clinton.jpg","P_M_boris_johnson.jpg","TRUE","pictures/stimuli/P","pictures/stimuli/P","M","M","1","559e16a2fdf99b4f0b984e34","11/29/2021, 17:32:33",-2.77265838521202,"30","Female","right",0,1,0,0,TRUE,"P_M_bill_clinton.jpg P_M_boris_johnson.jpg"
2247,"P_F_tehresy_may.jpg","P_M_david_cameron.jpg","TRUE","pictures/stimuli/P","pictures/stimuli/P","F","M","6","559e16a2fdf99b4f0b984e34","11/29/2021, 17:32:33",0.482811178349782,"30","Female","right",1,1,0,0,TRUE,"P_F_tehresy_may.jpg P_M_david_cameron.jpg"
3871,"E_M_tom_hankes.jpg","P_F_hillary_clinton.jpg","FALSE","pictures/stimuli/E","pictures/stimuli/P","M","F","3","559e16a2fdf99b4f0b984e34","11/29/2021, 17:32:33",-1.4704705597873,"30","Female","right",0,0,0,0,TRUE,"E_M_tom_hankes.jpg P_F_hillary_clinton.jpg"
2670,"E_F_angelina_jolie.jpg","P_F_esther_mcvey.jpg","FALSE","pictures/stimuli/E","pictures/stimuli/P","F","F","6","559e16a2fdf99b4f0b984e34","11/29/2021, 17:32:33",0.482811178349782,"30","Female","right",1,0,0,0,TRUE,"E_F_angelina_jolie.jpg P_F_esther_mcvey.jpg"
2439,"E_F_keira_knightley.jpg","E_M_robert_de_niro.jpg","TRUE","pictures/stimuli/E","pictures/stimuli/E","F","M","6","559e16a2fdf99b4f0b984e34","11/29/2021, 17:32:33",0.482811178349782,"30","Female","right",0,0,0,0,TRUE,"E_F_keira_knightley.jpg E_M_robert_de_niro.jpg"
4438,"E_F_Kate_Winslet.jpg","P_M_Tony_Blair.jpg","FALSE","pictures/stimuli/E","pictures/stimuli/P","F","M","6","559e16a2fdf99b4f0b984e34","11/29/2021, 17:32:33",0.482811178349782,"30","Female","right",0,1,0,0,TRUE,"E_F_Kate_Winslet.jpg P_M_Tony_Blair.jpg"
1646,"P_F_nicola_sturgeon.jpg","P_F_PRITI_PATEL.jpg","TRUE","pictures/stimuli/P","pictures/stimuli/P","F","F","6","559e16a2fdf99b4f0b984e34","11/29/2021, 17:32:33",0.482811178349782,"30","Female","right",0,0,0,0,TRUE,"P_F_nicola_sturgeon.jpg P_F_PRITI_PATEL.jpg"
1685,"E_M_michael_caine.jpg","P_F_hillary_clinton.jpg","FALSE","pictures/stimuli/E","pictures/stimuli/P","M","F","6","559e16a2fdf99b4f0b984e34","11/29/2021, 17:32:33",0.482811178349782,"30","Female","right",0,0,0,0,TRUE,"E_M_michael_caine.jpg P_F_hillary_clinton.jpg"
3606,"P_F_PRITI_PATEL.jpg","P_M_Tony_Blair.jpg","TRUE","pictures/stimuli/P","pictures/stimuli/P","F","M","6","559e16a2fdf99b4f0b984e34","11/29/2021, 17:32:33",0.482811178349782,"30","Female","right",0,1,0,0,TRUE,"P_F_PRITI_PATEL.jpg P_M_Tony_Blair.jpg"
1732,"E_M_tom_hankes.jpg","P_M_Tony_Blair.jpg","FALSE","pictures/stimuli/E","pictures/stimuli/P","M","M","6","559e16a2fdf99b4f0b984e34","11/29/2021, 17:32:33",0.482811178349782,"30","Female","right",0,1,0,0,TRUE,"E_M_tom_hankes.jpg P_M_Tony_Blair.jpg"
1528,"E_M_anthony_hopkins.jpg","P_M_donald_trump.jpg","FALSE","pictures/stimuli/E","pictures/stimuli/P","M","M","6","559e16a2fdf99b4f0b984e34","11/29/2021, 17:32:33",0.482811178349782,"30","Female","right",0,1,0,0,TRUE,"E_M_anthony_hopkins.jpg P_M_donald_trump.jpg"
1668,"E_F_jennifer_aniston.jpg","E_M_michael_caine.jpg","TRUE","pictures/stimuli/E","pictures/stimuli/E","F","M","6","559e16a2fdf99b4f0b984e34","11/29/2021, 17:32:33",0.482811178349782,"30","Female","right",1,0,0,0,TRUE,"E_F_jennifer_aniston.jpg E_M_michael_caine.jpg"
1280,"P_F_nicola_sturgeon.jpg","P_M_bill_clinton.jpg","TRUE","pictures/stimuli/P","pictures/stimuli/P","F","M","6","559e16a2fdf99b4f0b984e34","11/29/2021, 17:32:33",0.482811178349782,"30","Female","right",0,0,0,0,TRUE,"P_F_nicola_sturgeon.jpg P_M_bill_clinton.jpg"
1780,"E_F_keira_knightley.jpg","E_M_Hugh_Grant.jpg","TRUE","pictures/stimuli/E","pictures/stimuli/E","F","M","6","559e16a2fdf99b4f0b984e34","11/29/2021, 17:32:33",0.482811178349782,"30","Female","right",0,0,0,0,TRUE,"E_F_keira_knightley.jpg E_M_Hugh_Grant.jpg"
1277,"P_F_angela_rayner.jpg","P_F_PRITI_PATEL.jpg","TRUE","pictures/stimuli/P","pictures/stimuli/P","F","F","6","559e16a2fdf99b4f0b984e34","11/29/2021, 17:32:33",0.482811178349782,"30","Female","right",0,0,0,0,TRUE,"P_F_angela_rayner.jpg P_F_PRITI_PATEL.jpg"
3355,"E_M_Hugh_Grant.jpg","E_M_nicolas_cage.jpg","TRUE","pictures/stimuli/E","pictures/stimuli/E","M","M","6","559e16a2fdf99b4f0b984e34","11/29/2021, 17:32:33",0.482811178349782,"30","Female","right",0,1,0,0,TRUE,"E_M_Hugh_Grant.jpg E_M_nicolas_cage.jpg"
3197,"E_F_sandra_bullock.jpg","P_M_george_Wbush.jpg","FALSE","pictures/stimuli/E","pictures/stimuli/P","F","M","6","559e16a2fdf99b4f0b984e34","11/29/2021, 17:32:33",0.482811178349782,"30","Female","right",0,1,0,0,TRUE,"E_F_sandra_bullock.jpg P_M_george_Wbush.jpg"
3614,"E_F_Judi_Dench.jpg","P_F_esther_mcvey.jpg","FALSE","pictures/stimuli/E","pictures/stimuli/P","F","F","6","559e16a2fdf99b4f0b984e34","11/29/2021, 17:32:33",0.482811178349782,"30","Female","right",0,0,0,0,TRUE,"E_F_Judi_Dench.jpg P_F_esther_mcvey.jpg"
2438,"E_F_keira_knightley.jpg","P_F_tehresy_may.jpg","FALSE","pictures/stimuli/E","pictures/stimuli/P","F","F","6","559e16a2fdf99b4f0b984e34","11/29/2021, 17:32:33",0.482811178349782,"30","Female","right",0,1,0,0,TRUE,"E_F_keira_knightley.jpg P_F_tehresy_may.jpg"
2061,"P_F_esther_mcvey.jpg","P_F_hillary_clinton.jpg","TRUE","pictures/stimuli/P","pictures/stimuli/P","F","F","6","559e16a2fdf99b4f0b984e34","11/29/2021, 17:32:33",0.482811178349782,"30","Female","right",0,0,0,0,TRUE,"P_F_esther_mcvey.jpg P_F_hillary_clinton.jpg"
5443,"E_M_Hugh_Grant.jpg","P_F_hillary_clinton.jpg","FALSE","pictures/stimuli/E","pictures/stimuli/P","M","F","6","57e508cec3e5930001447391","11/30/2021, 18:24:29",1.07774889189949,"36","Female","right",1,1,0,0,FALSE,"E_M_Hugh_Grant.jpg P_F_hillary_clinton.jpg"
7574,"P_M_bill_clinton.jpg","P_M_donald_trump.jpg","TRUE","pictures/stimuli/P","pictures/stimuli/P","M","M","6","57e508cec3e5930001447391","11/30/2021, 18:24:29",1.07774889189949,"36","Female","right",1,1,0,0,FALSE,"P_M_bill_clinton.jpg P_M_donald_trump.jpg"
7745,"E_F_keira_knightley.jpg","P_F_hillary_clinton.jpg","FALSE","pictures/stimuli/E","pictures/stimuli/P","F","F","5","57e508cec3e5930001447391","11/30/2021, 18:24:29",0.301100577337773,"36","Female","right",1,1,0,0,FALSE,"E_F_keira_knightley.jpg P_F_hillary_clinton.jpg"
10423,"E_F_Kate_Winslet.jpg","E_F_keira_knightley.jpg","TRUE","pictures/stimuli/E","pictures/stimuli/E","F","F","5","57e508cec3e5930001447391","11/30/2021, 18:24:29",0.301100577337773,"36","Female","right",1,1,0,0,FALSE,"E_F_Kate_Winslet.jpg E_F_keira_knightley.jpg"
3955,"E_F_Judi_Dench.jpg","P_F_esther_mcvey.jpg","FALSE","pictures/stimuli/E","pictures/stimuli/P","F","F","6","57e508cec3e5930001447391","11/30/2021, 18:24:29",1.07774889189949,"36","Female","right",1,0,0,0,TRUE,"E_F_Judi_Dench.jpg P_F_esther_mcvey.jpg"
4012,"E_F_sandra_bullock.jpg","P_F_tehresy_may.jpg","FALSE","pictures/stimuli/E","pictures/stimuli/P","F","F","6","57e508cec3e5930001447391","11/30/2021, 18:24:29",1.07774889189949,"36","Female","right",1,1,0,0,FALSE,"E_F_sandra_bullock.jpg P_F_tehresy_may.jpg"
5884,"P_F_esther_mcvey.jpg","P_M_boris_johnson.jpg","TRUE","pictures/stimuli/P","pictures/stimuli/P","F","M","6","57e508cec3e5930001447391","11/30/2021, 18:24:29",1.07774889189949,"36","Female","right",0,1,0,0,TRUE,"P_F_esther_mcvey.jpg P_M_boris_johnson.jpg"
9769,"P_F_hillary_clinton.jpg","P_M_donald_trump.jpg","TRUE","pictures/stimuli/P","pictures/stimuli/P","F","M","5","57e508cec3e5930001447391","11/30/2021, 18:24:29",0.301100577337773,"36","Female","right",1,1,0,0,FALSE,"P_F_hillary_clinton.jpg P_M_donald_trump.jpg"
7271,"E_F_sandra_bullock.jpg","P_F_esther_mcvey.jpg","FALSE","pictures/stimuli/E","pictures/stimuli/P","F","F","4","57e508cec3e5930001447391","11/30/2021, 18:24:29",-0.475547737223943,"36","Female","right",1,0,0,0,TRUE,"E_F_sandra_bullock.jpg P_F_esther_mcvey.jpg"
10181,"E_M_nicolas_cage.jpg","P_F_nicola_sturgeon.jpg","FALSE","pictures/stimuli/E","pictures/stimuli/P","M","F","6","57e508cec3e5930001447391","11/30/2021, 18:24:29",1.07774889189949,"36","Female","right",1,1,0,0,FALSE,"E_M_nicolas_cage.jpg P_F_nicola_sturgeon.jpg"
4839,"E_F_sandra_bullock.jpg","E_M_michael_caine.jpg","TRUE","pictures/stimuli/E","pictures/stimuli/E","F","M","6","57e508cec3e5930001447391","11/30/2021, 18:24:29",1.07774889189949,"36","Female","right",1,1,0,0,FALSE,"E_F_sandra_bullock.jpg E_M_michael_caine.jpg"
4305,"E_F_sandra_bullock.jpg","P_F_nicola_sturgeon.jpg","FALSE","pictures/stimuli/E","pictures/stimuli/P","F","F","6","57e508cec3e5930001447391","11/30/2021, 18:24:29",1.07774889189949,"36","Female","right",1,1,0,0,FALSE,"E_F_sandra_bullock.jpg P_F_nicola_sturgeon.jpg"
4689,"P_F_hillary_clinton.jpg","P_F_nicola_sturgeon.jpg","TRUE","pictures/stimuli/P","pictures/stimuli/P","F","F","4","57e508cec3e5930001447391","11/30/2021, 18:24:29",-0.475547737223943,"36","Female","right",1,1,0,0,FALSE,"P_F_hillary_clinton.jpg P_F_nicola_sturgeon.jpg"
3558,"P_F_angela_rayner.jpg","P_F_hillary_clinton.jpg","TRUE","pictures/stimuli/P","pictures/stimuli/P","F","F","6","57e508cec3e5930001447391","11/30/2021, 18:24:29",1.07774889189949,"36","Female","right",0,1,0,0,TRUE,"P_F_angela_rayner.jpg P_F_hillary_clinton.jpg"
10346,"P_F_angela_rayner.jpg","P_F_PRITI_PATEL.jpg","TRUE","pictures/stimuli/P","pictures/stimuli/P","F","F","4","57e508cec3e5930001447391","11/30/2021, 18:24:29",-0.475547737223943,"36","Female","right",0,0,0,0,TRUE,"P_F_angela_rayner.jpg P_F_PRITI_PATEL.jpg"
45108,"E_M_nicolas_cage.jpg","P_M_george_Wbush.jpg","FALSE","pictures/stimuli/E","pictures/stimuli/P","M","M","4","57e508cec3e5930001447391","11/30/2021, 18:24:29",-0.475547737223943,"36","Female","right",1,1,0,0,TRUE,"E_M_nicolas_cage.jpg P_M_george_Wbush.jpg"
3155,"E_F_angelina_jolie.jpg","P_F_nicola_sturgeon.jpg","FALSE","pictures/stimuli/E","pictures/stimuli/P","F","F","6","57e508cec3e5930001447391","11/30/2021, 18:24:29",1.07774889189949,"36","Female","right",1,1,0,0,FALSE,"E_F_angelina_jolie.jpg P_F_nicola_sturgeon.jpg"
6189,"E_F_keira_knightley.jpg","E_M_Hugh_Grant.jpg","TRUE","pictures/stimuli/E","pictures/stimuli/E","F","M","3","57e508cec3e5930001447391","11/30/2021, 18:24:29",-1.25219605178566,"36","Female","right",1,1,0,0,FALSE,"E_F_keira_knightley.jpg E_M_Hugh_Grant.jpg"
7434,"E_M_michael_caine.jpg","P_F_esther_mcvey.jpg","FALSE","pictures/stimuli/E","pictures/stimuli/P","M","F","3","57e508cec3e5930001447391","11/30/2021, 18:24:29",-1.25219605178566,"36","Female","right",1,0,0,0,TRUE,"E_M_michael_caine.jpg P_F_esther_mcvey.jpg"
5327,"E_F_Judi_Dench.jpg","E_M_michael_caine.jpg","TRUE","pictures/stimuli/E","pictures/stimuli/E","F","M","5","57e508cec3e5930001447391","11/30/2021, 18:24:29",0.301100577337773,"36","Female","right",1,1,0,0,FALSE,"E_F_Judi_Dench.jpg E_M_michael_caine.jpg"
3665,"E_F_jennifer_aniston.jpg","P_M_boris_johnson.jpg","FALSE","pictures/stimuli/E","pictures/stimuli/P","F","M","5","57e508cec3e5930001447391","11/30/2021, 18:24:29",0.301100577337773,"36","Female","right",1,1,0,0,FALSE,"E_F_jennifer_aniston.jpg P_M_boris_johnson.jpg"
5826,"E_M_nicolas_cage.jpg","E_M_robert_de_niro.jpg","TRUE","pictures/stimuli/E","pictures/stimuli/E","M","M","3","57e508cec3e5930001447391","11/30/2021, 18:24:29",-1.25219605178566,"36","Female","right",1,1,0,0,FALSE,"E_M_nicolas_cage.jpg E_M_robert_de_niro.jpg"
4498,"P_F_tehresy_may.jpg","P_M_david_cameron.jpg","TRUE","pictures/stimuli/P","pictures/stimuli/P","F","M","5","57e508cec3e5930001447391","11/30/2021, 18:24:29",0.301100577337773,"36","Female","right",1,1,0,0,FALSE,"P_F_tehresy_may.jpg P_M_david_cameron.jpg"
9739,"E_F_angelina_jolie.jpg","P_F_angela_rayner.jpg","FALSE","pictures/stimuli/E","pictures/stimuli/P","F","F","5","57e508cec3e5930001447391","11/30/2021, 18:24:29",0.301100577337773,"36","Female","right",1,0,0,0,TRUE,"E_F_angelina_jolie.jpg P_F_angela_rayner.jpg"
6047,"E_M_anthony_hopkins.jpg","P_M_boris_johnson.jpg","FALSE","pictures/stimuli/E","pictures/stimuli/P","M","M","6","57e508cec3e5930001447391","11/30/2021, 18:24:29",1.07774889189949,"36","Female","right",1,1,0,0,FALSE,"E_M_anthony_hopkins.jpg P_M_boris_johnson.jpg"
4557,"E_F_keira_knightley.jpg","P_M_bill_clinton.jpg","FALSE","pictures/stimuli/E","pictures/stimuli/P","F","M","6","57e508cec3e5930001447391","11/30/2021, 18:24:29",1.07774889189949,"36","Female","right",1,1,0,0,FALSE,"E_F_keira_knightley.jpg P_M_bill_clinton.jpg"
3375,"P_F_angela_rayner.jpg","P_F_nicola_sturgeon.jpg","TRUE","pictures/stimuli/P","pictures/stimuli/P","F","F","6","57e508cec3e5930001447391","11/30/2021, 18:24:29",1.07774889189949,"36","Female","right",0,1,0,0,TRUE,"P_F_angela_rayner.jpg P_F_nicola_sturgeon.jpg"
6589,"E_M_tom_hankes.jpg","P_M_george_Wbush.jpg","FALSE","pictures/stimuli/E","pictures/stimuli/P","M","M","4","57e508cec3e5930001447391","11/30/2021, 18:24:29",-0.475547737223943,"36","Female","right",1,1,0,0,FALSE,"E_M_tom_hankes.jpg P_M_george_Wbush.jpg"
6106,"E_M_Hugh_Grant.jpg","P_M_donald_trump.jpg","FALSE","pictures/stimuli/E","pictures/stimuli/P","M","M","6","57e508cec3e5930001447391","11/30/2021, 18:24:29",1.07774889189949,"36","Female","right",1,1,0,0,FALSE,"E_M_Hugh_Grant.jpg P_M_donald_trump.jpg"
3141,"E_F_keira_knightley.jpg","P_F_tehresy_may.jpg","FALSE","pictures/stimuli/E","pictures/stimuli/P","F","F","6","57e508cec3e5930001447391","11/30/2021, 18:24:29",1.07774889189949,"36","Female","right",1,1,0,0,FALSE,"E_F_keira_knightley.jpg P_F_tehresy_may.jpg"
3364,"P_M_boris_johnson.jpg","P_M_donald_trump.jpg","TRUE","pictures/stimuli/P","pictures/stimuli/P","M","M","3","57e508cec3e5930001447391","11/30/2021, 18:24:29",-1.25219605178566,"36","Female","right",1,1,0,0,FALSE,"P_M_boris_johnson.jpg P_M_donald_trump.jpg"
5510,"P_M_donald_trump.jpg","P_M_Tony_Blair.jpg","TRUE","pictures/stimuli/P","pictures/stimuli/P","M","M","5","57e508cec3e5930001447391","11/30/2021, 18:24:29",0.301100577337773,"36","Female","right",1,1,0,0,FALSE,"P_M_donald_trump.jpg P_M_Tony_Blair.jpg"
3972,"P_F_PRITI_PATEL.jpg","P_M_david_cameron.jpg","TRUE","pictures/stimuli/P","pictures/stimuli/P","F","M","6","57e508cec3e5930001447391","11/30/2021, 18:24:29",1.07774889189949,"36","Female","right",0,1,0,0,TRUE,"P_F_PRITI_PATEL.jpg P_M_david_cameron.jpg"
6305,"E_F_angelina_jolie.jpg","P_F_PRITI_PATEL.jpg","FALSE","pictures/stimuli/E","pictures/stimuli/P","F","F","2","57e508cec3e5930001447391","11/30/2021, 18:24:29",-2.02884436634737,"36","Female","right",1,0,0,0,TRUE,"E_F_angelina_jolie.jpg P_F_PRITI_PATEL.jpg"
4428,"E_M_michael_caine.jpg","P_M_george_Wbush.jpg","FALSE","pictures/stimuli/E","pictures/stimuli/P","M","M","3","57e508cec3e5930001447391","11/30/2021, 18:24:29",-1.25219605178566,"36","Female","right",1,1,0,0,FALSE,"E_M_michael_caine.jpg P_M_george_Wbush.jpg"
6508,"E_F_sandra_bullock.jpg","P_F_angela_rayner.jpg","FALSE","pictures/stimuli/E","pictures/stimuli/P","F","F","2","57e508cec3e5930001447391","11/30/2021, 18:24:29",-2.02884436634737,"36","Female","right",1,0,0,0,TRUE,"E_F_sandra_bullock.jpg P_F_angela_rayner.jpg"
4654,"E_M_Hugh_Grant.jpg","P_F_PRITI_PATEL.jpg","FALSE","pictures/stimuli/E","pictures/stimuli/P","M","F","3","57e508cec3e5930001447391","11/30/2021, 18:24:29",-1.25219605178566,"36","Female","right",1,0,0,0,TRUE,"E_M_Hugh_Grant.jpg P_F_PRITI_PATEL.jpg"
5440,"E_M_liam_neeson.jpg","E_M_michael_caine.jpg","TRUE","pictures/stimuli/E","pictures/stimuli/E","M","M","3","57e508cec3e5930001447391","11/30/2021, 18:24:29",-1.25219605178566,"36","Female","right",1,1,0,0,FALSE,"E_M_liam_neeson.jpg E_M_michael_caine.jpg"
5089,"P_F_nicola_sturgeon.jpg","P_M_donald_trump.jpg","TRUE","pictures/stimuli/P","pictures/stimuli/P","F","M","4","57e508cec3e5930001447391","11/30/2021, 18:24:29",-0.475547737223943,"36","Female","right",1,1,0,0,FALSE,"P_F_nicola_sturgeon.jpg P_M_donald_trump.jpg"
5234,"E_F_jennifer_aniston.jpg","E_F_keira_knightley.jpg","TRUE","pictures/stimuli/E","pictures/stimuli/E","F","F","3","57e508cec3e5930001447391","11/30/2021, 18:24:29",-1.25219605178566,"36","Female","right",1,1,0,0,FALSE,"E_F_jennifer_aniston.jpg E_F_keira_knightley.jpg"
2825,"E_F_Judi_Dench.jpg","E_M_Hugh_Grant.jpg","TRUE","pictures/stimuli/E","pictures/stimuli/E","F","M","6","57e508cec3e5930001447391","11/30/2021, 18:24:29",1.07774889189949,"36","Female","right",1,1,0,0,FALSE,"E_F_Judi_Dench.jpg E_M_Hugh_Grant.jpg"
16897,"E_F_Judi_Dench.jpg","P_M_donald_trump.jpg","FALSE","pictures/stimuli/E","pictures/stimuli/P","F","M","6","57e508cec3e5930001447391","11/30/2021, 18:24:29",1.07774889189949,"36","Female","right",1,1,0,0,FALSE,"E_F_Judi_Dench.jpg P_M_donald_trump.jpg"
6575,"E_F_Judi_Dench.jpg","P_F_PRITI_PATEL.jpg","FALSE","pictures/stimuli/E","pictures/stimuli/P","F","F","5","57e508cec3e5930001447391","11/30/2021, 18:24:29",0.301100577337773,"36","Female","right",1,0,0,0,TRUE,"E_F_Judi_Dench.jpg P_F_PRITI_PATEL.jpg"
9654,"P_F_PRITI_PATEL.jpg","P_M_boris_johnson.jpg","TRUE","pictures/stimuli/P","pictures/stimuli/P","F","M","5","57e508cec3e5930001447391","11/30/2021, 18:24:29",0.301100577337773,"36","Female","right",0,1,0,0,TRUE,"P_F_PRITI_PATEL.jpg P_M_boris_johnson.jpg"
5870,"E_F_angelina_jolie.jpg","E_F_keira_knightley.jpg","TRUE","pictures/stimuli/E","pictures/stimuli/E","F","F","3","57e508cec3e5930001447391","11/30/2021, 18:24:29",-1.25219605178566,"36","Female","right",1,1,0,0,FALSE,"E_F_angelina_jolie.jpg E_F_keira_knightley.jpg"
5193,"P_F_angela_rayner.jpg","P_M_bill_clinton.jpg","TRUE","pictures/stimuli/P","pictures/stimuli/P","F","M","3","57e508cec3e5930001447391","11/30/2021, 18:24:29",-1.25219605178566,"36","Female","right",0,1,0,0,TRUE,"P_F_angela_rayner.jpg P_M_bill_clinton.jpg"
5635,"P_F_esther_mcvey.jpg","P_M_david_cameron.jpg","TRUE","pictures/stimuli/P","pictures/stimuli/P","F","M","3","57e508cec3e5930001447391","11/30/2021, 18:24:29",-1.25219605178566,"36","Female","right",0,1,0,0,TRUE,"P_F_esther_mcvey.jpg P_M_david_cameron.jpg"
4489,"E_F_jennifer_aniston.jpg","E_M_tom_hankes.jpg","TRUE","pictures/stimuli/E","pictures/stimuli/E","F","M","3","57e508cec3e5930001447391","11/30/2021, 18:24:29",-1.25219605178566,"36","Female","right",1,1,0,0,FALSE,"E_F_jennifer_aniston.jpg E_M_tom_hankes.jpg"
6894,"E_F_Judi_Dench.jpg","P_F_angela_rayner.jpg","FALSE","pictures/stimuli/E","pictures/stimuli/P","F","F","4","57e508cec3e5930001447391","11/30/2021, 18:24:29",-0.475547737223943,"36","Female","right",1,0,0,0,TRUE,"E_F_Judi_Dench.jpg P_F_angela_rayner.jpg"
7935,"E_M_nicolas_cage.jpg","P_M_Tony_Blair.jpg","FALSE","pictures/stimuli/E","pictures/stimuli/P","M","M","2","57e508cec3e5930001447391","11/30/2021, 18:24:29",-2.02884436634737,"36","Female","right",1,1,0,0,FALSE,"E_M_nicolas_cage.jpg P_M_Tony_Blair.jpg"
4335,"E_M_robert_de_niro.jpg","P_M_Tony_Blair.jpg","FALSE","pictures/stimuli/E","pictures/stimuli/P","M","M","2","57e508cec3e5930001447391","11/30/2021, 18:24:29",-2.02884436634737,"36","Female","right",1,1,0,0,FALSE,"E_M_robert_de_niro.jpg P_M_Tony_Blair.jpg"
3880,"E_M_tom_hankes.jpg","P_F_angela_rayner.jpg","FALSE","pictures/stimuli/E","pictures/stimuli/P","M","F","3","57e508cec3e5930001447391","11/30/2021, 18:24:29",-1.25219605178566,"36","Female","right",1,0,0,0,TRUE,"E_M_tom_hankes.jpg P_F_angela_rayner.jpg"
3800,"E_F_angelina_jolie.jpg","E_M_liam_neeson.jpg","TRUE","pictures/stimuli/E","pictures/stimuli/E","F","M","3","57e508cec3e5930001447391","11/30/2021, 18:24:29",-1.25219605178566,"36","Female","right",1,1,0,0,FALSE,"E_F_angelina_jolie.jpg E_M_liam_neeson.jpg"
3733,"E_F_sandra_bullock.jpg","P_M_Tony_Blair.jpg","FALSE","pictures/stimuli/E","pictures/stimuli/P","F","M","5","57e508cec3e5930001447391","11/30/2021, 18:24:29",0.301100577337773,"36","Female","right",1,1,0,0,FALSE,"E_F_sandra_bullock.jpg P_M_Tony_Blair.jpg"
5487,"P_F_angela_rayner.jpg","P_M_Tony_Blair.jpg","TRUE","pictures/stimuli/P","pictures/stimuli/P","F","M","3","57e508cec3e5930001447391","11/30/2021, 18:24:29",-1.25219605178566,"36","Female","right",0,1,0,0,TRUE,"P_F_angela_rayner.jpg P_M_Tony_Blair.jpg"
