"RT","img_1","img_2","isSameProffesion","img1proffesion","img2proffesion","img1Gender","img2Gender","keyPressed","participant","time","normlised_keyPress","age","gender","handedness","isFamiliar_img1","isFamiliar_img2","vividness_img1","vividness_img2","reject_trial","pair"
5040,"E_F_Judi_Dench.jpg","P_F_tehresy_may.jpg","FALSE","pictures/stimuli/E","pictures/stimuli/P","F","F","4","5915e5c6405db80001f30ff1","11/30/2021, 10:02:10",0.761633672869282,"35","Female","left",1,1,0,0,FALSE,"E_F_Judi_Dench.jpg P_F_tehresy_may.jpg"
5359,"E_M_tom_hankes.jpg","P_F_PRITI_PATEL.jpg","FALSE","pictures/stimuli/E","pictures/stimuli/P","M","F","6","5915e5c6405db80001f30ff1","11/30/2021, 10:02:10",2.56842888223072,"35","Female","left",1,1,0,0,FALSE,"E_M_tom_hankes.jpg P_F_PRITI_PATEL.jpg"
3977,"P_F_nicola_sturgeon.jpg","P_M_boris_johnson.jpg","TRUE","pictures/stimuli/P","pictures/stimuli/P","F","M","2","5915e5c6405db80001f30ff1","11/30/2021, 10:02:10",-1.04516153649215,"35","Female","left",1,1,0,0,FALSE,"P_F_nicola_sturgeon.jpg P_M_boris_johnson.jpg"
8471,"P_M_david_cameron.jpg","P_M_Tony_Blair.jpg","TRUE","pictures/stimuli/P","pictures/stimuli/P","M","M","3","5915e5c6405db80001f30ff1","11/30/2021, 10:02:10",-0.141763931811435,"35","Female","left",1,1,0,0,FALSE,"P_M_david_cameron.jpg P_M_Tony_Blair.jpg"
2646,"E_F_angelina_jolie.jpg","P_F_PRITI_PATEL.jpg","FALSE","pictures/stimuli/E","pictures/stimuli/P","F","F","6","5915e5c6405db80001f30ff1","11/30/2021, 10:02:10",2.56842888223072,"35","Female","left",1,1,0,0,FALSE,"E_F_angelina_jolie.jpg P_F_PRITI_PATEL.jpg"
2746,"E_F_keira_knightley.jpg","P_F_PRITI_PATEL.jpg","FALSE","pictures/stimuli/E","pictures/stimuli/P","F","F","6","5915e5c6405db80001f30ff1","11/30/2021, 10:02:10",2.56842888223072,"35","Female","left",1,1,0,0,FALSE,"E_F_keira_knightley.jpg P_F_PRITI_PATEL.jpg"
4008,"E_F_Kate_Winslet.jpg","E_M_michael_caine.jpg","TRUE","pictures/stimuli/E","pictures/stimuli/E","F","M","2","5915e5c6405db80001f30ff1","11/30/2021, 10:02:10",-1.04516153649215,"35","Female","left",1,1,0,0,FALSE,"E_F_Kate_Winslet.jpg E_M_michael_caine.jpg"
4772,"E_M_tom_hankes.jpg","P_F_esther_mcvey.jpg","FALSE","pictures/stimuli/E","pictures/stimuli/P","M","F","4","5915e5c6405db80001f30ff1","11/30/2021, 10:02:10",0.761633672869282,"35","Female","left",1,0,0,0,TRUE,"E_M_tom_hankes.jpg P_F_esther_mcvey.jpg"
2681,"E_F_jennifer_aniston.jpg","E_F_sandra_bullock.jpg","TRUE","pictures/stimuli/E","pictures/stimuli/E","F","F","5","5915e5c6405db80001f30ff1","11/30/2021, 10:02:10",1.66503127755,"35","Female","left",1,1,0,0,FALSE,"E_F_jennifer_aniston.jpg E_F_sandra_bullock.jpg"
1925,"E_M_Hugh_Grant.jpg","P_F_PRITI_PATEL.jpg","FALSE","pictures/stimuli/E","pictures/stimuli/P","M","F","5","5915e5c6405db80001f30ff1","11/30/2021, 10:02:10",1.66503127755,"35","Female","left",1,1,0,0,FALSE,"E_M_Hugh_Grant.jpg P_F_PRITI_PATEL.jpg"
2642,"P_F_nicola_sturgeon.jpg","P_F_PRITI_PATEL.jpg","TRUE","pictures/stimuli/P","pictures/stimuli/P","F","F","2","5915e5c6405db80001f30ff1","11/30/2021, 10:02:10",-1.04516153649215,"35","Female","left",1,1,0,0,FALSE,"P_F_nicola_sturgeon.jpg P_F_PRITI_PATEL.jpg"
2448,"E_F_sandra_bullock.jpg","E_M_nicolas_cage.jpg","TRUE","pictures/stimuli/E","pictures/stimuli/E","F","M","3","5915e5c6405db80001f30ff1","11/30/2021, 10:02:10",-0.141763931811435,"35","Female","left",1,1,0,0,FALSE,"E_F_sandra_bullock.jpg E_M_nicolas_cage.jpg"
2596,"E_M_robert_de_niro.jpg","E_M_tom_hankes.jpg","TRUE","pictures/stimuli/E","pictures/stimuli/E","M","M","2","5915e5c6405db80001f30ff1","11/30/2021, 10:02:10",-1.04516153649215,"35","Female","left",1,1,0,0,FALSE,"E_M_robert_de_niro.jpg E_M_tom_hankes.jpg"
1933,"E_F_Judi_Dench.jpg","E_F_keira_knightley.jpg","TRUE","pictures/stimuli/E","pictures/stimuli/E","F","F","3","5915e5c6405db80001f30ff1","11/30/2021, 10:02:10",-0.141763931811435,"35","Female","left",1,1,0,0,FALSE,"E_F_Judi_Dench.jpg E_F_keira_knightley.jpg"
1564,"E_F_sandra_bullock.jpg","P_F_esther_mcvey.jpg","FALSE","pictures/stimuli/E","pictures/stimuli/P","F","F","4","5915e5c6405db80001f30ff1","11/30/2021, 10:02:10",0.761633672869282,"35","Female","left",1,0,0,0,TRUE,"E_F_sandra_bullock.jpg P_F_esther_mcvey.jpg"
1936,"E_M_liam_neeson.jpg","P_F_esther_mcvey.jpg","FALSE","pictures/stimuli/E","pictures/stimuli/P","M","F","4","5915e5c6405db80001f30ff1","11/30/2021, 10:02:10",0.761633672869282,"35","Female","left",0,0,0,0,TRUE,"E_M_liam_neeson.jpg P_F_esther_mcvey.jpg"
1996,"E_F_jennifer_aniston.jpg","E_M_robert_de_niro.jpg","TRUE","pictures/stimuli/E","pictures/stimuli/E","F","M","2","5915e5c6405db80001f30ff1","11/30/2021, 10:02:10",-1.04516153649215,"35","Female","left",1,1,0,0,FALSE,"E_F_jennifer_aniston.jpg E_M_robert_de_niro.jpg"
4405,"P_F_angela_rayner.jpg","P_M_boris_johnson.jpg","TRUE","pictures/stimuli/P","pictures/stimuli/P","F","M","4","5915e5c6405db80001f30ff1","11/30/2021, 10:02:10",0.761633672869282,"35","Female","left",1,1,0,0,FALSE,"P_F_angela_rayner.jpg P_M_boris_johnson.jpg"
3556,"P_F_nicola_sturgeon.jpg","P_M_donald_trump.jpg","TRUE","pictures/stimuli/P","pictures/stimuli/P","F","M","6","5915e5c6405db80001f30ff1","11/30/2021, 10:02:10",2.56842888223072,"35","Female","left",1,1,0,0,FALSE,"P_F_nicola_sturgeon.jpg P_M_donald_trump.jpg"
3919,"P_M_donald_trump.jpg","P_M_george_Wbush.jpg","TRUE","pictures/stimuli/P","pictures/stimuli/P","M","M","3","5915e5c6405db80001f30ff1","11/30/2021, 10:02:10",-0.141763931811435,"35","Female","left",1,1,0,0,FALSE,"P_M_donald_trump.jpg P_M_george_Wbush.jpg"
1821,"E_M_michael_caine.jpg","E_M_nicolas_cage.jpg","TRUE","pictures/stimuli/E","pictures/stimuli/E","M","M","2","5915e5c6405db80001f30ff1","11/30/2021, 10:02:10",-1.04516153649215,"35","Female","left",1,1,0,0,FALSE,"E_M_michael_caine.jpg E_M_nicolas_cage.jpg"
2471,"E_M_liam_neeson.jpg","E_M_nicolas_cage.jpg","TRUE","pictures/stimuli/E","pictures/stimuli/E","M","M","4","5915e5c6405db80001f30ff1","11/30/2021, 10:02:10",0.761633672869282,"35","Female","left",0,1,0,0,TRUE,"E_M_liam_neeson.jpg E_M_nicolas_cage.jpg"
1497,"E_M_tom_hankes.jpg","P_F_angela_rayner.jpg","FALSE","pictures/stimuli/E","pictures/stimuli/P","M","F","3","5915e5c6405db80001f30ff1","11/30/2021, 10:02:10",-0.141763931811435,"35","Female","left",1,1,0,0,FALSE,"E_M_tom_hankes.jpg P_F_angela_rayner.jpg"
2225,"E_M_Hugh_Grant.jpg","E_M_nicolas_cage.jpg","TRUE","pictures/stimuli/E","pictures/stimuli/E","M","M","2","5915e5c6405db80001f30ff1","11/30/2021, 10:02:10",-1.04516153649215,"35","Female","left",1,1,0,0,FALSE,"E_M_Hugh_Grant.jpg E_M_nicolas_cage.jpg"
2961,"P_F_hillary_clinton.jpg","P_M_bill_clinton.jpg","TRUE","pictures/stimuli/P","pictures/stimuli/P","F","M","1","5915e5c6405db80001f30ff1","11/30/2021, 10:02:10",-1.94855914117287,"35","Female","left",1,1,0,0,FALSE,"P_F_hillary_clinton.jpg P_M_bill_clinton.jpg"
1978,"E_F_angelina_jolie.jpg","E_F_sandra_bullock.jpg","TRUE","pictures/stimuli/E","pictures/stimuli/E","F","F","3","5915e5c6405db80001f30ff1","11/30/2021, 10:02:10",-0.141763931811435,"35","Female","left",1,1,0,0,FALSE,"E_F_angelina_jolie.jpg E_F_sandra_bullock.jpg"
2175,"E_F_Kate_Winslet.jpg","E_F_keira_knightley.jpg","TRUE","pictures/stimuli/E","pictures/stimuli/E","F","F","2","5915e5c6405db80001f30ff1","11/30/2021, 10:02:10",-1.04516153649215,"35","Female","left",1,1,0,0,FALSE,"E_F_Kate_Winslet.jpg E_F_keira_knightley.jpg"
2446,"E_M_tom_hankes.jpg","P_F_tehresy_may.jpg","FALSE","pictures/stimuli/E","pictures/stimuli/P","M","F","6","5915e5c6405db80001f30ff1","11/30/2021, 10:02:10",2.56842888223072,"35","Female","left",1,1,0,0,FALSE,"E_M_tom_hankes.jpg P_F_tehresy_may.jpg"
4239,"P_M_bill_clinton.jpg","P_M_donald_trump.jpg","TRUE","pictures/stimuli/P","pictures/stimuli/P","M","M","5","5915e5c6405db80001f30ff1","11/30/2021, 10:02:10",1.66503127755,"35","Female","left",1,1,0,0,FALSE,"P_M_bill_clinton.jpg P_M_donald_trump.jpg"
2349,"P_F_esther_mcvey.jpg","P_M_david_cameron.jpg","TRUE","pictures/stimuli/P","pictures/stimuli/P","F","M","4","5915e5c6405db80001f30ff1","11/30/2021, 10:02:10",0.761633672869282,"35","Female","left",0,1,0,0,TRUE,"P_F_esther_mcvey.jpg P_M_david_cameron.jpg"
3586,"E_M_Martin_Freeman.jpg","P_M_boris_johnson.jpg","FALSE","pictures/stimuli/E","pictures/stimuli/P","M","M","4","5915e5c6405db80001f30ff1","11/30/2021, 10:02:10",0.761633672869282,"35","Female","left",0,1,0,0,TRUE,"E_M_Martin_Freeman.jpg P_M_boris_johnson.jpg"
15701,"E_F_sandra_bullock.jpg","P_M_bill_clinton.jpg","FALSE","pictures/stimuli/E","pictures/stimuli/P","F","M","3","5915e5c6405db80001f30ff1","11/30/2021, 10:02:10",-0.141763931811435,"35","Female","left",1,1,0,0,FALSE,"E_F_sandra_bullock.jpg P_M_bill_clinton.jpg"
5265,"P_M_george_Wbush.jpg","P_M_Tony_Blair.jpg","TRUE","pictures/stimuli/P","pictures/stimuli/P","M","M","4","5915e5c6405db80001f30ff1","11/30/2021, 10:02:10",0.761633672869282,"35","Female","left",1,1,0,0,FALSE,"P_M_george_Wbush.jpg P_M_Tony_Blair.jpg"
5532,"E_M_michael_caine.jpg","P_M_donald_trump.jpg","FALSE","pictures/stimuli/E","pictures/stimuli/P","M","M","2","5915e5c6405db80001f30ff1","11/30/2021, 10:02:10",-1.04516153649215,"35","Female","left",1,1,0,0,FALSE,"E_M_michael_caine.jpg P_M_donald_trump.jpg"
16041,"E_F_angelina_jolie.jpg","P_M_david_cameron.jpg","FALSE","pictures/stimuli/E","pictures/stimuli/P","F","M","2","5915e5c6405db80001f30ff1","11/30/2021, 10:02:10",-1.04516153649215,"35","Female","left",1,1,0,0,FALSE,"E_F_angelina_jolie.jpg P_M_david_cameron.jpg"
4269,"E_M_liam_neeson.jpg","P_M_Tony_Blair.jpg","FALSE","pictures/stimuli/E","pictures/stimuli/P","M","M","2","5915e5c6405db80001f30ff1","11/30/2021, 10:02:10",-1.04516153649215,"35","Female","left",0,1,0,0,TRUE,"E_M_liam_neeson.jpg P_M_Tony_Blair.jpg"
20851,"E_M_Hugh_Grant.jpg","E_M_liam_neeson.jpg","TRUE","pictures/stimuli/E","pictures/stimuli/E","M","M","3","5915e5c6405db80001f30ff1","11/30/2021, 10:02:10",-0.141763931811435,"35","Female","left",1,0,0,0,TRUE,"E_M_Hugh_Grant.jpg E_M_liam_neeson.jpg"
6057,"E_M_Hugh_Grant.jpg","P_F_esther_mcvey.jpg","FALSE","pictures/stimuli/E","pictures/stimuli/P","M","F","3","5915e5c6405db80001f30ff1","11/30/2021, 10:02:10",-0.141763931811435,"35","Female","left",1,0,0,0,TRUE,"E_M_Hugh_Grant.jpg P_F_esther_mcvey.jpg"
2319,"E_F_keira_knightley.jpg","P_M_boris_johnson.jpg","FALSE","pictures/stimuli/E","pictures/stimuli/P","F","M","2","5915e5c6405db80001f30ff1","11/30/2021, 10:02:10",-1.04516153649215,"35","Female","left",1,1,0,0,FALSE,"E_F_keira_knightley.jpg P_M_boris_johnson.jpg"
15343,"E_M_Martin_Freeman.jpg","E_M_nicolas_cage.jpg","TRUE","pictures/stimuli/E","pictures/stimuli/E","M","M","2","5915e5c6405db80001f30ff1","11/30/2021, 10:02:10",-1.04516153649215,"35","Female","left",0,1,0,0,TRUE,"E_M_Martin_Freeman.jpg E_M_nicolas_cage.jpg"
2625,"E_F_sandra_bullock.jpg","E_M_michael_caine.jpg","TRUE","pictures/stimuli/E","pictures/stimuli/E","F","M","1","5915e5c6405db80001f30ff1","11/30/2021, 10:02:10",-1.94855914117287,"35","Female","left",1,1,0,0,FALSE,"E_F_sandra_bullock.jpg E_M_michael_caine.jpg"
14478,"E_F_Judi_Dench.jpg","E_M_anthony_hopkins.jpg","TRUE","pictures/stimuli/E","pictures/stimuli/E","F","M","3","5915e5c6405db80001f30ff1","11/30/2021, 10:02:10",-0.141763931811435,"35","Female","left",1,0,0,0,TRUE,"E_F_Judi_Dench.jpg E_M_anthony_hopkins.jpg"
4609,"P_M_boris_johnson.jpg","P_M_donald_trump.jpg","TRUE","pictures/stimuli/P","pictures/stimuli/P","M","M","3","5915e5c6405db80001f30ff1","11/30/2021, 10:02:10",-0.141763931811435,"35","Female","left",1,1,0,0,FALSE,"P_M_boris_johnson.jpg P_M_donald_trump.jpg"
2663,"E_M_nicolas_cage.jpg","E_M_tom_hankes.jpg","TRUE","pictures/stimuli/E","pictures/stimuli/E","M","M","2","5915e5c6405db80001f30ff1","11/30/2021, 10:02:10",-1.04516153649215,"35","Female","left",1,1,0,0,FALSE,"E_M_nicolas_cage.jpg E_M_tom_hankes.jpg"
7136,"E_F_Kate_Winslet.jpg","P_F_PRITI_PATEL.jpg","FALSE","pictures/stimuli/E","pictures/stimuli/P","F","F","4","5915e5c6405db80001f30ff1","11/30/2021, 10:02:10",0.761633672869282,"35","Female","left",1,1,0,0,FALSE,"E_F_Kate_Winslet.jpg P_F_PRITI_PATEL.jpg"
2297,"P_F_nicola_sturgeon.jpg","P_M_george_Wbush.jpg","TRUE","pictures/stimuli/P","pictures/stimuli/P","F","M","3","5915e5c6405db80001f30ff1","11/30/2021, 10:02:10",-0.141763931811435,"35","Female","left",1,1,0,0,FALSE,"P_F_nicola_sturgeon.jpg P_M_george_Wbush.jpg"
2242,"E_M_nicolas_cage.jpg","P_F_tehresy_may.jpg","FALSE","pictures/stimuli/E","pictures/stimuli/P","M","F","5","5915e5c6405db80001f30ff1","11/30/2021, 10:02:10",1.66503127755,"35","Female","left",1,1,0,0,FALSE,"E_M_nicolas_cage.jpg P_F_tehresy_may.jpg"
2015,"E_M_robert_de_niro.jpg","P_F_hillary_clinton.jpg","FALSE","pictures/stimuli/E","pictures/stimuli/P","M","F","4","5915e5c6405db80001f30ff1","11/30/2021, 10:02:10",0.761633672869282,"35","Female","left",1,1,0,0,FALSE,"E_M_robert_de_niro.jpg P_F_hillary_clinton.jpg"
5209,"E_M_Martin_Freeman.jpg","P_F_nicola_sturgeon.jpg","FALSE","pictures/stimuli/E","pictures/stimuli/P","M","F","3","5915e5c6405db80001f30ff1","11/30/2021, 10:02:10",-0.141763931811435,"35","Female","left",0,1,0,0,TRUE,"E_M_Martin_Freeman.jpg P_F_nicola_sturgeon.jpg"
1783,"E_M_robert_de_niro.jpg","P_F_esther_mcvey.jpg","FALSE","pictures/stimuli/E","pictures/stimuli/P","M","F","2","5915e5c6405db80001f30ff1","11/30/2021, 10:02:10",-1.04516153649215,"35","Female","left",1,0,0,0,TRUE,"E_M_robert_de_niro.jpg P_F_esther_mcvey.jpg"
3563,"P_F_tehresy_may.jpg","P_M_donald_trump.jpg","TRUE","pictures/stimuli/P","pictures/stimuli/P","F","M","5","5915e5c6405db80001f30ff1","11/30/2021, 10:02:10",1.66503127755,"35","Female","left",1,1,0,0,FALSE,"P_F_tehresy_may.jpg P_M_donald_trump.jpg"
2201,"E_M_liam_neeson.jpg","P_M_bill_clinton.jpg","FALSE","pictures/stimuli/E","pictures/stimuli/P","M","M","2","5915e5c6405db80001f30ff1","11/30/2021, 10:02:10",-1.04516153649215,"35","Female","left",0,1,0,0,TRUE,"E_M_liam_neeson.jpg P_M_bill_clinton.jpg"
5800,"E_M_robert_de_niro.jpg","P_F_PRITI_PATEL.jpg","FALSE","pictures/stimuli/E","pictures/stimuli/P","M","F","2","5915e5c6405db80001f30ff1","11/30/2021, 10:02:10",-1.04516153649215,"35","Female","left",1,1,0,0,FALSE,"E_M_robert_de_niro.jpg P_F_PRITI_PATEL.jpg"
902,"E_M_Hugh_Grant.jpg","E_M_tom_hankes.jpg","TRUE","pictures/stimuli/E","pictures/stimuli/E","M","M","1","5915e5c6405db80001f30ff1","11/30/2021, 10:02:10",-1.94855914117287,"35","Female","left",1,1,0,0,FALSE,"E_M_Hugh_Grant.jpg E_M_tom_hankes.jpg"
907,"E_M_Hugh_Grant.jpg","P_F_angela_rayner.jpg","FALSE","pictures/stimuli/E","pictures/stimuli/P","M","F","2","5915e5c6405db80001f30ff1","11/30/2021, 10:02:10",-1.04516153649215,"35","Female","left",1,1,0,0,FALSE,"E_M_Hugh_Grant.jpg P_F_angela_rayner.jpg"
739,"E_M_robert_de_niro.jpg","P_M_george_Wbush.jpg","FALSE","pictures/stimuli/E","pictures/stimuli/P","M","M","3","5915e5c6405db80001f30ff1","11/30/2021, 10:02:10",-0.141763931811435,"35","Female","left",1,1,0,0,FALSE,"E_M_robert_de_niro.jpg P_M_george_Wbush.jpg"
610,"E_M_michael_caine.jpg","P_M_bill_clinton.jpg","FALSE","pictures/stimuli/E","pictures/stimuli/P","M","M","2","5915e5c6405db80001f30ff1","11/30/2021, 10:02:10",-1.04516153649215,"35","Female","left",1,1,0,0,FALSE,"E_M_michael_caine.jpg P_M_bill_clinton.jpg"
10290,"E_F_Kate_Winslet.jpg","E_M_nicolas_cage.jpg","TRUE","pictures/stimuli/E","pictures/stimuli/E","F","M","3","5915e5c6405db80001f30ff1","11/30/2021, 10:02:10",-0.141763931811435,"35","Female","left",1,1,0,0,FALSE,"E_F_Kate_Winslet.jpg E_M_nicolas_cage.jpg"
1821,"E_F_Judi_Dench.jpg","E_M_Martin_Freeman.jpg","TRUE","pictures/stimuli/E","pictures/stimuli/E","F","M","2","5915e5c6405db80001f30ff1","11/30/2021, 10:02:10",-1.04516153649215,"35","Female","left",1,0,0,0,TRUE,"E_F_Judi_Dench.jpg E_M_Martin_Freeman.jpg"
23392,"E_M_robert_de_niro.jpg","P_F_tehresy_may.jpg","FALSE","pictures/stimuli/E","pictures/stimuli/P","M","F","4","5915e5c6405db80001f30ff1","11/30/2021, 10:02:10",0.761633672869282,"35","Female","left",1,1,0,0,FALSE,"E_M_robert_de_niro.jpg P_F_tehresy_may.jpg"
3783,"E_F_jennifer_aniston.jpg","P_F_PRITI_PATEL.jpg","FALSE","pictures/stimuli/E","pictures/stimuli/P","F","F","2","5915e5c6405db80001f30ff1","11/30/2021, 10:02:10",-1.04516153649215,"35","Female","left",1,1,0,0,FALSE,"E_F_jennifer_aniston.jpg P_F_PRITI_PATEL.jpg"
894,"E_M_robert_de_niro.jpg","P_F_nicola_sturgeon.jpg","FALSE","pictures/stimuli/E","pictures/stimuli/P","M","F","3","5915e5c6405db80001f30ff1","11/30/2021, 10:02:10",-0.141763931811435,"35","Female","left",1,1,0,0,FALSE,"E_M_robert_de_niro.jpg P_F_nicola_sturgeon.jpg"
2120,"E_M_nicolas_cage.jpg","P_M_boris_johnson.jpg","FALSE","pictures/stimuli/E","pictures/stimuli/P","M","M","2","5915e5c6405db80001f30ff1","11/30/2021, 10:02:10",-1.04516153649215,"35","Female","left",1,1,0,0,FALSE,"E_M_nicolas_cage.jpg P_M_boris_johnson.jpg"
779,"E_M_Hugh_Grant.jpg","P_M_boris_johnson.jpg","FALSE","pictures/stimuli/E","pictures/stimuli/P","M","M","3","5915e5c6405db80001f30ff1","11/30/2021, 10:02:10",-0.141763931811435,"35","Female","left",1,1,0,0,FALSE,"E_M_Hugh_Grant.jpg P_M_boris_johnson.jpg"
710,"E_F_sandra_bullock.jpg","E_M_anthony_hopkins.jpg","TRUE","pictures/stimuli/E","pictures/stimuli/E","F","M","2","5915e5c6405db80001f30ff1","11/30/2021, 10:02:10",-1.04516153649215,"35","Female","left",1,0,0,0,TRUE,"E_F_sandra_bullock.jpg E_M_anthony_hopkins.jpg"
1414,"P_F_hillary_clinton.jpg","P_M_Tony_Blair.jpg","TRUE","pictures/stimuli/P","pictures/stimuli/P","F","M","2","5915e5c6405db80001f30ff1","11/30/2021, 10:02:10",-1.04516153649215,"35","Female","left",1,1,0,0,FALSE,"P_F_hillary_clinton.jpg P_M_Tony_Blair.jpg"
663,"E_F_jennifer_aniston.jpg","P_M_boris_johnson.jpg","FALSE","pictures/stimuli/E","pictures/stimuli/P","F","M","3","5915e5c6405db80001f30ff1","11/30/2021, 10:02:10",-0.141763931811435,"35","Female","left",1,1,0,0,FALSE,"E_F_jennifer_aniston.jpg P_M_boris_johnson.jpg"
390,"E_M_michael_caine.jpg","P_F_tehresy_may.jpg","FALSE","pictures/stimuli/E","pictures/stimuli/P","M","F","2","5915e5c6405db80001f30ff1","11/30/2021, 10:02:10",-1.04516153649215,"35","Female","left",1,1,0,0,FALSE,"E_M_michael_caine.jpg P_F_tehresy_may.jpg"
1344,"E_F_keira_knightley.jpg","E_M_anthony_hopkins.jpg","TRUE","pictures/stimuli/E","pictures/stimuli/E","F","M","3","5915e5c6405db80001f30ff1","11/30/2021, 10:02:10",-0.141763931811435,"35","Female","left",1,0,0,0,TRUE,"E_F_keira_knightley.jpg E_M_anthony_hopkins.jpg"
433,"P_F_hillary_clinton.jpg","P_F_tehresy_may.jpg","TRUE","pictures/stimuli/P","pictures/stimuli/P","F","F","4","5915e5c6405db80001f30ff1","11/30/2021, 10:02:10",0.761633672869282,"35","Female","left",1,1,0,0,FALSE,"P_F_hillary_clinton.jpg P_F_tehresy_may.jpg"
522,"E_M_michael_caine.jpg","P_M_george_Wbush.jpg","FALSE","pictures/stimuli/E","pictures/stimuli/P","M","M","3","5915e5c6405db80001f30ff1","11/30/2021, 10:02:10",-0.141763931811435,"35","Female","left",1,1,0,0,FALSE,"E_M_michael_caine.jpg P_M_george_Wbush.jpg"
1467,"E_M_michael_caine.jpg","P_F_hillary_clinton.jpg","FALSE","pictures/stimuli/E","pictures/stimuli/P","M","F","2","5915e5c6405db80001f30ff1","11/30/2021, 10:02:10",-1.04516153649215,"35","Female","left",1,1,0,0,FALSE,"E_M_michael_caine.jpg P_F_hillary_clinton.jpg"
2492,"E_F_angelina_jolie.jpg","P_M_Tony_Blair.jpg","FALSE","pictures/stimuli/E","pictures/stimuli/P","F","M","6","5915e5c6405db80001f30ff1","11/30/2021, 10:02:10",2.56842888223072,"35","Female","left",1,1,0,0,FALSE,"E_F_angelina_jolie.jpg P_M_Tony_Blair.jpg"
2573,"E_M_Hugh_Grant.jpg","P_M_donald_trump.jpg","FALSE","pictures/stimuli/E","pictures/stimuli/P","M","M","4","5915e5c6405db80001f30ff1","11/30/2021, 10:02:10",0.761633672869282,"35","Female","left",1,1,0,0,FALSE,"E_M_Hugh_Grant.jpg P_M_donald_trump.jpg"
3407,"E_F_jennifer_aniston.jpg","E_F_keira_knightley.jpg","TRUE","pictures/stimuli/E","pictures/stimuli/E","F","F","4","5915e5c6405db80001f30ff1","11/30/2021, 10:02:10",0.761633672869282,"35","Female","left",1,1,0,0,FALSE,"E_F_jennifer_aniston.jpg E_F_keira_knightley.jpg"
4644,"E_F_Kate_Winslet.jpg","P_F_tehresy_may.jpg","FALSE","pictures/stimuli/E","pictures/stimuli/P","F","F","3","5915e5c6405db80001f30ff1","11/30/2021, 10:02:10",-0.141763931811435,"35","Female","left",1,1,0,0,FALSE,"E_F_Kate_Winslet.jpg P_F_tehresy_may.jpg"
7416,"E_M_anthony_hopkins.jpg","E_M_tom_hankes.jpg","TRUE","pictures/stimuli/E","pictures/stimuli/E","M","M","2","5915e5c6405db80001f30ff1","11/30/2021, 10:02:10",-1.04516153649215,"35","Female","left",0,1,0,0,TRUE,"E_M_anthony_hopkins.jpg E_M_tom_hankes.jpg"
8272,"P_F_hillary_clinton.jpg","P_M_donald_trump.jpg","TRUE","pictures/stimuli/P","pictures/stimuli/P","F","M","6","5915e5c6405db80001f30ff1","11/30/2021, 10:02:10",2.56842888223072,"35","Female","left",1,1,0,0,FALSE,"P_F_hillary_clinton.jpg P_M_donald_trump.jpg"
1618,"E_M_anthony_hopkins.jpg","P_M_Tony_Blair.jpg","FALSE","pictures/stimuli/E","pictures/stimuli/P","M","M","5","5915e5c6405db80001f30ff1","11/30/2021, 10:02:10",1.66503127755,"35","Female","left",0,1,0,0,TRUE,"E_M_anthony_hopkins.jpg P_M_Tony_Blair.jpg"
1860,"P_F_hillary_clinton.jpg","P_F_PRITI_PATEL.jpg","TRUE","pictures/stimuli/P","pictures/stimuli/P","F","F","4","5915e5c6405db80001f30ff1","11/30/2021, 10:02:10",0.761633672869282,"35","Female","left",1,1,0,0,FALSE,"P_F_hillary_clinton.jpg P_F_PRITI_PATEL.jpg"
2927,"E_F_sandra_bullock.jpg","E_M_Martin_Freeman.jpg","TRUE","pictures/stimuli/E","pictures/stimuli/E","F","M","2","5915e5c6405db80001f30ff1","11/30/2021, 10:02:10",-1.04516153649215,"35","Female","left",1,0,0,0,TRUE,"E_F_sandra_bullock.jpg E_M_Martin_Freeman.jpg"
1828,"P_F_esther_mcvey.jpg","P_F_nicola_sturgeon.jpg","TRUE","pictures/stimuli/P","pictures/stimuli/P","F","F","4","5915e5c6405db80001f30ff1","11/30/2021, 10:02:10",0.761633672869282,"35","Female","left",0,1,0,0,TRUE,"P_F_esther_mcvey.jpg P_F_nicola_sturgeon.jpg"
5103,"P_F_angela_rayner.jpg","P_F_nicola_sturgeon.jpg","TRUE","pictures/stimuli/P","pictures/stimuli/P","F","F","2","5915e5c6405db80001f30ff1","11/30/2021, 10:02:10",-1.04516153649215,"35","Female","left",1,1,0,0,FALSE,"P_F_angela_rayner.jpg P_F_nicola_sturgeon.jpg"
927,"E_M_liam_neeson.jpg","P_M_david_cameron.jpg","FALSE","pictures/stimuli/E","pictures/stimuli/P","M","M","2","5915e5c6405db80001f30ff1","11/30/2021, 10:02:10",-1.04516153649215,"35","Female","left",0,1,0,0,TRUE,"E_M_liam_neeson.jpg P_M_david_cameron.jpg"
950,"E_M_Martin_Freeman.jpg","E_M_robert_de_niro.jpg","TRUE","pictures/stimuli/E","pictures/stimuli/E","M","M","3","5915e5c6405db80001f30ff1","11/30/2021, 10:02:10",-0.141763931811435,"35","Female","left",0,1,0,0,TRUE,"E_M_Martin_Freeman.jpg E_M_robert_de_niro.jpg"
1358,"P_F_PRITI_PATEL.jpg","P_M_boris_johnson.jpg","TRUE","pictures/stimuli/P","pictures/stimuli/P","F","M","3","5915e5c6405db80001f30ff1","11/30/2021, 10:02:10",-0.141763931811435,"35","Female","left",1,1,0,0,FALSE,"P_F_PRITI_PATEL.jpg P_M_boris_johnson.jpg"
1958,"E_F_angelina_jolie.jpg","E_M_Hugh_Grant.jpg","TRUE","pictures/stimuli/E","pictures/stimuli/E","F","M","2","5915e5c6405db80001f30ff1","11/30/2021, 10:02:10",-1.04516153649215,"35","Female","left",1,1,0,0,FALSE,"E_F_angelina_jolie.jpg E_M_Hugh_Grant.jpg"
1016,"P_M_boris_johnson.jpg","P_M_david_cameron.jpg","TRUE","pictures/stimuli/P","pictures/stimuli/P","M","M","4","5915e5c6405db80001f30ff1","11/30/2021, 10:02:10",0.761633672869282,"35","Female","left",1,1,0,0,FALSE,"P_M_boris_johnson.jpg P_M_david_cameron.jpg"
823,"P_F_hillary_clinton.jpg","P_M_george_Wbush.jpg","TRUE","pictures/stimuli/P","pictures/stimuli/P","F","M","2","5915e5c6405db80001f30ff1","11/30/2021, 10:02:10",-1.04516153649215,"35","Female","left",1,1,0,0,FALSE,"P_F_hillary_clinton.jpg P_M_george_Wbush.jpg"
1677,"E_M_anthony_hopkins.jpg","P_M_boris_johnson.jpg","FALSE","pictures/stimuli/E","pictures/stimuli/P","M","M","5","5915e5c6405db80001f30ff1","11/30/2021, 10:02:10",1.66503127755,"35","Female","left",0,1,0,0,TRUE,"E_M_anthony_hopkins.jpg P_M_boris_johnson.jpg"
2186,"E_M_nicolas_cage.jpg","E_M_robert_de_niro.jpg","TRUE","pictures/stimuli/E","pictures/stimuli/E","M","M","2","5915e5c6405db80001f30ff1","11/30/2021, 10:02:10",-1.04516153649215,"35","Female","left",1,1,0,0,FALSE,"E_M_nicolas_cage.jpg E_M_robert_de_niro.jpg"
5253,"E_F_Judi_Dench.jpg","P_M_david_cameron.jpg","FALSE","pictures/stimuli/E","pictures/stimuli/P","F","M","2","5915e5c6405db80001f30ff1","11/30/2021, 10:02:10",-1.04516153649215,"35","Female","left",1,1,0,0,FALSE,"E_F_Judi_Dench.jpg P_M_david_cameron.jpg"
629,"E_M_Hugh_Grant.jpg","P_M_Tony_Blair.jpg","FALSE","pictures/stimuli/E","pictures/stimuli/P","M","M","3","5915e5c6405db80001f30ff1","11/30/2021, 10:02:10",-0.141763931811435,"35","Female","left",1,1,0,0,FALSE,"E_M_Hugh_Grant.jpg P_M_Tony_Blair.jpg"
678,"E_M_michael_caine.jpg","P_M_david_cameron.jpg","FALSE","pictures/stimuli/E","pictures/stimuli/P","M","M","1","5915e5c6405db80001f30ff1","11/30/2021, 10:02:10",-1.94855914117287,"35","Female","left",1,1,0,0,FALSE,"E_M_michael_caine.jpg P_M_david_cameron.jpg"
590,"E_F_Judi_Dench.jpg","P_M_Tony_Blair.jpg","FALSE","pictures/stimuli/E","pictures/stimuli/P","F","M","2","5915e5c6405db80001f30ff1","11/30/2021, 10:02:10",-1.04516153649215,"35","Female","left",1,1,0,0,FALSE,"E_F_Judi_Dench.jpg P_M_Tony_Blair.jpg"
665,"E_M_liam_neeson.jpg","P_F_angela_rayner.jpg","FALSE","pictures/stimuli/E","pictures/stimuli/P","M","F","3","5915e5c6405db80001f30ff1","11/30/2021, 10:02:10",-0.141763931811435,"35","Female","left",0,1,0,0,TRUE,"E_M_liam_neeson.jpg P_F_angela_rayner.jpg"
634,"E_M_tom_hankes.jpg","P_M_bill_clinton.jpg","FALSE","pictures/stimuli/E","pictures/stimuli/P","M","M","2","5915e5c6405db80001f30ff1","11/30/2021, 10:02:10",-1.04516153649215,"35","Female","left",1,1,0,0,FALSE,"E_M_tom_hankes.jpg P_M_bill_clinton.jpg"
745,"E_M_anthony_hopkins.jpg","E_M_nicolas_cage.jpg","TRUE","pictures/stimuli/E","pictures/stimuli/E","M","M","3","5915e5c6405db80001f30ff1","11/30/2021, 10:02:10",-0.141763931811435,"35","Female","left",0,1,0,0,TRUE,"E_M_anthony_hopkins.jpg E_M_nicolas_cage.jpg"
1957,"E_M_liam_neeson.jpg","P_F_PRITI_PATEL.jpg","FALSE","pictures/stimuli/E","pictures/stimuli/P","M","F","5","5915e5c6405db80001f30ff1","11/30/2021, 10:02:10",1.66503127755,"35","Female","left",0,1,0,0,TRUE,"E_M_liam_neeson.jpg P_F_PRITI_PATEL.jpg"
4430,"P_M_david_cameron.jpg","P_M_donald_trump.jpg","TRUE","pictures/stimuli/P","pictures/stimuli/P","M","M","6","5915e5c6405db80001f30ff1","11/30/2021, 10:02:10",2.56842888223072,"35","Female","left",1,1,0,0,FALSE,"P_M_david_cameron.jpg P_M_donald_trump.jpg"
11099,"P_F_esther_mcvey.jpg","P_M_donald_trump.jpg","TRUE","pictures/stimuli/P","pictures/stimuli/P","F","M","5","5915e5c6405db80001f30ff1","11/30/2021, 10:02:10",1.66503127755,"35","Female","left",0,1,0,0,TRUE,"P_F_esther_mcvey.jpg P_M_donald_trump.jpg"
1453,"P_F_angela_rayner.jpg","P_F_hillary_clinton.jpg","TRUE","pictures/stimuli/P","pictures/stimuli/P","F","F","3","5915e5c6405db80001f30ff1","11/30/2021, 10:02:10",-0.141763931811435,"35","Female","left",1,1,0,0,FALSE,"P_F_angela_rayner.jpg P_F_hillary_clinton.jpg"
1592,"E_F_Judi_Dench.jpg","E_F_sandra_bullock.jpg","TRUE","pictures/stimuli/E","pictures/stimuli/E","F","F","2","5915e5c6405db80001f30ff1","11/30/2021, 10:02:10",-1.04516153649215,"35","Female","left",1,1,0,0,FALSE,"E_F_Judi_Dench.jpg E_F_sandra_bullock.jpg"
1599,"E_M_Martin_Freeman.jpg","P_F_hillary_clinton.jpg","FALSE","pictures/stimuli/E","pictures/stimuli/P","M","F","3","5915e5c6405db80001f30ff1","11/30/2021, 10:02:10",-0.141763931811435,"35","Female","left",0,1,0,0,TRUE,"E_M_Martin_Freeman.jpg P_F_hillary_clinton.jpg"
7669,"P_F_esther_mcvey.jpg","P_M_george_Wbush.jpg","TRUE","pictures/stimuli/P","pictures/stimuli/P","F","M","3","5915e5c6405db80001f30ff1","11/30/2021, 10:02:10",-0.141763931811435,"35","Female","left",0,1,0,0,TRUE,"P_F_esther_mcvey.jpg P_M_george_Wbush.jpg"
595,"E_M_anthony_hopkins.jpg","P_M_david_cameron.jpg","FALSE","pictures/stimuli/E","pictures/stimuli/P","M","M","1","5915e5c6405db80001f30ff1","11/30/2021, 10:02:10",-1.94855914117287,"35","Female","left",0,1,0,0,TRUE,"E_M_anthony_hopkins.jpg P_M_david_cameron.jpg"
589,"P_M_bill_clinton.jpg","P_M_boris_johnson.jpg","TRUE","pictures/stimuli/P","pictures/stimuli/P","M","M","3","5915e5c6405db80001f30ff1","11/30/2021, 10:02:10",-0.141763931811435,"35","Female","left",1,1,0,0,FALSE,"P_M_bill_clinton.jpg P_M_boris_johnson.jpg"
2181,"E_M_robert_de_niro.jpg","P_M_bill_clinton.jpg","FALSE","pictures/stimuli/E","pictures/stimuli/P","M","M","3","5915e5c6405db80001f30ff1","11/30/2021, 10:02:10",-0.141763931811435,"35","Female","left",1,1,0,0,FALSE,"E_M_robert_de_niro.jpg P_M_bill_clinton.jpg"
1546,"E_F_Judi_Dench.jpg","E_M_tom_hankes.jpg","TRUE","pictures/stimuli/E","pictures/stimuli/E","F","M","2","5915e5c6405db80001f30ff1","11/30/2021, 10:02:10",-1.04516153649215,"35","Female","left",1,1,0,0,FALSE,"E_F_Judi_Dench.jpg E_M_tom_hankes.jpg"
1247,"E_F_sandra_bullock.jpg","P_M_george_Wbush.jpg","FALSE","pictures/stimuli/E","pictures/stimuli/P","F","M","2","5915e5c6405db80001f30ff1","11/30/2021, 10:02:10",-1.04516153649215,"35","Female","left",1,1,0,0,FALSE,"E_F_sandra_bullock.jpg P_M_george_Wbush.jpg"
1680,"E_F_Kate_Winslet.jpg","P_F_esther_mcvey.jpg","FALSE","pictures/stimuli/E","pictures/stimuli/P","F","F","3","5915e5c6405db80001f30ff1","11/30/2021, 10:02:10",-0.141763931811435,"35","Female","left",1,0,0,0,TRUE,"E_F_Kate_Winslet.jpg P_F_esther_mcvey.jpg"
1710,"E_M_Martin_Freeman.jpg","E_M_tom_hankes.jpg","TRUE","pictures/stimuli/E","pictures/stimuli/E","M","M","2","5915e5c6405db80001f30ff1","11/30/2021, 10:02:10",-1.04516153649215,"35","Female","left",0,1,0,0,TRUE,"E_M_Martin_Freeman.jpg E_M_tom_hankes.jpg"
1672,"P_F_angela_rayner.jpg","P_F_tehresy_may.jpg","TRUE","pictures/stimuli/P","pictures/stimuli/P","F","F","4","5915e5c6405db80001f30ff1","11/30/2021, 10:02:10",0.761633672869282,"35","Female","left",1,1,0,0,FALSE,"P_F_angela_rayner.jpg P_F_tehresy_may.jpg"
1377,"E_F_keira_knightley.jpg","E_M_Martin_Freeman.jpg","TRUE","pictures/stimuli/E","pictures/stimuli/E","F","M","3","5915e5c6405db80001f30ff1","11/30/2021, 10:02:10",-0.141763931811435,"35","Female","left",1,0,0,0,TRUE,"E_F_keira_knightley.jpg E_M_Martin_Freeman.jpg"
1629,"E_F_keira_knightley.jpg","E_M_nicolas_cage.jpg","TRUE","pictures/stimuli/E","pictures/stimuli/E","F","M","2","5915e5c6405db80001f30ff1","11/30/2021, 10:02:10",-1.04516153649215,"35","Female","left",1,1,0,0,FALSE,"E_F_keira_knightley.jpg E_M_nicolas_cage.jpg"
5130,"E_F_angelina_jolie.jpg","E_M_michael_caine.jpg","TRUE","pictures/stimuli/E","pictures/stimuli/E","F","M","2","5915e5c6405db80001f30ff1","11/30/2021, 10:02:10",-1.04516153649215,"35","Female","left",1,1,0,0,FALSE,"E_F_angelina_jolie.jpg E_M_michael_caine.jpg"
2837,"E_M_anthony_hopkins.jpg","P_M_donald_trump.jpg","FALSE","pictures/stimuli/E","pictures/stimuli/P","M","M","2","5915e5c6405db80001f30ff1","11/30/2021, 10:02:10",-1.04516153649215,"35","Female","left",0,1,0,0,TRUE,"E_M_anthony_hopkins.jpg P_M_donald_trump.jpg"
3323,"E_M_michael_caine.jpg","P_F_nicola_sturgeon.jpg","FALSE","pictures/stimuli/E","pictures/stimuli/P","M","F","2","5915e5c6405db80001f30ff1","11/30/2021, 10:02:10",-1.04516153649215,"35","Female","left",1,1,0,0,FALSE,"E_M_michael_caine.jpg P_F_nicola_sturgeon.jpg"
1709,"E_F_angelina_jolie.jpg","P_M_bill_clinton.jpg","FALSE","pictures/stimuli/E","pictures/stimuli/P","F","M","2","5915e5c6405db80001f30ff1","11/30/2021, 10:02:10",-1.04516153649215,"35","Female","left",1,1,0,0,FALSE,"E_F_angelina_jolie.jpg P_M_bill_clinton.jpg"
3494,"E_F_sandra_bullock.jpg","P_M_donald_trump.jpg","FALSE","pictures/stimuli/E","pictures/stimuli/P","F","M","2","5915e5c6405db80001f30ff1","11/30/2021, 10:02:10",-1.04516153649215,"35","Female","left",1,1,0,0,FALSE,"E_F_sandra_bullock.jpg P_M_donald_trump.jpg"
8229,"E_M_michael_caine.jpg","P_M_boris_johnson.jpg","FALSE","pictures/stimuli/E","pictures/stimuli/P","M","M","2","5915e5c6405db80001f30ff1","11/30/2021, 10:02:10",-1.04516153649215,"35","Female","left",1,1,0,0,FALSE,"E_M_michael_caine.jpg P_M_boris_johnson.jpg"
9930,"P_F_PRITI_PATEL.jpg","P_M_bill_clinton.jpg","TRUE","pictures/stimuli/P","pictures/stimuli/P","F","M","4","5915e5c6405db80001f30ff1","11/30/2021, 10:02:10",0.761633672869282,"35","Female","left",1,1,0,0,FALSE,"P_F_PRITI_PATEL.jpg P_M_bill_clinton.jpg"
1585,"E_M_anthony_hopkins.jpg","P_F_angela_rayner.jpg","FALSE","pictures/stimuli/E","pictures/stimuli/P","M","F","3","5915e5c6405db80001f30ff1","11/30/2021, 10:02:10",-0.141763931811435,"35","Female","left",0,1,0,0,TRUE,"E_M_anthony_hopkins.jpg P_F_angela_rayner.jpg"
1127,"E_F_sandra_bullock.jpg","P_F_PRITI_PATEL.jpg","FALSE","pictures/stimuli/E","pictures/stimuli/P","F","F","2","5915e5c6405db80001f30ff1","11/30/2021, 10:02:10",-1.04516153649215,"35","Female","left",1,1,0,0,FALSE,"E_F_sandra_bullock.jpg P_F_PRITI_PATEL.jpg"
6932,"E_M_liam_neeson.jpg","P_F_nicola_sturgeon.jpg","FALSE","pictures/stimuli/E","pictures/stimuli/P","M","F","2","5915e5c6405db80001f30ff1","11/30/2021, 10:02:10",-1.04516153649215,"35","Female","left",0,1,0,0,TRUE,"E_M_liam_neeson.jpg P_F_nicola_sturgeon.jpg"
2253,"E_M_nicolas_cage.jpg","P_M_george_Wbush.jpg","FALSE","pictures/stimuli/E","pictures/stimuli/P","M","M","4","5915e5c6405db80001f30ff1","11/30/2021, 10:02:10",0.761633672869282,"35","Female","left",1,1,0,0,FALSE,"E_M_nicolas_cage.jpg P_M_george_Wbush.jpg"
6144,"E_F_Judi_Dench.jpg","P_F_nicola_sturgeon.jpg","FALSE","pictures/stimuli/E","pictures/stimuli/P","F","F","3","5915e5c6405db80001f30ff1","11/30/2021, 10:02:10",-0.141763931811435,"35","Female","left",1,1,0,0,FALSE,"E_F_Judi_Dench.jpg P_F_nicola_sturgeon.jpg"
2727,"E_F_Judi_Dench.jpg","P_F_PRITI_PATEL.jpg","FALSE","pictures/stimuli/E","pictures/stimuli/P","F","F","4","5915e5c6405db80001f30ff1","11/30/2021, 10:02:10",0.761633672869282,"35","Female","left",1,1,0,0,FALSE,"E_F_Judi_Dench.jpg P_F_PRITI_PATEL.jpg"
8322,"E_M_tom_hankes.jpg","P_M_donald_trump.jpg","FALSE","pictures/stimuli/E","pictures/stimuli/P","M","M","4","5915e5c6405db80001f30ff1","11/30/2021, 10:02:10",0.761633672869282,"35","Female","left",1,1,0,0,FALSE,"E_M_tom_hankes.jpg P_M_donald_trump.jpg"
3786,"E_F_angelina_jolie.jpg","E_F_keira_knightley.jpg","TRUE","pictures/stimuli/E","pictures/stimuli/E","F","F","2","5915e5c6405db80001f30ff1","11/30/2021, 10:02:10",-1.04516153649215,"35","Female","left",1,1,0,0,FALSE,"E_F_angelina_jolie.jpg E_F_keira_knightley.jpg"
1679,"E_F_angelina_jolie.jpg","P_F_esther_mcvey.jpg","FALSE","pictures/stimuli/E","pictures/stimuli/P","F","F","3","5915e5c6405db80001f30ff1","11/30/2021, 10:02:10",-0.141763931811435,"35","Female","left",1,0,0,0,TRUE,"E_F_angelina_jolie.jpg P_F_esther_mcvey.jpg"
2705,"E_F_Kate_Winslet.jpg","E_M_tom_hankes.jpg","TRUE","pictures/stimuli/E","pictures/stimuli/E","F","M","2","5915e5c6405db80001f30ff1","11/30/2021, 10:02:10",-1.04516153649215,"35","Female","left",1,1,0,0,FALSE,"E_F_Kate_Winslet.jpg E_M_tom_hankes.jpg"
4921,"E_M_tom_hankes.jpg","P_F_nicola_sturgeon.jpg","FALSE","pictures/stimuli/E","pictures/stimuli/P","M","F","5","5915e5c6405db80001f30ff1","11/30/2021, 10:02:10",1.66503127755,"35","Female","left",1,1,0,0,FALSE,"E_M_tom_hankes.jpg P_F_nicola_sturgeon.jpg"
2752,"E_F_sandra_bullock.jpg","E_M_liam_neeson.jpg","TRUE","pictures/stimuli/E","pictures/stimuli/E","F","M","4","5915e5c6405db80001f30ff1","11/30/2021, 10:02:10",0.761633672869282,"35","Female","left",1,0,0,0,TRUE,"E_F_sandra_bullock.jpg E_M_liam_neeson.jpg"
5057,"P_F_nicola_sturgeon.jpg","P_M_Tony_Blair.jpg","TRUE","pictures/stimuli/P","pictures/stimuli/P","F","M","3","5915e5c6405db80001f30ff1","11/30/2021, 10:02:10",-0.141763931811435,"35","Female","left",1,1,0,0,FALSE,"P_F_nicola_sturgeon.jpg P_M_Tony_Blair.jpg"
772,"P_F_PRITI_PATEL.jpg","P_M_Tony_Blair.jpg","TRUE","pictures/stimuli/P","pictures/stimuli/P","F","M","2","5915e5c6405db80001f30ff1","11/30/2021, 10:02:10",-1.04516153649215,"35","Female","left",1,1,0,0,FALSE,"P_F_PRITI_PATEL.jpg P_M_Tony_Blair.jpg"
664,"E_F_Judi_Dench.jpg","P_M_boris_johnson.jpg","FALSE","pictures/stimuli/E","pictures/stimuli/P","F","M","3","5915e5c6405db80001f30ff1","11/30/2021, 10:02:10",-0.141763931811435,"35","Female","left",1,1,0,0,FALSE,"E_F_Judi_Dench.jpg P_M_boris_johnson.jpg"
782,"E_M_Hugh_Grant.jpg","P_F_nicola_sturgeon.jpg","FALSE","pictures/stimuli/E","pictures/stimuli/P","M","F","4","5915e5c6405db80001f30ff1","11/30/2021, 10:02:10",0.761633672869282,"35","Female","left",1,1,0,0,FALSE,"E_M_Hugh_Grant.jpg P_F_nicola_sturgeon.jpg"
755,"E_M_liam_neeson.jpg","E_M_robert_de_niro.jpg","TRUE","pictures/stimuli/E","pictures/stimuli/E","M","M","5","5915e5c6405db80001f30ff1","11/30/2021, 10:02:10",1.66503127755,"35","Female","left",0,1,0,0,TRUE,"E_M_liam_neeson.jpg E_M_robert_de_niro.jpg"
559,"E_M_liam_neeson.jpg","P_F_tehresy_may.jpg","FALSE","pictures/stimuli/E","pictures/stimuli/P","M","F","4","5915e5c6405db80001f30ff1","11/30/2021, 10:02:10",0.761633672869282,"35","Female","left",0,1,0,0,TRUE,"E_M_liam_neeson.jpg P_F_tehresy_may.jpg"
683,"E_F_keira_knightley.jpg","P_F_nicola_sturgeon.jpg","FALSE","pictures/stimuli/E","pictures/stimuli/P","F","F","3","5915e5c6405db80001f30ff1","11/30/2021, 10:02:10",-0.141763931811435,"35","Female","left",1,1,0,0,FALSE,"E_F_keira_knightley.jpg P_F_nicola_sturgeon.jpg"
687,"E_F_jennifer_aniston.jpg","P_M_donald_trump.jpg","FALSE","pictures/stimuli/E","pictures/stimuli/P","F","M","3","5915e5c6405db80001f30ff1","11/30/2021, 10:02:10",-0.141763931811435,"35","Female","left",1,1,0,0,FALSE,"E_F_jennifer_aniston.jpg P_M_donald_trump.jpg"
6659,"P_F_angela_rayner.jpg","P_M_Tony_Blair.jpg","TRUE","pictures/stimuli/P","pictures/stimuli/P","F","M","4","5915e5c6405db80001f30ff1","11/30/2021, 10:02:10",0.761633672869282,"35","Female","left",1,1,0,0,FALSE,"P_F_angela_rayner.jpg P_M_Tony_Blair.jpg"
2629,"E_M_robert_de_niro.jpg","P_M_donald_trump.jpg","FALSE","pictures/stimuli/E","pictures/stimuli/P","M","M","2","5915e5c6405db80001f30ff1","11/30/2021, 10:02:10",-1.04516153649215,"35","Female","left",1,1,0,0,FALSE,"E_M_robert_de_niro.jpg P_M_donald_trump.jpg"
11063,"E_M_Hugh_Grant.jpg","P_F_tehresy_may.jpg","FALSE","pictures/stimuli/E","pictures/stimuli/P","M","F","3","5915e5c6405db80001f30ff1","11/30/2021, 10:02:10",-0.141763931811435,"35","Female","left",1,1,0,0,FALSE,"E_M_Hugh_Grant.jpg P_F_tehresy_may.jpg"
2998,"E_F_keira_knightley.jpg","E_M_Hugh_Grant.jpg","TRUE","pictures/stimuli/E","pictures/stimuli/E","F","M","3","5915e5c6405db80001f30ff1","11/30/2021, 10:02:10",-0.141763931811435,"35","Female","left",1,1,0,0,FALSE,"E_F_keira_knightley.jpg E_M_Hugh_Grant.jpg"
5993,"E_M_liam_neeson.jpg","E_M_Martin_Freeman.jpg","TRUE","pictures/stimuli/E","pictures/stimuli/E","M","M","3","5915e5c6405db80001f30ff1","11/30/2021, 10:02:10",-0.141763931811435,"35","Female","left",0,0,0,0,TRUE,"E_M_liam_neeson.jpg E_M_Martin_Freeman.jpg"
2701,"E_F_keira_knightley.jpg","E_M_michael_caine.jpg","TRUE","pictures/stimuli/E","pictures/stimuli/E","F","M","2","5915e5c6405db80001f30ff1","11/30/2021, 10:02:10",-1.04516153649215,"35","Female","left",1,1,0,0,FALSE,"E_F_keira_knightley.jpg E_M_michael_caine.jpg"
1293,"E_M_anthony_hopkins.jpg","E_M_Martin_Freeman.jpg","TRUE","pictures/stimuli/E","pictures/stimuli/E","M","M","4","5915e5c6405db80001f30ff1","11/30/2021, 10:02:10",0.761633672869282,"35","Female","left",0,0,0,0,TRUE,"E_M_anthony_hopkins.jpg E_M_Martin_Freeman.jpg"
558,"E_M_tom_hankes.jpg","P_M_boris_johnson.jpg","FALSE","pictures/stimuli/E","pictures/stimuli/P","M","M","4","5915e5c6405db80001f30ff1","11/30/2021, 10:02:10",0.761633672869282,"35","Female","left",1,1,0,0,FALSE,"E_M_tom_hankes.jpg P_M_boris_johnson.jpg"
1363,"E_M_anthony_hopkins.jpg","E_M_Hugh_Grant.jpg","TRUE","pictures/stimuli/E","pictures/stimuli/E","M","M","3","5915e5c6405db80001f30ff1","11/30/2021, 10:02:10",-0.141763931811435,"35","Female","left",0,1,0,0,TRUE,"E_M_anthony_hopkins.jpg E_M_Hugh_Grant.jpg"
2350,"E_F_jennifer_aniston.jpg","E_M_anthony_hopkins.jpg","TRUE","pictures/stimuli/E","pictures/stimuli/E","F","M","3","5915e5c6405db80001f30ff1","11/30/2021, 10:02:10",-0.141763931811435,"35","Female","left",1,0,0,0,TRUE,"E_F_jennifer_aniston.jpg E_M_anthony_hopkins.jpg"
4360,"E_F_angelina_jolie.jpg","E_M_robert_de_niro.jpg","TRUE","pictures/stimuli/E","pictures/stimuli/E","F","M","2","5915e5c6405db80001f30ff1","11/30/2021, 10:02:10",-1.04516153649215,"35","Female","left",1,1,0,0,FALSE,"E_F_angelina_jolie.jpg E_M_robert_de_niro.jpg"
3669,"E_M_Martin_Freeman.jpg","P_F_esther_mcvey.jpg","FALSE","pictures/stimuli/E","pictures/stimuli/P","M","F","3","5915e5c6405db80001f30ff1","11/30/2021, 10:02:10",-0.141763931811435,"35","Female","left",0,0,0,0,TRUE,"E_M_Martin_Freeman.jpg P_F_esther_mcvey.jpg"
2755,"E_F_Judi_Dench.jpg","P_M_george_Wbush.jpg","FALSE","pictures/stimuli/E","pictures/stimuli/P","F","M","2","5915e5c6405db80001f30ff1","11/30/2021, 10:02:10",-1.04516153649215,"35","Female","left",1,1,0,0,FALSE,"E_F_Judi_Dench.jpg P_M_george_Wbush.jpg"
4630,"E_M_anthony_hopkins.jpg","P_M_george_Wbush.jpg","FALSE","pictures/stimuli/E","pictures/stimuli/P","M","M","3","5915e5c6405db80001f30ff1","11/30/2021, 10:02:10",-0.141763931811435,"35","Female","left",0,1,0,0,TRUE,"E_M_anthony_hopkins.jpg P_M_george_Wbush.jpg"
11546,"E_F_keira_knightley.jpg","E_F_sandra_bullock.jpg","TRUE","pictures/stimuli/E","pictures/stimuli/E","F","F","3","5915e5c6405db80001f30ff1","11/30/2021, 10:02:10",-0.141763931811435,"35","Female","left",1,1,0,0,FALSE,"E_F_keira_knightley.jpg E_F_sandra_bullock.jpg"
1111,"E_M_liam_neeson.jpg","P_M_boris_johnson.jpg","FALSE","pictures/stimuli/E","pictures/stimuli/P","M","M","3","5915e5c6405db80001f30ff1","11/30/2021, 10:02:10",-0.141763931811435,"35","Female","left",0,1,0,0,TRUE,"E_M_liam_neeson.jpg P_M_boris_johnson.jpg"
629,"E_F_angelina_jolie.jpg","E_M_Martin_Freeman.jpg","TRUE","pictures/stimuli/E","pictures/stimuli/E","F","M","4","5915e5c6405db80001f30ff1","11/30/2021, 10:02:10",0.761633672869282,"35","Female","left",1,0,0,0,TRUE,"E_F_angelina_jolie.jpg E_M_Martin_Freeman.jpg"
1635,"E_F_Kate_Winslet.jpg","P_F_nicola_sturgeon.jpg","FALSE","pictures/stimuli/E","pictures/stimuli/P","F","F","3","5915e5c6405db80001f30ff1","11/30/2021, 10:02:10",-0.141763931811435,"35","Female","left",1,1,0,0,FALSE,"E_F_Kate_Winslet.jpg P_F_nicola_sturgeon.jpg"
1733,"E_M_liam_neeson.jpg","E_M_tom_hankes.jpg","TRUE","pictures/stimuli/E","pictures/stimuli/E","M","M","4","5915e5c6405db80001f30ff1","11/30/2021, 10:02:10",0.761633672869282,"35","Female","left",0,1,0,0,TRUE,"E_M_liam_neeson.jpg E_M_tom_hankes.jpg"
1564,"E_F_jennifer_aniston.jpg","E_M_nicolas_cage.jpg","TRUE","pictures/stimuli/E","pictures/stimuli/E","F","M","2","5915e5c6405db80001f30ff1","11/30/2021, 10:02:10",-1.04516153649215,"35","Female","left",1,1,0,0,FALSE,"E_F_jennifer_aniston.jpg E_M_nicolas_cage.jpg"
4632,"E_M_Hugh_Grant.jpg","P_M_david_cameron.jpg","FALSE","pictures/stimuli/E","pictures/stimuli/P","M","M","5","5915e5c6405db80001f30ff1","11/30/2021, 10:02:10",1.66503127755,"35","Female","left",1,1,0,0,FALSE,"E_M_Hugh_Grant.jpg P_M_david_cameron.jpg"
2044,"P_F_tehresy_may.jpg","P_M_boris_johnson.jpg","TRUE","pictures/stimuli/P","pictures/stimuli/P","F","M","6","5915e5c6405db80001f30ff1","11/30/2021, 10:02:10",2.56842888223072,"35","Female","left",1,1,0,0,FALSE,"P_F_tehresy_may.jpg P_M_boris_johnson.jpg"
2595,"P_F_hillary_clinton.jpg","P_M_david_cameron.jpg","TRUE","pictures/stimuli/P","pictures/stimuli/P","F","M","3","5915e5c6405db80001f30ff1","11/30/2021, 10:02:10",-0.141763931811435,"35","Female","left",1,1,0,0,FALSE,"P_F_hillary_clinton.jpg P_M_david_cameron.jpg"
3996,"E_F_jennifer_aniston.jpg","P_F_angela_rayner.jpg","FALSE","pictures/stimuli/E","pictures/stimuli/P","F","F","3","5915e5c6405db80001f30ff1","11/30/2021, 10:02:10",-0.141763931811435,"35","Female","left",1,1,0,0,FALSE,"E_F_jennifer_aniston.jpg P_F_angela_rayner.jpg"
2400,"E_F_sandra_bullock.jpg","P_M_boris_johnson.jpg","FALSE","pictures/stimuli/E","pictures/stimuli/P","F","M","4","5915e5c6405db80001f30ff1","11/30/2021, 10:02:10",0.761633672869282,"35","Female","left",1,1,0,0,FALSE,"E_F_sandra_bullock.jpg P_M_boris_johnson.jpg"
1372,"E_M_Hugh_Grant.jpg","E_M_michael_caine.jpg","TRUE","pictures/stimuli/E","pictures/stimuli/E","M","M","2","5915e5c6405db80001f30ff1","11/30/2021, 10:02:10",-1.04516153649215,"35","Female","left",1,1,0,0,FALSE,"E_M_Hugh_Grant.jpg E_M_michael_caine.jpg"
1912,"E_F_Kate_Winslet.jpg","P_F_angela_rayner.jpg","FALSE","pictures/stimuli/E","pictures/stimuli/P","F","F","3","5915e5c6405db80001f30ff1","11/30/2021, 10:02:10",-0.141763931811435,"35","Female","left",1,1,0,0,FALSE,"E_F_Kate_Winslet.jpg P_F_angela_rayner.jpg"
1984,"E_M_Martin_Freeman.jpg","P_F_PRITI_PATEL.jpg","FALSE","pictures/stimuli/E","pictures/stimuli/P","M","F","4","5915e5c6405db80001f30ff1","11/30/2021, 10:02:10",0.761633672869282,"35","Female","left",0,1,0,0,TRUE,"E_M_Martin_Freeman.jpg P_F_PRITI_PATEL.jpg"
4041,"E_M_robert_de_niro.jpg","P_M_Tony_Blair.jpg","FALSE","pictures/stimuli/E","pictures/stimuli/P","M","M","3","5915e5c6405db80001f30ff1","11/30/2021, 10:02:10",-0.141763931811435,"35","Female","left",1,1,0,0,FALSE,"E_M_robert_de_niro.jpg P_M_Tony_Blair.jpg"
2724,"P_M_bill_clinton.jpg","P_M_Tony_Blair.jpg","TRUE","pictures/stimuli/P","pictures/stimuli/P","M","M","4","5915e5c6405db80001f30ff1","11/30/2021, 10:02:10",0.761633672869282,"35","Female","left",1,1,0,0,FALSE,"P_M_bill_clinton.jpg P_M_Tony_Blair.jpg"
1317,"E_M_michael_caine.jpg","P_M_Tony_Blair.jpg","FALSE","pictures/stimuli/E","pictures/stimuli/P","M","M","3","5915e5c6405db80001f30ff1","11/30/2021, 10:02:10",-0.141763931811435,"35","Female","left",1,1,0,0,FALSE,"E_M_michael_caine.jpg P_M_Tony_Blair.jpg"
2921,"E_F_angelina_jolie.jpg","P_F_angela_rayner.jpg","FALSE","pictures/stimuli/E","pictures/stimuli/P","F","F","4","5915e5c6405db80001f30ff1","11/30/2021, 10:02:10",0.761633672869282,"35","Female","left",1,1,0,0,FALSE,"E_F_angelina_jolie.jpg P_F_angela_rayner.jpg"
1798,"E_M_robert_de_niro.jpg","P_M_boris_johnson.jpg","FALSE","pictures/stimuli/E","pictures/stimuli/P","M","M","3","5915e5c6405db80001f30ff1","11/30/2021, 10:02:10",-0.141763931811435,"35","Female","left",1,1,0,0,FALSE,"E_M_robert_de_niro.jpg P_M_boris_johnson.jpg"
971,"E_F_sandra_bullock.jpg","P_F_hillary_clinton.jpg","FALSE","pictures/stimuli/E","pictures/stimuli/P","F","F","2","5915e5c6405db80001f30ff1","11/30/2021, 10:02:10",-1.04516153649215,"35","Female","left",1,1,0,0,FALSE,"E_F_sandra_bullock.jpg P_F_hillary_clinton.jpg"
991,"E_F_keira_knightley.jpg","E_M_liam_neeson.jpg","TRUE","pictures/stimuli/E","pictures/stimuli/E","F","M","3","5915e5c6405db80001f30ff1","11/30/2021, 10:02:10",-0.141763931811435,"35","Female","left",1,0,0,0,TRUE,"E_F_keira_knightley.jpg E_M_liam_neeson.jpg"
963,"E_F_sandra_bullock.jpg","P_M_Tony_Blair.jpg","FALSE","pictures/stimuli/E","pictures/stimuli/P","F","M","3","5915e5c6405db80001f30ff1","11/30/2021, 10:02:10",-0.141763931811435,"35","Female","left",1,1,0,0,FALSE,"E_F_sandra_bullock.jpg P_M_Tony_Blair.jpg"
1338,"E_F_Kate_Winslet.jpg","P_M_bill_clinton.jpg","FALSE","pictures/stimuli/E","pictures/stimuli/P","F","M","2","5915e5c6405db80001f30ff1","11/30/2021, 10:02:10",-1.04516153649215,"35","Female","left",1,1,0,0,FALSE,"E_F_Kate_Winslet.jpg P_M_bill_clinton.jpg"
1624,"E_F_Judi_Dench.jpg","E_M_michael_caine.jpg","TRUE","pictures/stimuli/E","pictures/stimuli/E","F","M","4","5915e5c6405db80001f30ff1","11/30/2021, 10:02:10",0.761633672869282,"35","Female","left",1,1,0,0,FALSE,"E_F_Judi_Dench.jpg E_M_michael_caine.jpg"
1890,"E_F_jennifer_aniston.jpg","P_F_tehresy_may.jpg","FALSE","pictures/stimuli/E","pictures/stimuli/P","F","F","3","5915e5c6405db80001f30ff1","11/30/2021, 10:02:10",-0.141763931811435,"35","Female","left",1,1,0,0,FALSE,"E_F_jennifer_aniston.jpg P_F_tehresy_may.jpg"
3604,"E_F_keira_knightley.jpg","E_M_tom_hankes.jpg","TRUE","pictures/stimuli/E","pictures/stimuli/E","F","M","2","5915e5c6405db80001f30ff1","11/30/2021, 10:02:10",-1.04516153649215,"35","Female","left",1,1,0,0,FALSE,"E_F_keira_knightley.jpg E_M_tom_hankes.jpg"
876,"E_F_Kate_Winslet.jpg","E_M_Hugh_Grant.jpg","TRUE","pictures/stimuli/E","pictures/stimuli/E","F","M","3","5915e5c6405db80001f30ff1","11/30/2021, 10:02:10",-0.141763931811435,"35","Female","left",1,1,0,0,FALSE,"E_F_Kate_Winslet.jpg E_M_Hugh_Grant.jpg"
1089,"E_M_nicolas_cage.jpg","P_F_PRITI_PATEL.jpg","FALSE","pictures/stimuli/E","pictures/stimuli/P","M","F","2","5915e5c6405db80001f30ff1","11/30/2021, 10:02:10",-1.04516153649215,"35","Female","left",1,1,0,0,FALSE,"E_M_nicolas_cage.jpg P_F_PRITI_PATEL.jpg"
1448,"E_F_jennifer_aniston.jpg","P_M_Tony_Blair.jpg","FALSE","pictures/stimuli/E","pictures/stimuli/P","F","M","3","5915e5c6405db80001f30ff1","11/30/2021, 10:02:10",-0.141763931811435,"35","Female","left",1,1,0,0,FALSE,"E_F_jennifer_aniston.jpg P_M_Tony_Blair.jpg"
2081,"E_F_jennifer_aniston.jpg","P_M_george_Wbush.jpg","FALSE","pictures/stimuli/E","pictures/stimuli/P","F","M","4","5915e5c6405db80001f30ff1","11/30/2021, 10:02:10",0.761633672869282,"35","Female","left",1,1,0,0,FALSE,"E_F_jennifer_aniston.jpg P_M_george_Wbush.jpg"
3311,"E_M_Martin_Freeman.jpg","P_M_david_cameron.jpg","FALSE","pictures/stimuli/E","pictures/stimuli/P","M","M","3","5915e5c6405db80001f30ff1","11/30/2021, 10:02:10",-0.141763931811435,"35","Female","left",0,1,0,0,TRUE,"E_M_Martin_Freeman.jpg P_M_david_cameron.jpg"
3114,"E_F_Judi_Dench.jpg","P_F_angela_rayner.jpg","FALSE","pictures/stimuli/E","pictures/stimuli/P","F","F","4","5915e5c6405db80001f30ff1","11/30/2021, 10:02:10",0.761633672869282,"35","Female","left",1,1,0,0,FALSE,"E_F_Judi_Dench.jpg P_F_angela_rayner.jpg"
1345,"P_M_bill_clinton.jpg","P_M_george_Wbush.jpg","TRUE","pictures/stimuli/P","pictures/stimuli/P","M","M","3","5915e5c6405db80001f30ff1","11/30/2021, 10:02:10",-0.141763931811435,"35","Female","left",1,1,0,0,FALSE,"P_M_bill_clinton.jpg P_M_george_Wbush.jpg"
1649,"E_F_sandra_bullock.jpg","E_M_tom_hankes.jpg","TRUE","pictures/stimuli/E","pictures/stimuli/E","F","M","3","5915e5c6405db80001f30ff1","11/30/2021, 10:02:10",-0.141763931811435,"35","Female","left",1,1,0,0,FALSE,"E_F_sandra_bullock.jpg E_M_tom_hankes.jpg"
2015,"E_M_anthony_hopkins.jpg","P_F_PRITI_PATEL.jpg","FALSE","pictures/stimuli/E","pictures/stimuli/P","M","F","5","5915e5c6405db80001f30ff1","11/30/2021, 10:02:10",1.66503127755,"35","Female","left",0,1,0,0,TRUE,"E_M_anthony_hopkins.jpg P_F_PRITI_PATEL.jpg"
5343,"E_F_Judi_Dench.jpg","E_M_nicolas_cage.jpg","TRUE","pictures/stimuli/E","pictures/stimuli/E","F","M","3","5915e5c6405db80001f30ff1","11/30/2021, 10:02:10",-0.141763931811435,"35","Female","left",1,1,0,0,FALSE,"E_F_Judi_Dench.jpg E_M_nicolas_cage.jpg"
1847,"E_M_Hugh_Grant.jpg","E_M_Martin_Freeman.jpg","TRUE","pictures/stimuli/E","pictures/stimuli/E","M","M","3","5915e5c6405db80001f30ff1","11/30/2021, 10:02:10",-0.141763931811435,"35","Female","left",1,0,0,0,TRUE,"E_M_Hugh_Grant.jpg E_M_Martin_Freeman.jpg"
10640,"E_F_keira_knightley.jpg","P_F_esther_mcvey.jpg","FALSE","pictures/stimuli/E","pictures/stimuli/P","F","F","2","5915e5c6405db80001f30ff1","11/30/2021, 10:02:10",-1.04516153649215,"35","Female","left",1,0,0,0,TRUE,"E_F_keira_knightley.jpg P_F_esther_mcvey.jpg"
7179,"E_M_Martin_Freeman.jpg","P_F_angela_rayner.jpg","FALSE","pictures/stimuli/E","pictures/stimuli/P","M","F","3","5915e5c6405db80001f30ff1","11/30/2021, 10:02:10",-0.141763931811435,"35","Female","left",0,1,0,0,TRUE,"E_M_Martin_Freeman.jpg P_F_angela_rayner.jpg"
5620,"E_M_nicolas_cage.jpg","P_F_esther_mcvey.jpg","FALSE","pictures/stimuli/E","pictures/stimuli/P","M","F","4","5915e5c6405db80001f30ff1","11/30/2021, 10:02:10",0.761633672869282,"35","Female","left",1,0,0,0,TRUE,"E_M_nicolas_cage.jpg P_F_esther_mcvey.jpg"
3040,"E_M_michael_caine.jpg","P_F_angela_rayner.jpg","FALSE","pictures/stimuli/E","pictures/stimuli/P","M","F","4","5915e5c6405db80001f30ff1","11/30/2021, 10:02:10",0.761633672869282,"35","Female","left",1,1,0,0,FALSE,"E_M_michael_caine.jpg P_F_angela_rayner.jpg"
13814,"E_F_angelina_jolie.jpg","P_M_donald_trump.jpg","FALSE","pictures/stimuli/E","pictures/stimuli/P","F","M","3","5915e5c6405db80001f30ff1","11/30/2021, 10:02:10",-0.141763931811435,"35","Female","left",1,1,0,0,FALSE,"E_F_angelina_jolie.jpg P_M_donald_trump.jpg"
2273,"E_F_Judi_Dench.jpg","E_F_Kate_Winslet.jpg","TRUE","pictures/stimuli/E","pictures/stimuli/E","F","F","4","5915e5c6405db80001f30ff1","11/30/2021, 10:02:10",0.761633672869282,"35","Female","left",1,1,0,0,FALSE,"E_F_Judi_Dench.jpg E_F_Kate_Winslet.jpg"
52121,"P_F_esther_mcvey.jpg","P_F_hillary_clinton.jpg","TRUE","pictures/stimuli/P","pictures/stimuli/P","F","F","4","5915e5c6405db80001f30ff1","11/30/2021, 10:02:10",0.761633672869282,"35","Female","left",0,1,0,0,TRUE,"P_F_esther_mcvey.jpg P_F_hillary_clinton.jpg"
30916,"E_F_Kate_Winslet.jpg","P_M_boris_johnson.jpg","FALSE","pictures/stimuli/E","pictures/stimuli/P","F","M","4","5915e5c6405db80001f30ff1","11/30/2021, 10:02:10",0.761633672869282,"35","Female","left",1,1,0,0,TRUE,"E_F_Kate_Winslet.jpg P_M_boris_johnson.jpg"
2155,"E_F_angelina_jolie.jpg","P_M_george_Wbush.jpg","FALSE","pictures/stimuli/E","pictures/stimuli/P","F","M","3","5915e5c6405db80001f30ff1","11/30/2021, 10:02:10",-0.141763931811435,"35","Female","left",1,1,0,0,FALSE,"E_F_angelina_jolie.jpg P_M_george_Wbush.jpg"
3036,"P_F_tehresy_may.jpg","P_M_george_Wbush.jpg","TRUE","pictures/stimuli/P","pictures/stimuli/P","F","M","5","5915e5c6405db80001f30ff1","11/30/2021, 10:02:10",1.66503127755,"35","Female","left",1,1,0,0,FALSE,"P_F_tehresy_may.jpg P_M_george_Wbush.jpg"
1754,"E_F_keira_knightley.jpg","E_M_robert_de_niro.jpg","TRUE","pictures/stimuli/E","pictures/stimuli/E","F","M","2","5915e5c6405db80001f30ff1","11/30/2021, 10:02:10",-1.04516153649215,"35","Female","left",1,1,0,0,FALSE,"E_F_keira_knightley.jpg E_M_robert_de_niro.jpg"
1896,"E_F_keira_knightley.jpg","P_M_Tony_Blair.jpg","FALSE","pictures/stimuli/E","pictures/stimuli/P","F","M","5","5915e5c6405db80001f30ff1","11/30/2021, 10:02:10",1.66503127755,"35","Female","left",1,1,0,0,FALSE,"E_F_keira_knightley.jpg P_M_Tony_Blair.jpg"
1819,"E_M_liam_neeson.jpg","P_M_donald_trump.jpg","FALSE","pictures/stimuli/E","pictures/stimuli/P","M","M","4","5915e5c6405db80001f30ff1","11/30/2021, 10:02:10",0.761633672869282,"35","Female","left",0,1,0,0,TRUE,"E_M_liam_neeson.jpg P_M_donald_trump.jpg"
5627,"E_M_anthony_hopkins.jpg","E_M_michael_caine.jpg","TRUE","pictures/stimuli/E","pictures/stimuli/E","M","M","4","5915e5c6405db80001f30ff1","11/30/2021, 10:02:10",0.761633672869282,"35","Female","left",0,1,0,0,TRUE,"E_M_anthony_hopkins.jpg E_M_michael_caine.jpg"
1236,"E_F_Kate_Winslet.jpg","P_M_david_cameron.jpg","FALSE","pictures/stimuli/E","pictures/stimuli/P","F","M","2","5915e5c6405db80001f30ff1","11/30/2021, 10:02:10",-1.04516153649215,"35","Female","left",1,1,0,0,FALSE,"E_F_Kate_Winslet.jpg P_M_david_cameron.jpg"
3111,"E_F_Kate_Winslet.jpg","P_F_hillary_clinton.jpg","FALSE","pictures/stimuli/E","pictures/stimuli/P","F","F","3","5915e5c6405db80001f30ff1","11/30/2021, 10:02:10",-0.141763931811435,"35","Female","left",1,1,0,0,FALSE,"E_F_Kate_Winslet.jpg P_F_hillary_clinton.jpg"
1541,"P_F_angela_rayner.jpg","P_M_george_Wbush.jpg","TRUE","pictures/stimuli/P","pictures/stimuli/P","F","M","3","5915e5c6405db80001f30ff1","11/30/2021, 10:02:10",-0.141763931811435,"35","Female","left",1,1,0,0,FALSE,"P_F_angela_rayner.jpg P_M_george_Wbush.jpg"
2201,"E_F_Judi_Dench.jpg","P_M_bill_clinton.jpg","FALSE","pictures/stimuli/E","pictures/stimuli/P","F","M","2","5915e5c6405db80001f30ff1","11/30/2021, 10:02:10",-1.04516153649215,"35","Female","left",1,1,0,0,FALSE,"E_F_Judi_Dench.jpg P_M_bill_clinton.jpg"
1652,"E_F_jennifer_aniston.jpg","E_M_Hugh_Grant.jpg","TRUE","pictures/stimuli/E","pictures/stimuli/E","F","M","5","5915e5c6405db80001f30ff1","11/30/2021, 10:02:10",1.66503127755,"35","Female","left",1,1,0,0,FALSE,"E_F_jennifer_aniston.jpg E_M_Hugh_Grant.jpg"
1705,"E_M_michael_caine.jpg","E_M_tom_hankes.jpg","TRUE","pictures/stimuli/E","pictures/stimuli/E","M","M","2","5915e5c6405db80001f30ff1","11/30/2021, 10:02:10",-1.04516153649215,"35","Female","left",1,1,0,0,FALSE,"E_M_michael_caine.jpg E_M_tom_hankes.jpg"
1639,"E_F_angelina_jolie.jpg","E_M_liam_neeson.jpg","TRUE","pictures/stimuli/E","pictures/stimuli/E","F","M","3","5915e5c6405db80001f30ff1","11/30/2021, 10:02:10",-0.141763931811435,"35","Female","left",1,0,0,0,TRUE,"E_F_angelina_jolie.jpg E_M_liam_neeson.jpg"
1977,"E_F_keira_knightley.jpg","P_M_david_cameron.jpg","FALSE","pictures/stimuli/E","pictures/stimuli/P","F","M","5","5915e5c6405db80001f30ff1","11/30/2021, 10:02:10",1.66503127755,"35","Female","left",1,1,0,0,FALSE,"E_F_keira_knightley.jpg P_M_david_cameron.jpg"
1960,"E_M_nicolas_cage.jpg","P_M_Tony_Blair.jpg","FALSE","pictures/stimuli/E","pictures/stimuli/P","M","M","5","5915e5c6405db80001f30ff1","11/30/2021, 10:02:10",1.66503127755,"35","Female","left",1,1,0,0,FALSE,"E_M_nicolas_cage.jpg P_M_Tony_Blair.jpg"
4950,"E_M_Hugh_Grant.jpg","E_M_robert_de_niro.jpg","TRUE","pictures/stimuli/E","pictures/stimuli/E","M","M","2","5915e5c6405db80001f30ff1","11/30/2021, 10:02:10",-1.04516153649215,"35","Female","left",1,1,0,0,FALSE,"E_M_Hugh_Grant.jpg E_M_robert_de_niro.jpg"
867,"E_M_nicolas_cage.jpg","P_M_david_cameron.jpg","FALSE","pictures/stimuli/E","pictures/stimuli/P","M","M","3","5915e5c6405db80001f30ff1","11/30/2021, 10:02:10",-0.141763931811435,"35","Female","left",1,1,0,0,FALSE,"E_M_nicolas_cage.jpg P_M_david_cameron.jpg"
820,"E_M_nicolas_cage.jpg","P_F_hillary_clinton.jpg","FALSE","pictures/stimuli/E","pictures/stimuli/P","M","F","2","5915e5c6405db80001f30ff1","11/30/2021, 10:02:10",-1.04516153649215,"35","Female","left",1,1,0,0,FALSE,"E_M_nicolas_cage.jpg P_F_hillary_clinton.jpg"
1189,"E_F_Judi_Dench.jpg","E_M_robert_de_niro.jpg","TRUE","pictures/stimuli/E","pictures/stimuli/E","F","M","3","5915e5c6405db80001f30ff1","11/30/2021, 10:02:10",-0.141763931811435,"35","Female","left",1,1,0,0,FALSE,"E_F_Judi_Dench.jpg E_M_robert_de_niro.jpg"
1052,"E_F_sandra_bullock.jpg","P_F_tehresy_may.jpg","FALSE","pictures/stimuli/E","pictures/stimuli/P","F","F","2","5915e5c6405db80001f30ff1","11/30/2021, 10:02:10",-1.04516153649215,"35","Female","left",1,1,0,0,FALSE,"E_F_sandra_bullock.jpg P_F_tehresy_may.jpg"
1427,"E_F_Kate_Winslet.jpg","E_M_Martin_Freeman.jpg","TRUE","pictures/stimuli/E","pictures/stimuli/E","F","M","3","5915e5c6405db80001f30ff1","11/30/2021, 10:02:10",-0.141763931811435,"35","Female","left",1,0,0,0,TRUE,"E_F_Kate_Winslet.jpg E_M_Martin_Freeman.jpg"
1145,"E_M_tom_hankes.jpg","P_M_george_Wbush.jpg","FALSE","pictures/stimuli/E","pictures/stimuli/P","M","M","3","5915e5c6405db80001f30ff1","11/30/2021, 10:02:10",-0.141763931811435,"35","Female","left",1,1,0,0,FALSE,"E_M_tom_hankes.jpg P_M_george_Wbush.jpg"
1093,"P_F_hillary_clinton.jpg","P_M_boris_johnson.jpg","TRUE","pictures/stimuli/P","pictures/stimuli/P","F","M","3","5915e5c6405db80001f30ff1","11/30/2021, 10:02:10",-0.141763931811435,"35","Female","left",1,1,0,0,FALSE,"P_F_hillary_clinton.jpg P_M_boris_johnson.jpg"
1073,"E_F_sandra_bullock.jpg","P_F_angela_rayner.jpg","FALSE","pictures/stimuli/E","pictures/stimuli/P","F","F","2","5915e5c6405db80001f30ff1","11/30/2021, 10:02:10",-1.04516153649215,"35","Female","left",1,1,0,0,FALSE,"E_F_sandra_bullock.jpg P_F_angela_rayner.jpg"
771,"P_M_bill_clinton.jpg","P_M_david_cameron.jpg","TRUE","pictures/stimuli/P","pictures/stimuli/P","M","M","3","5915e5c6405db80001f30ff1","11/30/2021, 10:02:10",-0.141763931811435,"35","Female","left",1,1,0,0,FALSE,"P_M_bill_clinton.jpg P_M_david_cameron.jpg"
723,"E_F_jennifer_aniston.jpg","E_F_Kate_Winslet.jpg","TRUE","pictures/stimuli/E","pictures/stimuli/E","F","F","4","5915e5c6405db80001f30ff1","11/30/2021, 10:02:10",0.761633672869282,"35","Female","left",1,1,0,0,FALSE,"E_F_jennifer_aniston.jpg E_F_Kate_Winslet.jpg"
1129,"E_M_Martin_Freeman.jpg","E_M_michael_caine.jpg","TRUE","pictures/stimuli/E","pictures/stimuli/E","M","M","3","5915e5c6405db80001f30ff1","11/30/2021, 10:02:10",-0.141763931811435,"35","Female","left",0,1,0,0,TRUE,"E_M_Martin_Freeman.jpg E_M_michael_caine.jpg"
615,"E_F_jennifer_aniston.jpg","P_F_esther_mcvey.jpg","FALSE","pictures/stimuli/E","pictures/stimuli/P","F","F","2","5915e5c6405db80001f30ff1","11/30/2021, 10:02:10",-1.04516153649215,"35","Female","left",1,0,0,0,TRUE,"E_F_jennifer_aniston.jpg P_F_esther_mcvey.jpg"
1681,"E_M_liam_neeson.jpg","P_M_george_Wbush.jpg","FALSE","pictures/stimuli/E","pictures/stimuli/P","M","M","3","5915e5c6405db80001f30ff1","11/30/2021, 10:02:10",-0.141763931811435,"35","Female","left",0,1,0,0,TRUE,"E_M_liam_neeson.jpg P_M_george_Wbush.jpg"
17875,"E_M_michael_caine.jpg","P_F_PRITI_PATEL.jpg","FALSE","pictures/stimuli/E","pictures/stimuli/P","M","F","5","5915e5c6405db80001f30ff1","11/30/2021, 10:02:10",1.66503127755,"35","Female","left",1,1,0,0,FALSE,"E_M_michael_caine.jpg P_F_PRITI_PATEL.jpg"
2186,"E_M_Martin_Freeman.jpg","P_M_bill_clinton.jpg","FALSE","pictures/stimuli/E","pictures/stimuli/P","M","M","3","5915e5c6405db80001f30ff1","11/30/2021, 10:02:10",-0.141763931811435,"35","Female","left",0,1,0,0,TRUE,"E_M_Martin_Freeman.jpg P_M_bill_clinton.jpg"
1266,"P_F_angela_rayner.jpg","P_F_esther_mcvey.jpg","TRUE","pictures/stimuli/P","pictures/stimuli/P","F","F","4","5915e5c6405db80001f30ff1","11/30/2021, 10:02:10",0.761633672869282,"35","Female","left",1,0,0,0,TRUE,"P_F_angela_rayner.jpg P_F_esther_mcvey.jpg"
848,"P_F_esther_mcvey.jpg","P_F_tehresy_may.jpg","TRUE","pictures/stimuli/P","pictures/stimuli/P","F","F","5","5915e5c6405db80001f30ff1","11/30/2021, 10:02:10",1.66503127755,"35","Female","left",0,1,0,0,TRUE,"P_F_esther_mcvey.jpg P_F_tehresy_may.jpg"
702,"P_F_PRITI_PATEL.jpg","P_M_donald_trump.jpg","TRUE","pictures/stimuli/P","pictures/stimuli/P","F","M","5","5915e5c6405db80001f30ff1","11/30/2021, 10:02:10",1.66503127755,"35","Female","left",1,1,0,0,FALSE,"P_F_PRITI_PATEL.jpg P_M_donald_trump.jpg"
1040,"E_M_Martin_Freeman.jpg","P_M_Tony_Blair.jpg","FALSE","pictures/stimuli/E","pictures/stimuli/P","M","M","4","5915e5c6405db80001f30ff1","11/30/2021, 10:02:10",0.761633672869282,"35","Female","left",0,1,0,0,TRUE,"E_M_Martin_Freeman.jpg P_M_Tony_Blair.jpg"
1633,"E_F_Judi_Dench.jpg","P_F_esther_mcvey.jpg","FALSE","pictures/stimuli/E","pictures/stimuli/P","F","F","5","5915e5c6405db80001f30ff1","11/30/2021, 10:02:10",1.66503127755,"35","Female","left",1,0,0,0,TRUE,"E_F_Judi_Dench.jpg P_F_esther_mcvey.jpg"
940,"E_F_keira_knightley.jpg","P_M_bill_clinton.jpg","FALSE","pictures/stimuli/E","pictures/stimuli/P","F","M","4","5915e5c6405db80001f30ff1","11/30/2021, 10:02:10",0.761633672869282,"35","Female","left",1,1,0,0,FALSE,"E_F_keira_knightley.jpg P_M_bill_clinton.jpg"
1180,"E_F_Kate_Winslet.jpg","E_F_sandra_bullock.jpg","TRUE","pictures/stimuli/E","pictures/stimuli/E","F","F","5","5915e5c6405db80001f30ff1","11/30/2021, 10:02:10",1.66503127755,"35","Female","left",1,1,0,0,FALSE,"E_F_Kate_Winslet.jpg E_F_sandra_bullock.jpg"
1155,"E_F_angelina_jolie.jpg","P_F_tehresy_may.jpg","FALSE","pictures/stimuli/E","pictures/stimuli/P","F","F","3","5915e5c6405db80001f30ff1","11/30/2021, 10:02:10",-0.141763931811435,"35","Female","left",1,1,0,0,FALSE,"E_F_angelina_jolie.jpg P_F_tehresy_may.jpg"
1759,"E_F_Kate_Winslet.jpg","E_M_robert_de_niro.jpg","TRUE","pictures/stimuli/E","pictures/stimuli/E","F","M","3","5915e5c6405db80001f30ff1","11/30/2021, 10:02:10",-0.141763931811435,"35","Female","left",1,1,0,0,FALSE,"E_F_Kate_Winslet.jpg E_M_robert_de_niro.jpg"
2932,"P_F_nicola_sturgeon.jpg","P_M_david_cameron.jpg","TRUE","pictures/stimuli/P","pictures/stimuli/P","F","M","2","5915e5c6405db80001f30ff1","11/30/2021, 10:02:10",-1.04516153649215,"35","Female","left",1,1,0,0,FALSE,"P_F_nicola_sturgeon.jpg P_M_david_cameron.jpg"
12989,"E_M_tom_hankes.jpg","P_F_hillary_clinton.jpg","FALSE","pictures/stimuli/E","pictures/stimuli/P","M","F","4","5915e5c6405db80001f30ff1","11/30/2021, 10:02:10",0.761633672869282,"35","Female","left",1,1,0,0,FALSE,"E_M_tom_hankes.jpg P_F_hillary_clinton.jpg"
3324,"E_F_jennifer_aniston.jpg","E_F_Judi_Dench.jpg","TRUE","pictures/stimuli/E","pictures/stimuli/E","F","F","4","5915e5c6405db80001f30ff1","11/30/2021, 10:02:10",0.761633672869282,"35","Female","left",1,1,0,0,FALSE,"E_F_jennifer_aniston.jpg E_F_Judi_Dench.jpg"
1389,"E_M_anthony_hopkins.jpg","P_F_esther_mcvey.jpg","FALSE","pictures/stimuli/E","pictures/stimuli/P","M","F","2","5915e5c6405db80001f30ff1","11/30/2021, 10:02:10",-1.04516153649215,"35","Female","left",0,0,0,0,TRUE,"E_M_anthony_hopkins.jpg P_F_esther_mcvey.jpg"
4663,"E_F_sandra_bullock.jpg","P_F_nicola_sturgeon.jpg","FALSE","pictures/stimuli/E","pictures/stimuli/P","F","F","2","5915e5c6405db80001f30ff1","11/30/2021, 10:02:10",-1.04516153649215,"35","Female","left",1,1,0,0,FALSE,"E_F_sandra_bullock.jpg P_F_nicola_sturgeon.jpg"
3785,"P_F_tehresy_may.jpg","P_M_bill_clinton.jpg","TRUE","pictures/stimuli/P","pictures/stimuli/P","F","M","3","5915e5c6405db80001f30ff1","11/30/2021, 10:02:10",-0.141763931811435,"35","Female","left",1,1,0,0,FALSE,"P_F_tehresy_may.jpg P_M_bill_clinton.jpg"
1436,"E_M_anthony_hopkins.jpg","P_F_tehresy_may.jpg","FALSE","pictures/stimuli/E","pictures/stimuli/P","M","F","2","5915e5c6405db80001f30ff1","11/30/2021, 10:02:10",-1.04516153649215,"35","Female","left",0,1,0,0,TRUE,"E_M_anthony_hopkins.jpg P_F_tehresy_may.jpg"
1803,"E_F_keira_knightley.jpg","P_F_hillary_clinton.jpg","FALSE","pictures/stimuli/E","pictures/stimuli/P","F","F","4","5915e5c6405db80001f30ff1","11/30/2021, 10:02:10",0.761633672869282,"35","Female","left",1,1,0,0,FALSE,"E_F_keira_knightley.jpg P_F_hillary_clinton.jpg"
1234,"E_F_jennifer_aniston.jpg","E_M_liam_neeson.jpg","TRUE","pictures/stimuli/E","pictures/stimuli/E","F","M","3","5915e5c6405db80001f30ff1","11/30/2021, 10:02:10",-0.141763931811435,"35","Female","left",1,0,0,0,TRUE,"E_F_jennifer_aniston.jpg E_M_liam_neeson.jpg"
628,"E_F_Judi_Dench.jpg","E_M_liam_neeson.jpg","TRUE","pictures/stimuli/E","pictures/stimuli/E","F","M","3","5915e5c6405db80001f30ff1","11/30/2021, 10:02:10",-0.141763931811435,"35","Female","left",1,0,0,0,TRUE,"E_F_Judi_Dench.jpg E_M_liam_neeson.jpg"
1001,"P_F_angela_rayner.jpg","P_F_PRITI_PATEL.jpg","TRUE","pictures/stimuli/P","pictures/stimuli/P","F","F","2","5915e5c6405db80001f30ff1","11/30/2021, 10:02:10",-1.04516153649215,"35","Female","left",1,1,0,0,FALSE,"P_F_angela_rayner.jpg P_F_PRITI_PATEL.jpg"
435,"E_F_angelina_jolie.jpg","P_F_hillary_clinton.jpg","FALSE","pictures/stimuli/E","pictures/stimuli/P","F","F","3","5915e5c6405db80001f30ff1","11/30/2021, 10:02:10",-0.141763931811435,"35","Female","left",1,1,0,0,FALSE,"E_F_angelina_jolie.jpg P_F_hillary_clinton.jpg"
3213,"P_F_tehresy_may.jpg","P_M_Tony_Blair.jpg","TRUE","pictures/stimuli/P","pictures/stimuli/P","F","M","2","5915e5c6405db80001f30ff1","11/30/2021, 10:02:10",-1.04516153649215,"35","Female","left",1,1,0,0,FALSE,"P_F_tehresy_may.jpg P_M_Tony_Blair.jpg"
4720,"E_F_jennifer_aniston.jpg","P_F_hillary_clinton.jpg","FALSE","pictures/stimuli/E","pictures/stimuli/P","F","F","2","5915e5c6405db80001f30ff1","11/30/2021, 10:02:10",-1.04516153649215,"35","Female","left",1,1,0,0,FALSE,"E_F_jennifer_aniston.jpg P_F_hillary_clinton.jpg"
1595,"E_M_robert_de_niro.jpg","P_M_david_cameron.jpg","FALSE","pictures/stimuli/E","pictures/stimuli/P","M","M","2","5915e5c6405db80001f30ff1","11/30/2021, 10:02:10",-1.04516153649215,"35","Female","left",1,1,0,0,FALSE,"E_M_robert_de_niro.jpg P_M_david_cameron.jpg"
5174,"E_F_jennifer_aniston.jpg","E_M_michael_caine.jpg","TRUE","pictures/stimuli/E","pictures/stimuli/E","F","M","2","5915e5c6405db80001f30ff1","11/30/2021, 10:02:10",-1.04516153649215,"35","Female","left",1,1,0,0,FALSE,"E_F_jennifer_aniston.jpg E_M_michael_caine.jpg"
2173,"E_M_anthony_hopkins.jpg","P_M_bill_clinton.jpg","FALSE","pictures/stimuli/E","pictures/stimuli/P","M","M","3","5915e5c6405db80001f30ff1","11/30/2021, 10:02:10",-0.141763931811435,"35","Female","left",0,1,0,0,TRUE,"E_M_anthony_hopkins.jpg P_M_bill_clinton.jpg"
1249,"E_F_Kate_Winslet.jpg","E_M_anthony_hopkins.jpg","TRUE","pictures/stimuli/E","pictures/stimuli/E","F","M","2","5915e5c6405db80001f30ff1","11/30/2021, 10:02:10",-1.04516153649215,"35","Female","left",1,0,0,0,TRUE,"E_F_Kate_Winslet.jpg E_M_anthony_hopkins.jpg"
7782,"P_F_angela_rayner.jpg","P_M_donald_trump.jpg","TRUE","pictures/stimuli/P","pictures/stimuli/P","F","M","2","5915e5c6405db80001f30ff1","11/30/2021, 10:02:10",-1.04516153649215,"35","Female","left",1,1,0,0,FALSE,"P_F_angela_rayner.jpg P_M_donald_trump.jpg"
1844,"E_M_tom_hankes.jpg","P_M_david_cameron.jpg","FALSE","pictures/stimuli/E","pictures/stimuli/P","M","M","3","5915e5c6405db80001f30ff1","11/30/2021, 10:02:10",-0.141763931811435,"35","Female","left",1,1,0,0,FALSE,"E_M_tom_hankes.jpg P_M_david_cameron.jpg"
692,"E_M_tom_hankes.jpg","P_M_Tony_Blair.jpg","FALSE","pictures/stimuli/E","pictures/stimuli/P","M","M","2","5915e5c6405db80001f30ff1","11/30/2021, 10:02:10",-1.04516153649215,"35","Female","left",1,1,0,0,FALSE,"E_M_tom_hankes.jpg P_M_Tony_Blair.jpg"
975,"E_M_anthony_hopkins.jpg","E_M_robert_de_niro.jpg","TRUE","pictures/stimuli/E","pictures/stimuli/E","M","M","2","5915e5c6405db80001f30ff1","11/30/2021, 10:02:10",-1.04516153649215,"35","Female","left",0,1,0,0,TRUE,"E_M_anthony_hopkins.jpg E_M_robert_de_niro.jpg"
766,"E_F_sandra_bullock.jpg","P_M_david_cameron.jpg","FALSE","pictures/stimuli/E","pictures/stimuli/P","F","M","2","5915e5c6405db80001f30ff1","11/30/2021, 10:02:10",-1.04516153649215,"35","Female","left",1,1,0,0,FALSE,"E_F_sandra_bullock.jpg P_M_david_cameron.jpg"
773,"E_M_nicolas_cage.jpg","P_M_donald_trump.jpg","FALSE","pictures/stimuli/E","pictures/stimuli/P","M","M","3","5915e5c6405db80001f30ff1","11/30/2021, 10:02:10",-0.141763931811435,"35","Female","left",1,1,0,0,FALSE,"E_M_nicolas_cage.jpg P_M_donald_trump.jpg"
730,"E_F_angelina_jolie.jpg","E_M_tom_hankes.jpg","TRUE","pictures/stimuli/E","pictures/stimuli/E","F","M","2","5915e5c6405db80001f30ff1","11/30/2021, 10:02:10",-1.04516153649215,"35","Female","left",1,1,0,0,FALSE,"E_F_angelina_jolie.jpg E_M_tom_hankes.jpg"
2456,"P_F_nicola_sturgeon.jpg","P_M_bill_clinton.jpg","TRUE","pictures/stimuli/P","pictures/stimuli/P","F","M","3","5915e5c6405db80001f30ff1","11/30/2021, 10:02:10",-0.141763931811435,"35","Female","left",1,1,0,0,FALSE,"P_F_nicola_sturgeon.jpg P_M_bill_clinton.jpg"
2137,"E_F_jennifer_aniston.jpg","P_F_nicola_sturgeon.jpg","FALSE","pictures/stimuli/E","pictures/stimuli/P","F","F","4","5915e5c6405db80001f30ff1","11/30/2021, 10:02:10",0.761633672869282,"35","Female","left",1,1,0,0,FALSE,"E_F_jennifer_aniston.jpg P_F_nicola_sturgeon.jpg"
1115,"P_F_hillary_clinton.jpg","P_F_nicola_sturgeon.jpg","TRUE","pictures/stimuli/P","pictures/stimuli/P","F","F","3","5915e5c6405db80001f30ff1","11/30/2021, 10:02:10",-0.141763931811435,"35","Female","left",1,1,0,0,FALSE,"P_F_hillary_clinton.jpg P_F_nicola_sturgeon.jpg"
1705,"E_M_Hugh_Grant.jpg","P_M_bill_clinton.jpg","FALSE","pictures/stimuli/E","pictures/stimuli/P","M","M","2","5915e5c6405db80001f30ff1","11/30/2021, 10:02:10",-1.04516153649215,"35","Female","left",1,1,0,0,FALSE,"E_M_Hugh_Grant.jpg P_M_bill_clinton.jpg"
2975,"P_F_nicola_sturgeon.jpg","P_F_tehresy_may.jpg","TRUE","pictures/stimuli/P","pictures/stimuli/P","F","F","1","5915e5c6405db80001f30ff1","11/30/2021, 10:02:10",-1.94855914117287,"35","Female","left",1,1,0,0,FALSE,"P_F_nicola_sturgeon.jpg P_F_tehresy_may.jpg"
2158,"E_F_Judi_Dench.jpg","E_M_Hugh_Grant.jpg","TRUE","pictures/stimuli/E","pictures/stimuli/E","F","M","2","5915e5c6405db80001f30ff1","11/30/2021, 10:02:10",-1.04516153649215,"35","Female","left",1,1,0,0,FALSE,"E_F_Judi_Dench.jpg E_M_Hugh_Grant.jpg"
1778,"E_M_anthony_hopkins.jpg","P_F_hillary_clinton.jpg","FALSE","pictures/stimuli/E","pictures/stimuli/P","M","F","3","5915e5c6405db80001f30ff1","11/30/2021, 10:02:10",-0.141763931811435,"35","Female","left",0,1,0,0,TRUE,"E_M_anthony_hopkins.jpg P_F_hillary_clinton.jpg"
3609,"E_M_michael_caine.jpg","P_F_esther_mcvey.jpg","FALSE","pictures/stimuli/E","pictures/stimuli/P","M","F","3","5915e5c6405db80001f30ff1","11/30/2021, 10:02:10",-0.141763931811435,"35","Female","left",1,0,0,0,TRUE,"E_M_michael_caine.jpg P_F_esther_mcvey.jpg"
617,"E_F_angelina_jolie.jpg","P_F_nicola_sturgeon.jpg","FALSE","pictures/stimuli/E","pictures/stimuli/P","F","F","3","5915e5c6405db80001f30ff1","11/30/2021, 10:02:10",-0.141763931811435,"35","Female","left",1,1,0,0,FALSE,"E_F_angelina_jolie.jpg P_F_nicola_sturgeon.jpg"
696,"E_M_liam_neeson.jpg","P_F_hillary_clinton.jpg","FALSE","pictures/stimuli/E","pictures/stimuli/P","M","F","4","5915e5c6405db80001f30ff1","11/30/2021, 10:02:10",0.761633672869282,"35","Female","left",0,1,0,0,TRUE,"E_M_liam_neeson.jpg P_F_hillary_clinton.jpg"
768,"E_M_anthony_hopkins.jpg","P_F_nicola_sturgeon.jpg","FALSE","pictures/stimuli/E","pictures/stimuli/P","M","F","3","5915e5c6405db80001f30ff1","11/30/2021, 10:02:10",-0.141763931811435,"35","Female","left",0,1,0,0,TRUE,"E_M_anthony_hopkins.jpg P_F_nicola_sturgeon.jpg"
1617,"E_F_keira_knightley.jpg","P_F_tehresy_may.jpg","FALSE","pictures/stimuli/E","pictures/stimuli/P","F","F","5","5915e5c6405db80001f30ff1","11/30/2021, 10:02:10",1.66503127755,"35","Female","left",1,1,0,0,FALSE,"E_F_keira_knightley.jpg P_F_tehresy_may.jpg"
1863,"E_M_Hugh_Grant.jpg","P_F_hillary_clinton.jpg","FALSE","pictures/stimuli/E","pictures/stimuli/P","M","F","4","5915e5c6405db80001f30ff1","11/30/2021, 10:02:10",0.761633672869282,"35","Female","left",1,1,0,0,FALSE,"E_M_Hugh_Grant.jpg P_F_hillary_clinton.jpg"
735,"E_M_anthony_hopkins.jpg","E_M_liam_neeson.jpg","TRUE","pictures/stimuli/E","pictures/stimuli/E","M","M","3","5915e5c6405db80001f30ff1","11/30/2021, 10:02:10",-0.141763931811435,"35","Female","left",0,0,0,0,TRUE,"E_M_anthony_hopkins.jpg E_M_liam_neeson.jpg"
594,"P_F_angela_rayner.jpg","P_M_bill_clinton.jpg","TRUE","pictures/stimuli/P","pictures/stimuli/P","F","M","3","5915e5c6405db80001f30ff1","11/30/2021, 10:02:10",-0.141763931811435,"35","Female","left",1,1,0,0,FALSE,"P_F_angela_rayner.jpg P_M_bill_clinton.jpg"
668,"E_M_nicolas_cage.jpg","P_F_angela_rayner.jpg","FALSE","pictures/stimuli/E","pictures/stimuli/P","M","F","2","5915e5c6405db80001f30ff1","11/30/2021, 10:02:10",-1.04516153649215,"35","Female","left",1,1,0,0,FALSE,"E_M_nicolas_cage.jpg P_F_angela_rayner.jpg"
681,"E_M_nicolas_cage.jpg","P_F_nicola_sturgeon.jpg","FALSE","pictures/stimuli/E","pictures/stimuli/P","M","F","3","5915e5c6405db80001f30ff1","11/30/2021, 10:02:10",-0.141763931811435,"35","Female","left",1,1,0,0,FALSE,"E_M_nicolas_cage.jpg P_F_nicola_sturgeon.jpg"
778,"E_M_michael_caine.jpg","E_M_robert_de_niro.jpg","TRUE","pictures/stimuli/E","pictures/stimuli/E","M","M","4","5915e5c6405db80001f30ff1","11/30/2021, 10:02:10",0.761633672869282,"35","Female","left",1,1,0,0,FALSE,"E_M_michael_caine.jpg E_M_robert_de_niro.jpg"
2981,"E_F_jennifer_aniston.jpg","E_M_tom_hankes.jpg","TRUE","pictures/stimuli/E","pictures/stimuli/E","F","M","2","5915e5c6405db80001f30ff1","11/30/2021, 10:02:10",-1.04516153649215,"35","Female","left",1,1,0,0,FALSE,"E_F_jennifer_aniston.jpg E_M_tom_hankes.jpg"
2391,"E_F_Judi_Dench.jpg","P_F_hillary_clinton.jpg","FALSE","pictures/stimuli/E","pictures/stimuli/P","F","F","2","5915e5c6405db80001f30ff1","11/30/2021, 10:02:10",-1.04516153649215,"35","Female","left",1,1,0,0,FALSE,"E_F_Judi_Dench.jpg P_F_hillary_clinton.jpg"
2975,"E_F_keira_knightley.jpg","P_F_angela_rayner.jpg","FALSE","pictures/stimuli/E","pictures/stimuli/P","F","F","2","5915e5c6405db80001f30ff1","11/30/2021, 10:02:10",-1.04516153649215,"35","Female","left",1,1,0,0,FALSE,"E_F_keira_knightley.jpg P_F_angela_rayner.jpg"
68945,"E_F_angelina_jolie.jpg","E_M_nicolas_cage.jpg","TRUE","pictures/stimuli/E","pictures/stimuli/E","F","M","4","5915e5c6405db80001f30ff1","11/30/2021, 10:02:10",0.761633672869282,"35","Female","left",1,1,0,0,TRUE,"E_F_angelina_jolie.jpg E_M_nicolas_cage.jpg"
1007,"E_F_angelina_jolie.jpg","E_F_Kate_Winslet.jpg","TRUE","pictures/stimuli/E","pictures/stimuli/E","F","F","3","5915e5c6405db80001f30ff1","11/30/2021, 10:02:10",-0.141763931811435,"35","Female","left",1,1,0,0,FALSE,"E_F_angelina_jolie.jpg E_F_Kate_Winslet.jpg"
1337,"E_F_Kate_Winslet.jpg","E_M_liam_neeson.jpg","TRUE","pictures/stimuli/E","pictures/stimuli/E","F","M","2","5915e5c6405db80001f30ff1","11/30/2021, 10:02:10",-1.04516153649215,"35","Female","left",1,0,0,0,TRUE,"E_F_Kate_Winslet.jpg E_M_liam_neeson.jpg"
39406,"E_M_Martin_Freeman.jpg","P_M_donald_trump.jpg","FALSE","pictures/stimuli/E","pictures/stimuli/P","M","M","3","5915e5c6405db80001f30ff1","11/30/2021, 10:02:10",-0.141763931811435,"35","Female","left",0,1,0,0,TRUE,"E_M_Martin_Freeman.jpg P_M_donald_trump.jpg"
55673,"E_M_robert_de_niro.jpg","P_F_angela_rayner.jpg","FALSE","pictures/stimuli/E","pictures/stimuli/P","M","F","4","5915e5c6405db80001f30ff1","11/30/2021, 10:02:10",0.761633672869282,"35","Female","left",1,1,0,0,TRUE,"E_M_robert_de_niro.jpg P_F_angela_rayner.jpg"
12304,"E_M_Martin_Freeman.jpg","P_F_tehresy_may.jpg","FALSE","pictures/stimuli/E","pictures/stimuli/P","M","F","5","5915e5c6405db80001f30ff1","11/30/2021, 10:02:10",1.66503127755,"35","Female","left",0,1,0,0,TRUE,"E_M_Martin_Freeman.jpg P_F_tehresy_may.jpg"
849,"P_F_tehresy_may.jpg","P_M_david_cameron.jpg","TRUE","pictures/stimuli/P","pictures/stimuli/P","F","M","3","5915e5c6405db80001f30ff1","11/30/2021, 10:02:10",-0.141763931811435,"35","Female","left",1,1,0,0,FALSE,"P_F_tehresy_may.jpg P_M_david_cameron.jpg"
819,"P_M_david_cameron.jpg","P_M_george_Wbush.jpg","TRUE","pictures/stimuli/P","pictures/stimuli/P","M","M","4","5915e5c6405db80001f30ff1","11/30/2021, 10:02:10",0.761633672869282,"35","Female","left",1,1,0,0,FALSE,"P_M_david_cameron.jpg P_M_george_Wbush.jpg"
565,"P_M_boris_johnson.jpg","P_M_Tony_Blair.jpg","TRUE","pictures/stimuli/P","pictures/stimuli/P","M","M","5","5915e5c6405db80001f30ff1","11/30/2021, 10:02:10",1.66503127755,"35","Female","left",1,1,0,0,FALSE,"P_M_boris_johnson.jpg P_M_Tony_Blair.jpg"
883,"E_M_Martin_Freeman.jpg","P_M_george_Wbush.jpg","FALSE","pictures/stimuli/E","pictures/stimuli/P","M","M","2","5915e5c6405db80001f30ff1","11/30/2021, 10:02:10",-1.04516153649215,"35","Female","left",0,1,0,0,TRUE,"E_M_Martin_Freeman.jpg P_M_george_Wbush.jpg"
469,"E_M_nicolas_cage.jpg","P_M_bill_clinton.jpg","FALSE","pictures/stimuli/E","pictures/stimuli/P","M","M","5","5915e5c6405db80001f30ff1","11/30/2021, 10:02:10",1.66503127755,"35","Female","left",1,1,0,0,FALSE,"E_M_nicolas_cage.jpg P_M_bill_clinton.jpg"
434,"E_F_angelina_jolie.jpg","E_F_jennifer_aniston.jpg","TRUE","pictures/stimuli/E","pictures/stimuli/E","F","F","4","5915e5c6405db80001f30ff1","11/30/2021, 10:02:10",0.761633672869282,"35","Female","left",1,1,0,0,FALSE,"E_F_angelina_jolie.jpg E_F_jennifer_aniston.jpg"
1143,"E_F_angelina_jolie.jpg","E_M_anthony_hopkins.jpg","TRUE","pictures/stimuli/E","pictures/stimuli/E","F","M","3","5915e5c6405db80001f30ff1","11/30/2021, 10:02:10",-0.141763931811435,"35","Female","left",1,0,0,0,TRUE,"E_F_angelina_jolie.jpg E_M_anthony_hopkins.jpg"
354,"P_F_PRITI_PATEL.jpg","P_M_george_Wbush.jpg","TRUE","pictures/stimuli/P","pictures/stimuli/P","F","M","3","5915e5c6405db80001f30ff1","11/30/2021, 10:02:10",-0.141763931811435,"35","Female","left",1,1,0,0,FALSE,"P_F_PRITI_PATEL.jpg P_M_george_Wbush.jpg"
1855,"P_M_donald_trump.jpg","P_M_Tony_Blair.jpg","TRUE","pictures/stimuli/P","pictures/stimuli/P","M","M","5","5915e5c6405db80001f30ff1","11/30/2021, 10:02:10",1.66503127755,"35","Female","left",1,1,0,0,FALSE,"P_M_donald_trump.jpg P_M_Tony_Blair.jpg"
865,"E_F_keira_knightley.jpg","P_M_george_Wbush.jpg","FALSE","pictures/stimuli/E","pictures/stimuli/P","F","M","4","5915e5c6405db80001f30ff1","11/30/2021, 10:02:10",0.761633672869282,"35","Female","left",1,1,0,0,FALSE,"E_F_keira_knightley.jpg P_M_george_Wbush.jpg"
6138,"E_M_liam_neeson.jpg","E_M_michael_caine.jpg","TRUE","pictures/stimuli/E","pictures/stimuli/E","M","M","5","5915e5c6405db80001f30ff1","11/30/2021, 10:02:10",1.66503127755,"35","Female","left",0,1,0,0,TRUE,"E_M_liam_neeson.jpg E_M_michael_caine.jpg"
51857,"E_F_angelina_jolie.jpg","E_F_Judi_Dench.jpg","TRUE","pictures/stimuli/E","pictures/stimuli/E","F","F","5","5915e5c6405db80001f30ff1","11/30/2021, 10:02:10",1.66503127755,"35","Female","left",1,1,0,0,TRUE,"E_F_angelina_jolie.jpg E_F_Judi_Dench.jpg"
595,"E_M_Hugh_Grant.jpg","P_M_george_Wbush.jpg","FALSE","pictures/stimuli/E","pictures/stimuli/P","M","M","3","5915e5c6405db80001f30ff1","11/30/2021, 10:02:10",-0.141763931811435,"35","Female","left",1,1,0,0,FALSE,"E_M_Hugh_Grant.jpg P_M_george_Wbush.jpg"
723,"E_F_sandra_bullock.jpg","E_M_robert_de_niro.jpg","TRUE","pictures/stimuli/E","pictures/stimuli/E","F","M","4","5915e5c6405db80001f30ff1","11/30/2021, 10:02:10",0.761633672869282,"35","Female","left",1,1,0,0,FALSE,"E_F_sandra_bullock.jpg E_M_robert_de_niro.jpg"
606,"P_F_esther_mcvey.jpg","P_M_Tony_Blair.jpg","TRUE","pictures/stimuli/P","pictures/stimuli/P","F","M","5","5915e5c6405db80001f30ff1","11/30/2021, 10:02:10",1.66503127755,"35","Female","left",0,1,0,0,TRUE,"P_F_esther_mcvey.jpg P_M_Tony_Blair.jpg"
465,"E_F_Kate_Winslet.jpg","P_M_Tony_Blair.jpg","FALSE","pictures/stimuli/E","pictures/stimuli/P","F","M","4","5915e5c6405db80001f30ff1","11/30/2021, 10:02:10",0.761633672869282,"35","Female","left",1,1,0,0,FALSE,"E_F_Kate_Winslet.jpg P_M_Tony_Blair.jpg"
485,"P_F_esther_mcvey.jpg","P_M_bill_clinton.jpg","TRUE","pictures/stimuli/P","pictures/stimuli/P","F","M","3","5915e5c6405db80001f30ff1","11/30/2021, 10:02:10",-0.141763931811435,"35","Female","left",0,1,0,0,TRUE,"P_F_esther_mcvey.jpg P_M_bill_clinton.jpg"
587,"E_F_jennifer_aniston.jpg","P_M_bill_clinton.jpg","FALSE","pictures/stimuli/E","pictures/stimuli/P","F","M","5","5915e5c6405db80001f30ff1","11/30/2021, 10:02:10",1.66503127755,"35","Female","left",1,1,0,0,FALSE,"E_F_jennifer_aniston.jpg P_M_bill_clinton.jpg"
1778,"E_F_jennifer_aniston.jpg","P_M_david_cameron.jpg","FALSE","pictures/stimuli/E","pictures/stimuli/P","F","M","5","5915e5c6405db80001f30ff1","11/30/2021, 10:02:10",1.66503127755,"35","Female","left",1,1,0,0,FALSE,"E_F_jennifer_aniston.jpg P_M_david_cameron.jpg"
1061,"E_F_jennifer_aniston.jpg","E_M_Martin_Freeman.jpg","TRUE","pictures/stimuli/E","pictures/stimuli/E","F","M","4","5915e5c6405db80001f30ff1","11/30/2021, 10:02:10",0.761633672869282,"35","Female","left",1,0,0,0,TRUE,"E_F_jennifer_aniston.jpg E_M_Martin_Freeman.jpg"
27566,"P_F_esther_mcvey.jpg","P_F_PRITI_PATEL.jpg","TRUE","pictures/stimuli/P","pictures/stimuli/P","F","F","4","5915e5c6405db80001f30ff1","11/30/2021, 10:02:10",0.761633672869282,"35","Female","left",0,1,0,0,TRUE,"P_F_esther_mcvey.jpg P_F_PRITI_PATEL.jpg"
611,"P_F_angela_rayner.jpg","P_M_david_cameron.jpg","TRUE","pictures/stimuli/P","pictures/stimuli/P","F","M","2","5915e5c6405db80001f30ff1","11/30/2021, 10:02:10",-1.04516153649215,"35","Female","left",1,1,0,0,FALSE,"P_F_angela_rayner.jpg P_M_david_cameron.jpg"
677,"E_F_Judi_Dench.jpg","P_M_donald_trump.jpg","FALSE","pictures/stimuli/E","pictures/stimuli/P","F","M","3","5915e5c6405db80001f30ff1","11/30/2021, 10:02:10",-0.141763931811435,"35","Female","left",1,1,0,0,FALSE,"E_F_Judi_Dench.jpg P_M_donald_trump.jpg"
1083,"E_F_Kate_Winslet.jpg","P_M_george_Wbush.jpg","FALSE","pictures/stimuli/E","pictures/stimuli/P","F","M","4","5915e5c6405db80001f30ff1","11/30/2021, 10:02:10",0.761633672869282,"35","Female","left",1,1,0,0,FALSE,"E_F_Kate_Winslet.jpg P_M_george_Wbush.jpg"
415,"E_F_angelina_jolie.jpg","P_M_boris_johnson.jpg","FALSE","pictures/stimuli/E","pictures/stimuli/P","F","M","3","5915e5c6405db80001f30ff1","11/30/2021, 10:02:10",-0.141763931811435,"35","Female","left",1,1,0,0,FALSE,"E_F_angelina_jolie.jpg P_M_boris_johnson.jpg"
549,"E_F_Kate_Winslet.jpg","P_M_donald_trump.jpg","FALSE","pictures/stimuli/E","pictures/stimuli/P","F","M","2","5915e5c6405db80001f30ff1","11/30/2021, 10:02:10",-1.04516153649215,"35","Female","left",1,1,0,0,FALSE,"E_F_Kate_Winslet.jpg P_M_donald_trump.jpg"
964,"P_M_boris_johnson.jpg","P_M_george_Wbush.jpg","TRUE","pictures/stimuli/P","pictures/stimuli/P","M","M","3","5915e5c6405db80001f30ff1","11/30/2021, 10:02:10",-0.141763931811435,"35","Female","left",1,1,0,0,FALSE,"P_M_boris_johnson.jpg P_M_george_Wbush.jpg"
1646,"P_F_esther_mcvey.jpg","P_M_boris_johnson.jpg","TRUE","pictures/stimuli/P","pictures/stimuli/P","F","M","5","5915e5c6405db80001f30ff1","11/30/2021, 10:02:10",1.66503127755,"35","Female","left",0,1,0,0,TRUE,"P_F_esther_mcvey.jpg P_M_boris_johnson.jpg"
794,"P_F_PRITI_PATEL.jpg","P_F_tehresy_may.jpg","TRUE","pictures/stimuli/P","pictures/stimuli/P","F","F","3","5915e5c6405db80001f30ff1","11/30/2021, 10:02:10",-0.141763931811435,"35","Female","left",1,1,0,0,FALSE,"P_F_PRITI_PATEL.jpg P_F_tehresy_may.jpg"
1634,"E_F_keira_knightley.jpg","P_M_donald_trump.jpg","FALSE","pictures/stimuli/E","pictures/stimuli/P","F","M","3","5915e5c6405db80001f30ff1","11/30/2021, 10:02:10",-0.141763931811435,"35","Female","left",1,1,0,0,FALSE,"E_F_keira_knightley.jpg P_M_donald_trump.jpg"
15919,"E_F_sandra_bullock.jpg","E_M_Hugh_Grant.jpg","TRUE","pictures/stimuli/E","pictures/stimuli/E","F","M","2","5915e5c6405db80001f30ff1","11/30/2021, 10:02:10",-1.04516153649215,"35","Female","left",1,1,0,0,FALSE,"E_F_sandra_bullock.jpg E_M_Hugh_Grant.jpg"
842,"P_F_PRITI_PATEL.jpg","P_M_david_cameron.jpg","TRUE","pictures/stimuli/P","pictures/stimuli/P","F","M","3","5915e5c6405db80001f30ff1","11/30/2021, 10:02:10",-0.141763931811435,"35","Female","left",1,1,0,0,FALSE,"P_F_PRITI_PATEL.jpg P_M_david_cameron.jpg"
4623,"E_F_angelina_jolie.jpg","E_F_Judi_Dench.jpg","TRUE","pictures/stimuli/E","pictures/stimuli/E","F","F","6","5c80032be4862d0001e63f07","11/30/2021, 12:18:50",1.67205240555837,"36","Female","right",1,0,0,0,TRUE,"E_F_angelina_jolie.jpg E_F_Judi_Dench.jpg"
8622,"E_F_keira_knightley.jpg","P_M_george_Wbush.jpg","FALSE","pictures/stimuli/E","pictures/stimuli/P","F","M","2","5c80032be4862d0001e63f07","11/30/2021, 12:18:50",-0.962696839563911,"36","Female","right",1,1,0,0,FALSE,"E_F_keira_knightley.jpg P_M_george_Wbush.jpg"
5530,"E_F_keira_knightley.jpg","E_M_Hugh_Grant.jpg","TRUE","pictures/stimuli/E","pictures/stimuli/E","F","M","1","5c80032be4862d0001e63f07","11/30/2021, 12:18:50",-1.62138415084448,"36","Female","right",1,1,0,0,FALSE,"E_F_keira_knightley.jpg E_M_Hugh_Grant.jpg"
3709,"P_M_george_Wbush.jpg","P_M_Tony_Blair.jpg","TRUE","pictures/stimuli/P","pictures/stimuli/P","M","M","1","5c80032be4862d0001e63f07","11/30/2021, 12:18:50",-1.62138415084448,"36","Female","right",1,1,0,0,FALSE,"P_M_george_Wbush.jpg P_M_Tony_Blair.jpg"
16416,"E_M_Martin_Freeman.jpg","P_M_boris_johnson.jpg","FALSE","pictures/stimuli/E","pictures/stimuli/P","M","M","5","5c80032be4862d0001e63f07","11/30/2021, 12:18:50",1.0133650942778,"36","Female","right",1,1,0,0,FALSE,"E_M_Martin_Freeman.jpg P_M_boris_johnson.jpg"
3230,"E_F_angelina_jolie.jpg","P_F_esther_mcvey.jpg","FALSE","pictures/stimuli/E","pictures/stimuli/P","F","F","3","5c80032be4862d0001e63f07","11/30/2021, 12:18:50",-0.30400952828334,"36","Female","right",1,0,0,0,TRUE,"E_F_angelina_jolie.jpg P_F_esther_mcvey.jpg"
3512,"E_M_anthony_hopkins.jpg","P_F_nicola_sturgeon.jpg","FALSE","pictures/stimuli/E","pictures/stimuli/P","M","F","4","5c80032be4862d0001e63f07","11/30/2021, 12:18:50",0.35467778299723,"36","Female","right",1,1,0,0,FALSE,"E_M_anthony_hopkins.jpg P_F_nicola_sturgeon.jpg"
6519,"E_F_sandra_bullock.jpg","E_M_michael_caine.jpg","TRUE","pictures/stimuli/E","pictures/stimuli/E","F","M","1","5c80032be4862d0001e63f07","11/30/2021, 12:18:50",-1.62138415084448,"36","Female","right",1,1,0,0,FALSE,"E_F_sandra_bullock.jpg E_M_michael_caine.jpg"
4181,"E_M_tom_hankes.jpg","P_M_bill_clinton.jpg","FALSE","pictures/stimuli/E","pictures/stimuli/P","M","M","3","5c80032be4862d0001e63f07","11/30/2021, 12:18:50",-0.30400952828334,"36","Female","right",1,1,0,0,FALSE,"E_M_tom_hankes.jpg P_M_bill_clinton.jpg"
3018,"E_F_jennifer_aniston.jpg","E_M_nicolas_cage.jpg","TRUE","pictures/stimuli/E","pictures/stimuli/E","F","M","1","5c80032be4862d0001e63f07","11/30/2021, 12:18:50",-1.62138415084448,"36","Female","right",1,1,0,0,FALSE,"E_F_jennifer_aniston.jpg E_M_nicolas_cage.jpg"
3513,"E_F_angelina_jolie.jpg","E_M_Hugh_Grant.jpg","TRUE","pictures/stimuli/E","pictures/stimuli/E","F","M","1","5c80032be4862d0001e63f07","11/30/2021, 12:18:50",-1.62138415084448,"36","Female","right",1,1,0,0,FALSE,"E_F_angelina_jolie.jpg E_M_Hugh_Grant.jpg"
3339,"E_M_nicolas_cage.jpg","P_F_PRITI_PATEL.jpg","FALSE","pictures/stimuli/E","pictures/stimuli/P","M","F","2","5c80032be4862d0001e63f07","11/30/2021, 12:18:50",-0.962696839563911,"36","Female","right",1,0,0,0,TRUE,"E_M_nicolas_cage.jpg P_F_PRITI_PATEL.jpg"
4369,"E_F_Judi_Dench.jpg","P_F_tehresy_may.jpg","FALSE","pictures/stimuli/E","pictures/stimuli/P","F","F","1","5c80032be4862d0001e63f07","11/30/2021, 12:18:50",-1.62138415084448,"36","Female","right",0,1,0,0,TRUE,"E_F_Judi_Dench.jpg P_F_tehresy_may.jpg"
3016,"E_F_sandra_bullock.jpg","P_F_PRITI_PATEL.jpg","FALSE","pictures/stimuli/E","pictures/stimuli/P","F","F","3","5c80032be4862d0001e63f07","11/30/2021, 12:18:50",-0.30400952828334,"36","Female","right",1,0,0,0,TRUE,"E_F_sandra_bullock.jpg P_F_PRITI_PATEL.jpg"
3017,"E_M_michael_caine.jpg","P_M_george_Wbush.jpg","FALSE","pictures/stimuli/E","pictures/stimuli/P","M","M","1","5c80032be4862d0001e63f07","11/30/2021, 12:18:50",-1.62138415084448,"36","Female","right",1,1,0,0,FALSE,"E_M_michael_caine.jpg P_M_george_Wbush.jpg"
3523,"E_M_robert_de_niro.jpg","P_M_boris_johnson.jpg","FALSE","pictures/stimuli/E","pictures/stimuli/P","M","M","6","5c80032be4862d0001e63f07","11/30/2021, 12:18:50",1.67205240555837,"36","Female","right",1,1,0,0,FALSE,"E_M_robert_de_niro.jpg P_M_boris_johnson.jpg"
5034,"E_M_robert_de_niro.jpg","P_M_donald_trump.jpg","FALSE","pictures/stimuli/E","pictures/stimuli/P","M","M","4","5c80032be4862d0001e63f07","11/30/2021, 12:18:50",0.35467778299723,"36","Female","right",1,1,0,0,FALSE,"E_M_robert_de_niro.jpg P_M_donald_trump.jpg"
5603,"E_M_anthony_hopkins.jpg","E_M_michael_caine.jpg","TRUE","pictures/stimuli/E","pictures/stimuli/E","M","M","3","5c80032be4862d0001e63f07","11/30/2021, 12:18:50",-0.30400952828334,"36","Female","right",1,1,0,0,FALSE,"E_M_anthony_hopkins.jpg E_M_michael_caine.jpg"
4948,"E_M_liam_neeson.jpg","E_M_robert_de_niro.jpg","TRUE","pictures/stimuli/E","pictures/stimuli/E","M","M","3","5c80032be4862d0001e63f07","11/30/2021, 12:18:50",-0.30400952828334,"36","Female","right",1,1,0,0,FALSE,"E_M_liam_neeson.jpg E_M_robert_de_niro.jpg"
3473,"E_M_liam_neeson.jpg","P_M_david_cameron.jpg","FALSE","pictures/stimuli/E","pictures/stimuli/P","M","M","2","5c80032be4862d0001e63f07","11/30/2021, 12:18:50",-0.962696839563911,"36","Female","right",1,1,0,0,FALSE,"E_M_liam_neeson.jpg P_M_david_cameron.jpg"
5456,"E_M_robert_de_niro.jpg","P_M_george_Wbush.jpg","FALSE","pictures/stimuli/E","pictures/stimuli/P","M","M","4","5c80032be4862d0001e63f07","11/30/2021, 12:18:50",0.35467778299723,"36","Female","right",1,1,0,0,FALSE,"E_M_robert_de_niro.jpg P_M_george_Wbush.jpg"
1705,"E_M_robert_de_niro.jpg","E_M_tom_hankes.jpg","TRUE","pictures/stimuli/E","pictures/stimuli/E","M","M","2","5c80032be4862d0001e63f07","11/30/2021, 12:18:50",-0.962696839563911,"36","Female","right",1,1,0,0,FALSE,"E_M_robert_de_niro.jpg E_M_tom_hankes.jpg"
1684,"P_M_boris_johnson.jpg","P_M_david_cameron.jpg","TRUE","pictures/stimuli/P","pictures/stimuli/P","M","M","4","5c80032be4862d0001e63f07","11/30/2021, 12:18:50",0.35467778299723,"36","Female","right",1,1,0,0,FALSE,"P_M_boris_johnson.jpg P_M_david_cameron.jpg"
3203,"E_M_Hugh_Grant.jpg","P_F_tehresy_may.jpg","FALSE","pictures/stimuli/E","pictures/stimuli/P","M","F","5","5c80032be4862d0001e63f07","11/30/2021, 12:18:50",1.0133650942778,"36","Female","right",1,1,0,0,FALSE,"E_M_Hugh_Grant.jpg P_F_tehresy_may.jpg"
10002,"E_M_tom_hankes.jpg","P_M_Tony_Blair.jpg","FALSE","pictures/stimuli/E","pictures/stimuli/P","M","M","6","5c80032be4862d0001e63f07","11/30/2021, 12:18:50",1.67205240555837,"36","Female","right",1,1,0,0,FALSE,"E_M_tom_hankes.jpg P_M_Tony_Blair.jpg"
3401,"P_F_esther_mcvey.jpg","P_F_PRITI_PATEL.jpg","TRUE","pictures/stimuli/P","pictures/stimuli/P","F","F","3","5c80032be4862d0001e63f07","11/30/2021, 12:18:50",-0.30400952828334,"36","Female","right",0,0,0,0,TRUE,"P_F_esther_mcvey.jpg P_F_PRITI_PATEL.jpg"
3179,"P_M_bill_clinton.jpg","P_M_donald_trump.jpg","TRUE","pictures/stimuli/P","pictures/stimuli/P","M","M","3","5c80032be4862d0001e63f07","11/30/2021, 12:18:50",-0.30400952828334,"36","Female","right",1,1,0,0,FALSE,"P_M_bill_clinton.jpg P_M_donald_trump.jpg"
2785,"E_F_Kate_Winslet.jpg","E_F_keira_knightley.jpg","TRUE","pictures/stimuli/E","pictures/stimuli/E","F","F","1","5c80032be4862d0001e63f07","11/30/2021, 12:18:50",-1.62138415084448,"36","Female","right",1,1,0,0,FALSE,"E_F_Kate_Winslet.jpg E_F_keira_knightley.jpg"
2424,"P_F_PRITI_PATEL.jpg","P_F_tehresy_may.jpg","TRUE","pictures/stimuli/P","pictures/stimuli/P","F","F","3","5c80032be4862d0001e63f07","11/30/2021, 12:18:50",-0.30400952828334,"36","Female","right",0,1,0,0,TRUE,"P_F_PRITI_PATEL.jpg P_F_tehresy_may.jpg"
2162,"P_F_angela_rayner.jpg","P_F_nicola_sturgeon.jpg","TRUE","pictures/stimuli/P","pictures/stimuli/P","F","F","3","5c80032be4862d0001e63f07","11/30/2021, 12:18:50",-0.30400952828334,"36","Female","right",0,1,0,0,TRUE,"P_F_angela_rayner.jpg P_F_nicola_sturgeon.jpg"
4378,"E_M_anthony_hopkins.jpg","E_M_nicolas_cage.jpg","TRUE","pictures/stimuli/E","pictures/stimuli/E","M","M","5","5c80032be4862d0001e63f07","11/30/2021, 12:18:50",1.0133650942778,"36","Female","right",1,1,0,0,FALSE,"E_M_anthony_hopkins.jpg E_M_nicolas_cage.jpg"
1336,"E_F_Judi_Dench.jpg","P_F_angela_rayner.jpg","FALSE","pictures/stimuli/E","pictures/stimuli/P","F","F","3","5c80032be4862d0001e63f07","11/30/2021, 12:18:50",-0.30400952828334,"36","Female","right",0,0,0,0,TRUE,"E_F_Judi_Dench.jpg P_F_angela_rayner.jpg"
1829,"E_F_sandra_bullock.jpg","P_M_bill_clinton.jpg","FALSE","pictures/stimuli/E","pictures/stimuli/P","F","M","5","5c80032be4862d0001e63f07","11/30/2021, 12:18:50",1.0133650942778,"36","Female","right",1,1,0,0,FALSE,"E_F_sandra_bullock.jpg P_M_bill_clinton.jpg"
1903,"E_F_sandra_bullock.jpg","P_F_nicola_sturgeon.jpg","FALSE","pictures/stimuli/E","pictures/stimuli/P","F","F","3","5c80032be4862d0001e63f07","11/30/2021, 12:18:50",-0.30400952828334,"36","Female","right",1,1,0,0,FALSE,"E_F_sandra_bullock.jpg P_F_nicola_sturgeon.jpg"
2843,"E_M_anthony_hopkins.jpg","E_M_Hugh_Grant.jpg","TRUE","pictures/stimuli/E","pictures/stimuli/E","M","M","4","5c80032be4862d0001e63f07","11/30/2021, 12:18:50",0.35467778299723,"36","Female","right",1,1,0,0,FALSE,"E_M_anthony_hopkins.jpg E_M_Hugh_Grant.jpg"
3401,"E_F_Judi_Dench.jpg","E_F_keira_knightley.jpg","TRUE","pictures/stimuli/E","pictures/stimuli/E","F","F","1","5c80032be4862d0001e63f07","11/30/2021, 12:18:50",-1.62138415084448,"36","Female","right",0,1,0,0,TRUE,"E_F_Judi_Dench.jpg E_F_keira_knightley.jpg"
3302,"E_M_anthony_hopkins.jpg","E_M_liam_neeson.jpg","TRUE","pictures/stimuli/E","pictures/stimuli/E","M","M","3","5c80032be4862d0001e63f07","11/30/2021, 12:18:50",-0.30400952828334,"36","Female","right",1,1,0,0,FALSE,"E_M_anthony_hopkins.jpg E_M_liam_neeson.jpg"
4007,"E_M_anthony_hopkins.jpg","P_F_hillary_clinton.jpg","FALSE","pictures/stimuli/E","pictures/stimuli/P","M","F","3","5c80032be4862d0001e63f07","11/30/2021, 12:18:50",-0.30400952828334,"36","Female","right",1,1,0,0,FALSE,"E_M_anthony_hopkins.jpg P_F_hillary_clinton.jpg"
4177,"E_F_Kate_Winslet.jpg","E_M_michael_caine.jpg","TRUE","pictures/stimuli/E","pictures/stimuli/E","F","M","2","5c80032be4862d0001e63f07","11/30/2021, 12:18:50",-0.962696839563911,"36","Female","right",1,1,0,0,FALSE,"E_F_Kate_Winslet.jpg E_M_michael_caine.jpg"
3759,"E_M_Hugh_Grant.jpg","E_M_michael_caine.jpg","TRUE","pictures/stimuli/E","pictures/stimuli/E","M","M","2","5c80032be4862d0001e63f07","11/30/2021, 12:18:50",-0.962696839563911,"36","Female","right",1,1,0,0,FALSE,"E_M_Hugh_Grant.jpg E_M_michael_caine.jpg"
4748,"E_F_angelina_jolie.jpg","P_M_bill_clinton.jpg","FALSE","pictures/stimuli/E","pictures/stimuli/P","F","M","6","5c80032be4862d0001e63f07","11/30/2021, 12:18:50",1.67205240555837,"36","Female","right",1,1,0,0,FALSE,"E_F_angelina_jolie.jpg P_M_bill_clinton.jpg"
2423,"E_M_michael_caine.jpg","P_F_hillary_clinton.jpg","FALSE","pictures/stimuli/E","pictures/stimuli/P","M","F","4","5c80032be4862d0001e63f07","11/30/2021, 12:18:50",0.35467778299723,"36","Female","right",1,1,0,0,FALSE,"E_M_michael_caine.jpg P_F_hillary_clinton.jpg"
3772,"E_M_michael_caine.jpg","P_M_david_cameron.jpg","FALSE","pictures/stimuli/E","pictures/stimuli/P","M","M","4","5c80032be4862d0001e63f07","11/30/2021, 12:18:50",0.35467778299723,"36","Female","right",1,1,0,0,FALSE,"E_M_michael_caine.jpg P_M_david_cameron.jpg"
3796,"E_F_jennifer_aniston.jpg","P_M_donald_trump.jpg","FALSE","pictures/stimuli/E","pictures/stimuli/P","F","M","6","5c80032be4862d0001e63f07","11/30/2021, 12:18:50",1.67205240555837,"36","Female","right",1,1,0,0,FALSE,"E_F_jennifer_aniston.jpg P_M_donald_trump.jpg"
6218,"E_M_nicolas_cage.jpg","P_M_Tony_Blair.jpg","FALSE","pictures/stimuli/E","pictures/stimuli/P","M","M","6","5c80032be4862d0001e63f07","11/30/2021, 12:18:50",1.67205240555837,"36","Female","right",1,1,0,0,FALSE,"E_M_nicolas_cage.jpg P_M_Tony_Blair.jpg"
2139,"E_M_Hugh_Grant.jpg","P_M_donald_trump.jpg","FALSE","pictures/stimuli/E","pictures/stimuli/P","M","M","5","5c80032be4862d0001e63f07","11/30/2021, 12:18:50",1.0133650942778,"36","Female","right",1,1,0,0,FALSE,"E_M_Hugh_Grant.jpg P_M_donald_trump.jpg"
2893,"E_M_michael_caine.jpg","P_M_Tony_Blair.jpg","FALSE","pictures/stimuli/E","pictures/stimuli/P","M","M","4","5c80032be4862d0001e63f07","11/30/2021, 12:18:50",0.35467778299723,"36","Female","right",1,1,0,0,FALSE,"E_M_michael_caine.jpg P_M_Tony_Blair.jpg"
2953,"E_F_Kate_Winslet.jpg","E_F_sandra_bullock.jpg","TRUE","pictures/stimuli/E","pictures/stimuli/E","F","F","5","5c80032be4862d0001e63f07","11/30/2021, 12:18:50",1.0133650942778,"36","Female","right",1,1,0,0,FALSE,"E_F_Kate_Winslet.jpg E_F_sandra_bullock.jpg"
2631,"P_F_esther_mcvey.jpg","P_M_boris_johnson.jpg","TRUE","pictures/stimuli/P","pictures/stimuli/P","F","M","5","5c80032be4862d0001e63f07","11/30/2021, 12:18:50",1.0133650942778,"36","Female","right",0,1,0,0,TRUE,"P_F_esther_mcvey.jpg P_M_boris_johnson.jpg"
2275,"E_M_liam_neeson.jpg","P_M_donald_trump.jpg","FALSE","pictures/stimuli/E","pictures/stimuli/P","M","M","3","5c80032be4862d0001e63f07","11/30/2021, 12:18:50",-0.30400952828334,"36","Female","right",1,1,0,0,FALSE,"E_M_liam_neeson.jpg P_M_donald_trump.jpg"
1766,"E_F_angelina_jolie.jpg","E_M_liam_neeson.jpg","TRUE","pictures/stimuli/E","pictures/stimuli/E","F","M","5","5c80032be4862d0001e63f07","11/30/2021, 12:18:50",1.0133650942778,"36","Female","right",1,1,0,0,FALSE,"E_F_angelina_jolie.jpg E_M_liam_neeson.jpg"
6377,"P_F_PRITI_PATEL.jpg","P_M_Tony_Blair.jpg","TRUE","pictures/stimuli/P","pictures/stimuli/P","F","M","4","5c80032be4862d0001e63f07","11/30/2021, 12:18:50",0.35467778299723,"36","Female","right",0,1,0,0,TRUE,"P_F_PRITI_PATEL.jpg P_M_Tony_Blair.jpg"
2385,"E_F_keira_knightley.jpg","P_F_nicola_sturgeon.jpg","FALSE","pictures/stimuli/E","pictures/stimuli/P","F","F","3","5c80032be4862d0001e63f07","11/30/2021, 12:18:50",-0.30400952828334,"36","Female","right",1,1,0,0,FALSE,"E_F_keira_knightley.jpg P_F_nicola_sturgeon.jpg"
2384,"P_F_angela_rayner.jpg","P_F_hillary_clinton.jpg","TRUE","pictures/stimuli/P","pictures/stimuli/P","F","F","4","5c80032be4862d0001e63f07","11/30/2021, 12:18:50",0.35467778299723,"36","Female","right",0,1,0,0,TRUE,"P_F_angela_rayner.jpg P_F_hillary_clinton.jpg"
2647,"E_F_keira_knightley.jpg","E_M_anthony_hopkins.jpg","TRUE","pictures/stimuli/E","pictures/stimuli/E","F","M","4","5c80032be4862d0001e63f07","11/30/2021, 12:18:50",0.35467778299723,"36","Female","right",1,1,0,0,FALSE,"E_F_keira_knightley.jpg E_M_anthony_hopkins.jpg"
3870,"E_F_angelina_jolie.jpg","P_M_donald_trump.jpg","FALSE","pictures/stimuli/E","pictures/stimuli/P","F","M","6","5c80032be4862d0001e63f07","11/30/2021, 12:18:50",1.67205240555837,"36","Female","right",1,1,0,0,FALSE,"E_F_angelina_jolie.jpg P_M_donald_trump.jpg"
