"RT","img_1","img_2","isSameProffesion","img1proffesion","img2proffesion","img1Gender","img2Gender","keyPressed","participant","time","normlised_keyPress","age","gender","handedness","isFamiliar_img1","isFamiliar_img2","vividness_img1","vividness_img2","reject_trial","condition","pair"
NA,"E_F_angelina_jolie.jpg","E_F_jennifer_aniston.jpg",NA,NA,NA,NA,NA,0.840930551290512,NA,NA,NA,NA,NA,NA,NA,NA,NA,NA,FALSE,"VGG","E_F_angelina_jolie.jpg E_F_jennifer_aniston.jpg"
NA,"E_F_angelina_jolie.jpg","E_F_Judi_Dench.jpg",NA,NA,NA,NA,NA,0.908752270042896,NA,NA,NA,NA,NA,NA,NA,NA,NA,NA,FALSE,"VGG","E_F_angelina_jolie.jpg E_F_Judi_Dench.jpg"
NA,"E_F_angelina_jolie.jpg","E_F_Kate_Winslet.jpg",NA,NA,NA,NA,NA,0.730546772480011,NA,NA,NA,NA,NA,NA,NA,NA,NA,NA,FALSE,"VGG","E_F_angelina_jolie.jpg E_F_Kate_Winslet.jpg"
NA,"E_F_angelina_jolie.jpg","E_F_keira_knightley.jpg",NA,NA,NA,NA,NA,0.719180852174759,NA,NA,NA,NA,NA,NA,NA,NA,NA,NA,FALSE,"VGG","E_F_angelina_jolie.jpg E_F_keira_knightley.jpg"
NA,"E_F_angelina_jolie.jpg","E_F_sandra_bullock.jpg",NA,NA,NA,NA,NA,0.854195609688759,NA,NA,NA,NA,NA,NA,NA,NA,NA,NA,FALSE,"VGG","E_F_angelina_jolie.jpg E_F_sandra_bullock.jpg"
NA,"E_F_angelina_jolie.jpg","E_M_anthony_hopkins.jpg",NA,NA,NA,NA,NA,0.8898870870471,NA,NA,NA,NA,NA,NA,NA,NA,NA,NA,FALSE,"VGG","E_F_angelina_jolie.jpg E_M_anthony_hopkins.jpg"
NA,"E_F_angelina_jolie.jpg","E_M_Hugh_Grant.jpg",NA,NA,NA,NA,NA,0.795824870467186,NA,NA,NA,NA,NA,NA,NA,NA,NA,NA,FALSE,"VGG","E_F_angelina_jolie.jpg E_M_Hugh_Grant.jpg"
NA,"E_F_angelina_jolie.jpg","E_M_liam_neeson.jpg",NA,NA,NA,NA,NA,0.800294414162636,NA,NA,NA,NA,NA,NA,NA,NA,NA,NA,FALSE,"VGG","E_F_angelina_jolie.jpg E_M_liam_neeson.jpg"
NA,"E_F_angelina_jolie.jpg","E_M_Martin_Freeman.jpg",NA,NA,NA,NA,NA,0.900087088346481,NA,NA,NA,NA,NA,NA,NA,NA,NA,NA,FALSE,"VGG","E_F_angelina_jolie.jpg E_M_Martin_Freeman.jpg"
NA,"E_F_angelina_jolie.jpg","E_M_michael_caine.jpg",NA,NA,NA,NA,NA,0.937812145799398,NA,NA,NA,NA,NA,NA,NA,NA,NA,NA,FALSE,"VGG","E_F_angelina_jolie.jpg E_M_michael_caine.jpg"
NA,"E_F_angelina_jolie.jpg","E_M_nicolas_cage.jpg",NA,NA,NA,NA,NA,0.850851595401764,NA,NA,NA,NA,NA,NA,NA,NA,NA,NA,FALSE,"VGG","E_F_angelina_jolie.jpg E_M_nicolas_cage.jpg"
NA,"E_F_angelina_jolie.jpg","E_M_robert_de_niro.jpg",NA,NA,NA,NA,NA,0.959476083517075,NA,NA,NA,NA,NA,NA,NA,NA,NA,NA,FALSE,"VGG","E_F_angelina_jolie.jpg E_M_robert_de_niro.jpg"
NA,"E_F_angelina_jolie.jpg","E_M_tom_hankes.jpg",NA,NA,NA,NA,NA,0.876640044152737,NA,NA,NA,NA,NA,NA,NA,NA,NA,NA,FALSE,"VGG","E_F_angelina_jolie.jpg E_M_tom_hankes.jpg"
NA,"E_F_angelina_jolie.jpg","P_F_angela_rayner.jpg",NA,NA,NA,NA,NA,0.803990066051483,NA,NA,NA,NA,NA,NA,NA,NA,NA,NA,FALSE,"VGG","E_F_angelina_jolie.jpg P_F_angela_rayner.jpg"
NA,"E_F_angelina_jolie.jpg","P_F_esther_mcvey.jpg",NA,NA,NA,NA,NA,0.884451650083065,NA,NA,NA,NA,NA,NA,NA,NA,NA,NA,FALSE,"VGG","E_F_angelina_jolie.jpg P_F_esther_mcvey.jpg"
NA,"E_F_angelina_jolie.jpg","P_F_hillary_clinton.jpg",NA,NA,NA,NA,NA,0.868957117199898,NA,NA,NA,NA,NA,NA,NA,NA,NA,NA,FALSE,"VGG","E_F_angelina_jolie.jpg P_F_hillary_clinton.jpg"
NA,"E_F_angelina_jolie.jpg","P_F_nicola_sturgeon.jpg",NA,NA,NA,NA,NA,0.931106507778168,NA,NA,NA,NA,NA,NA,NA,NA,NA,NA,FALSE,"VGG","E_F_angelina_jolie.jpg P_F_nicola_sturgeon.jpg"
NA,"E_F_angelina_jolie.jpg","P_F_PRITI_PATEL.jpg",NA,NA,NA,NA,NA,0.787601411342621,NA,NA,NA,NA,NA,NA,NA,NA,NA,NA,FALSE,"VGG","E_F_angelina_jolie.jpg P_F_PRITI_PATEL.jpg"
NA,"E_F_angelina_jolie.jpg","P_F_tehresy_may.jpg",NA,NA,NA,NA,NA,0.942345529794693,NA,NA,NA,NA,NA,NA,NA,NA,NA,NA,FALSE,"VGG","E_F_angelina_jolie.jpg P_F_tehresy_may.jpg"
NA,"E_F_angelina_jolie.jpg","P_M_bill_clinton.jpg",NA,NA,NA,NA,NA,0.916872665286064,NA,NA,NA,NA,NA,NA,NA,NA,NA,NA,FALSE,"VGG","E_F_angelina_jolie.jpg P_M_bill_clinton.jpg"
NA,"E_F_angelina_jolie.jpg","P_M_boris_johnson.jpg",NA,NA,NA,NA,NA,0.943420924246311,NA,NA,NA,NA,NA,NA,NA,NA,NA,NA,FALSE,"VGG","E_F_angelina_jolie.jpg P_M_boris_johnson.jpg"
NA,"E_F_angelina_jolie.jpg","P_M_david_cameron.jpg",NA,NA,NA,NA,NA,0.92900625616312,NA,NA,NA,NA,NA,NA,NA,NA,NA,NA,FALSE,"VGG","E_F_angelina_jolie.jpg P_M_david_cameron.jpg"
NA,"E_F_angelina_jolie.jpg","P_M_donald_trump.jpg",NA,NA,NA,NA,NA,0.932176783680916,NA,NA,NA,NA,NA,NA,NA,NA,NA,NA,FALSE,"VGG","E_F_angelina_jolie.jpg P_M_donald_trump.jpg"
NA,"E_F_angelina_jolie.jpg","P_M_george_Wbush.jpg",NA,NA,NA,NA,NA,0.924439996480942,NA,NA,NA,NA,NA,NA,NA,NA,NA,NA,FALSE,"VGG","E_F_angelina_jolie.jpg P_M_george_Wbush.jpg"
NA,"E_F_angelina_jolie.jpg","P_M_Tony_Blair.jpg",NA,NA,NA,NA,NA,0.816011279821396,NA,NA,NA,NA,NA,NA,NA,NA,NA,NA,FALSE,"VGG","E_F_angelina_jolie.jpg P_M_Tony_Blair.jpg"
NA,"E_F_jennifer_aniston.jpg","E_F_Judi_Dench.jpg",NA,NA,NA,NA,NA,0.875770412385464,NA,NA,NA,NA,NA,NA,NA,NA,NA,NA,FALSE,"VGG","E_F_jennifer_aniston.jpg E_F_Judi_Dench.jpg"
NA,"E_F_jennifer_aniston.jpg","E_F_Kate_Winslet.jpg",NA,NA,NA,NA,NA,0.786350592970848,NA,NA,NA,NA,NA,NA,NA,NA,NA,NA,FALSE,"VGG","E_F_jennifer_aniston.jpg E_F_Kate_Winslet.jpg"
NA,"E_F_jennifer_aniston.jpg","E_F_keira_knightley.jpg",NA,NA,NA,NA,NA,0.779793724417686,NA,NA,NA,NA,NA,NA,NA,NA,NA,NA,FALSE,"VGG","E_F_jennifer_aniston.jpg E_F_keira_knightley.jpg"
NA,"E_F_jennifer_aniston.jpg","E_F_sandra_bullock.jpg",NA,NA,NA,NA,NA,0.753104746341705,NA,NA,NA,NA,NA,NA,NA,NA,NA,NA,FALSE,"VGG","E_F_jennifer_aniston.jpg E_F_sandra_bullock.jpg"
NA,"E_F_jennifer_aniston.jpg","E_M_anthony_hopkins.jpg",NA,NA,NA,NA,NA,0.904956690967083,NA,NA,NA,NA,NA,NA,NA,NA,NA,NA,FALSE,"VGG","E_F_jennifer_aniston.jpg E_M_anthony_hopkins.jpg"
NA,"E_F_jennifer_aniston.jpg","E_M_Hugh_Grant.jpg",NA,NA,NA,NA,NA,0.819945320487022,NA,NA,NA,NA,NA,NA,NA,NA,NA,NA,FALSE,"VGG","E_F_jennifer_aniston.jpg E_M_Hugh_Grant.jpg"
NA,"E_F_jennifer_aniston.jpg","E_M_liam_neeson.jpg",NA,NA,NA,NA,NA,0.849534541368484,NA,NA,NA,NA,NA,NA,NA,NA,NA,NA,FALSE,"VGG","E_F_jennifer_aniston.jpg E_M_liam_neeson.jpg"
NA,"E_F_jennifer_aniston.jpg","E_M_Martin_Freeman.jpg",NA,NA,NA,NA,NA,0.791472971439362,NA,NA,NA,NA,NA,NA,NA,NA,NA,NA,FALSE,"VGG","E_F_jennifer_aniston.jpg E_M_Martin_Freeman.jpg"
NA,"E_F_jennifer_aniston.jpg","E_M_michael_caine.jpg",NA,NA,NA,NA,NA,0.886515833437443,NA,NA,NA,NA,NA,NA,NA,NA,NA,NA,FALSE,"VGG","E_F_jennifer_aniston.jpg E_M_michael_caine.jpg"
NA,"E_F_jennifer_aniston.jpg","E_M_nicolas_cage.jpg",NA,NA,NA,NA,NA,0.825012788176537,NA,NA,NA,NA,NA,NA,NA,NA,NA,NA,FALSE,"VGG","E_F_jennifer_aniston.jpg E_M_nicolas_cage.jpg"
NA,"E_F_jennifer_aniston.jpg","E_M_robert_de_niro.jpg",NA,NA,NA,NA,NA,0.904430009424686,NA,NA,NA,NA,NA,NA,NA,NA,NA,NA,FALSE,"VGG","E_F_jennifer_aniston.jpg E_M_robert_de_niro.jpg"
NA,"E_F_jennifer_aniston.jpg","E_M_tom_hankes.jpg",NA,NA,NA,NA,NA,0.863686814904213,NA,NA,NA,NA,NA,NA,NA,NA,NA,NA,FALSE,"VGG","E_F_jennifer_aniston.jpg E_M_tom_hankes.jpg"
NA,"E_F_jennifer_aniston.jpg","P_F_angela_rayner.jpg",NA,NA,NA,NA,NA,0.849912285804749,NA,NA,NA,NA,NA,NA,NA,NA,NA,NA,FALSE,"VGG","E_F_jennifer_aniston.jpg P_F_angela_rayner.jpg"
NA,"E_F_jennifer_aniston.jpg","P_F_esther_mcvey.jpg",NA,NA,NA,NA,NA,0.776845350861549,NA,NA,NA,NA,NA,NA,NA,NA,NA,NA,FALSE,"VGG","E_F_jennifer_aniston.jpg P_F_esther_mcvey.jpg"
NA,"E_F_jennifer_aniston.jpg","P_F_hillary_clinton.jpg",NA,NA,NA,NA,NA,0.755017712712288,NA,NA,NA,NA,NA,NA,NA,NA,NA,NA,FALSE,"VGG","E_F_jennifer_aniston.jpg P_F_hillary_clinton.jpg"
NA,"E_F_jennifer_aniston.jpg","P_F_nicola_sturgeon.jpg",NA,NA,NA,NA,NA,0.773772180080414,NA,NA,NA,NA,NA,NA,NA,NA,NA,NA,FALSE,"VGG","E_F_jennifer_aniston.jpg P_F_nicola_sturgeon.jpg"
NA,"E_F_jennifer_aniston.jpg","P_F_PRITI_PATEL.jpg",NA,NA,NA,NA,NA,0.795684888958931,NA,NA,NA,NA,NA,NA,NA,NA,NA,NA,FALSE,"VGG","E_F_jennifer_aniston.jpg P_F_PRITI_PATEL.jpg"
NA,"E_F_jennifer_aniston.jpg","P_F_tehresy_may.jpg",NA,NA,NA,NA,NA,0.877244859933853,NA,NA,NA,NA,NA,NA,NA,NA,NA,NA,FALSE,"VGG","E_F_jennifer_aniston.jpg P_F_tehresy_may.jpg"
NA,"E_F_jennifer_aniston.jpg","P_M_bill_clinton.jpg",NA,NA,NA,NA,NA,0.833189979195595,NA,NA,NA,NA,NA,NA,NA,NA,NA,NA,FALSE,"VGG","E_F_jennifer_aniston.jpg P_M_bill_clinton.jpg"
NA,"E_F_jennifer_aniston.jpg","P_M_boris_johnson.jpg",NA,NA,NA,NA,NA,0.906261496245861,NA,NA,NA,NA,NA,NA,NA,NA,NA,NA,FALSE,"VGG","E_F_jennifer_aniston.jpg P_M_boris_johnson.jpg"
NA,"E_F_jennifer_aniston.jpg","P_M_david_cameron.jpg",NA,NA,NA,NA,NA,0.830894142389297,NA,NA,NA,NA,NA,NA,NA,NA,NA,NA,FALSE,"VGG","E_F_jennifer_aniston.jpg P_M_david_cameron.jpg"
NA,"E_F_jennifer_aniston.jpg","P_M_donald_trump.jpg",NA,NA,NA,NA,NA,0.874786034226418,NA,NA,NA,NA,NA,NA,NA,NA,NA,NA,FALSE,"VGG","E_F_jennifer_aniston.jpg P_M_donald_trump.jpg"
NA,"E_F_jennifer_aniston.jpg","P_M_george_Wbush.jpg",NA,NA,NA,NA,NA,0.894948467612267,NA,NA,NA,NA,NA,NA,NA,NA,NA,NA,FALSE,"VGG","E_F_jennifer_aniston.jpg P_M_george_Wbush.jpg"
NA,"E_F_jennifer_aniston.jpg","P_M_Tony_Blair.jpg",NA,NA,NA,NA,NA,0.919105030596256,NA,NA,NA,NA,NA,NA,NA,NA,NA,NA,FALSE,"VGG","E_F_jennifer_aniston.jpg P_M_Tony_Blair.jpg"
NA,"E_F_Judi_Dench.jpg","E_F_Kate_Winslet.jpg",NA,NA,NA,NA,NA,0.884823456406593,NA,NA,NA,NA,NA,NA,NA,NA,NA,NA,FALSE,"VGG","E_F_Judi_Dench.jpg E_F_Kate_Winslet.jpg"
NA,"E_F_Judi_Dench.jpg","E_F_keira_knightley.jpg",NA,NA,NA,NA,NA,0.936596557497978,NA,NA,NA,NA,NA,NA,NA,NA,NA,NA,FALSE,"VGG","E_F_Judi_Dench.jpg E_F_keira_knightley.jpg"
NA,"E_F_Judi_Dench.jpg","E_F_sandra_bullock.jpg",NA,NA,NA,NA,NA,0.905148945748806,NA,NA,NA,NA,NA,NA,NA,NA,NA,NA,FALSE,"VGG","E_F_Judi_Dench.jpg E_F_sandra_bullock.jpg"
NA,"E_F_Judi_Dench.jpg","E_M_anthony_hopkins.jpg",NA,NA,NA,NA,NA,0.812449306249619,NA,NA,NA,NA,NA,NA,NA,NA,NA,NA,FALSE,"VGG","E_F_Judi_Dench.jpg E_M_anthony_hopkins.jpg"
NA,"E_F_Judi_Dench.jpg","E_M_Hugh_Grant.jpg",NA,NA,NA,NA,NA,0.888524770736694,NA,NA,NA,NA,NA,NA,NA,NA,NA,NA,FALSE,"VGG","E_F_Judi_Dench.jpg E_M_Hugh_Grant.jpg"
NA,"E_F_Judi_Dench.jpg","E_M_liam_neeson.jpg",NA,NA,NA,NA,NA,0.907026052474976,NA,NA,NA,NA,NA,NA,NA,NA,NA,NA,FALSE,"VGG","E_F_Judi_Dench.jpg E_M_liam_neeson.jpg"
NA,"E_F_Judi_Dench.jpg","E_M_Martin_Freeman.jpg",NA,NA,NA,NA,NA,0.843560889363289,NA,NA,NA,NA,NA,NA,NA,NA,NA,NA,FALSE,"VGG","E_F_Judi_Dench.jpg E_M_Martin_Freeman.jpg"
NA,"E_F_Judi_Dench.jpg","E_M_michael_caine.jpg",NA,NA,NA,NA,NA,0.917227253317833,NA,NA,NA,NA,NA,NA,NA,NA,NA,NA,FALSE,"VGG","E_F_Judi_Dench.jpg E_M_michael_caine.jpg"
NA,"E_F_Judi_Dench.jpg","E_M_nicolas_cage.jpg",NA,NA,NA,NA,NA,0.940571572631598,NA,NA,NA,NA,NA,NA,NA,NA,NA,NA,FALSE,"VGG","E_F_Judi_Dench.jpg E_M_nicolas_cage.jpg"
NA,"E_F_Judi_Dench.jpg","E_M_robert_de_niro.jpg",NA,NA,NA,NA,NA,0.953982226550579,NA,NA,NA,NA,NA,NA,NA,NA,NA,NA,FALSE,"VGG","E_F_Judi_Dench.jpg E_M_robert_de_niro.jpg"
NA,"E_F_Judi_Dench.jpg","E_M_tom_hankes.jpg",NA,NA,NA,NA,NA,0.880596786737442,NA,NA,NA,NA,NA,NA,NA,NA,NA,NA,FALSE,"VGG","E_F_Judi_Dench.jpg E_M_tom_hankes.jpg"
NA,"E_F_Judi_Dench.jpg","P_F_angela_rayner.jpg",NA,NA,NA,NA,NA,0.875717058777809,NA,NA,NA,NA,NA,NA,NA,NA,NA,NA,FALSE,"VGG","E_F_Judi_Dench.jpg P_F_angela_rayner.jpg"
NA,"E_F_Judi_Dench.jpg","P_F_esther_mcvey.jpg",NA,NA,NA,NA,NA,0.769552126526833,NA,NA,NA,NA,NA,NA,NA,NA,NA,NA,FALSE,"VGG","E_F_Judi_Dench.jpg P_F_esther_mcvey.jpg"
NA,"E_F_Judi_Dench.jpg","P_F_hillary_clinton.jpg",NA,NA,NA,NA,NA,0.789453893899918,NA,NA,NA,NA,NA,NA,NA,NA,NA,NA,FALSE,"VGG","E_F_Judi_Dench.jpg P_F_hillary_clinton.jpg"
NA,"E_F_Judi_Dench.jpg","P_F_nicola_sturgeon.jpg",NA,NA,NA,NA,NA,0.692578136920929,NA,NA,NA,NA,NA,NA,NA,NA,NA,NA,FALSE,"VGG","E_F_Judi_Dench.jpg P_F_nicola_sturgeon.jpg"
NA,"E_F_Judi_Dench.jpg","P_F_PRITI_PATEL.jpg",NA,NA,NA,NA,NA,0.907349087297916,NA,NA,NA,NA,NA,NA,NA,NA,NA,NA,FALSE,"VGG","E_F_Judi_Dench.jpg P_F_PRITI_PATEL.jpg"
NA,"E_F_Judi_Dench.jpg","P_F_tehresy_may.jpg",NA,NA,NA,NA,NA,0.746959298849106,NA,NA,NA,NA,NA,NA,NA,NA,NA,NA,FALSE,"VGG","E_F_Judi_Dench.jpg P_F_tehresy_may.jpg"
NA,"E_F_Judi_Dench.jpg","P_M_bill_clinton.jpg",NA,NA,NA,NA,NA,0.830715090036392,NA,NA,NA,NA,NA,NA,NA,NA,NA,NA,FALSE,"VGG","E_F_Judi_Dench.jpg P_M_bill_clinton.jpg"
NA,"E_F_Judi_Dench.jpg","P_M_boris_johnson.jpg",NA,NA,NA,NA,NA,0.748350292444229,NA,NA,NA,NA,NA,NA,NA,NA,NA,NA,FALSE,"VGG","E_F_Judi_Dench.jpg P_M_boris_johnson.jpg"
NA,"E_F_Judi_Dench.jpg","P_M_david_cameron.jpg",NA,NA,NA,NA,NA,0.832235932350159,NA,NA,NA,NA,NA,NA,NA,NA,NA,NA,FALSE,"VGG","E_F_Judi_Dench.jpg P_M_david_cameron.jpg"
NA,"E_F_Judi_Dench.jpg","P_M_donald_trump.jpg",NA,NA,NA,NA,NA,0.731947779655457,NA,NA,NA,NA,NA,NA,NA,NA,NA,NA,FALSE,"VGG","E_F_Judi_Dench.jpg P_M_donald_trump.jpg"
NA,"E_F_Judi_Dench.jpg","P_M_george_Wbush.jpg",NA,NA,NA,NA,NA,0.853990837931633,NA,NA,NA,NA,NA,NA,NA,NA,NA,NA,FALSE,"VGG","E_F_Judi_Dench.jpg P_M_george_Wbush.jpg"
NA,"E_F_Judi_Dench.jpg","P_M_Tony_Blair.jpg",NA,NA,NA,NA,NA,0.831099003553391,NA,NA,NA,NA,NA,NA,NA,NA,NA,NA,FALSE,"VGG","E_F_Judi_Dench.jpg P_M_Tony_Blair.jpg"
NA,"E_F_Kate_Winslet.jpg","E_F_keira_knightley.jpg",NA,NA,NA,NA,NA,0.75587172806263,NA,NA,NA,NA,NA,NA,NA,NA,NA,NA,FALSE,"VGG","E_F_Kate_Winslet.jpg E_F_keira_knightley.jpg"
NA,"E_F_Kate_Winslet.jpg","E_F_sandra_bullock.jpg",NA,NA,NA,NA,NA,0.807553753256798,NA,NA,NA,NA,NA,NA,NA,NA,NA,NA,FALSE,"VGG","E_F_Kate_Winslet.jpg E_F_sandra_bullock.jpg"
NA,"E_F_Kate_Winslet.jpg","E_M_anthony_hopkins.jpg",NA,NA,NA,NA,NA,0.888251945376396,NA,NA,NA,NA,NA,NA,NA,NA,NA,NA,FALSE,"VGG","E_F_Kate_Winslet.jpg E_M_anthony_hopkins.jpg"
NA,"E_F_Kate_Winslet.jpg","E_M_Hugh_Grant.jpg",NA,NA,NA,NA,NA,0.91263697296381,NA,NA,NA,NA,NA,NA,NA,NA,NA,NA,FALSE,"VGG","E_F_Kate_Winslet.jpg E_M_Hugh_Grant.jpg"
NA,"E_F_Kate_Winslet.jpg","E_M_liam_neeson.jpg",NA,NA,NA,NA,NA,0.896799132227898,NA,NA,NA,NA,NA,NA,NA,NA,NA,NA,FALSE,"VGG","E_F_Kate_Winslet.jpg E_M_liam_neeson.jpg"
NA,"E_F_Kate_Winslet.jpg","E_M_Martin_Freeman.jpg",NA,NA,NA,NA,NA,0.898106373846531,NA,NA,NA,NA,NA,NA,NA,NA,NA,NA,FALSE,"VGG","E_F_Kate_Winslet.jpg E_M_Martin_Freeman.jpg"
NA,"E_F_Kate_Winslet.jpg","E_M_michael_caine.jpg",NA,NA,NA,NA,NA,0.881504632532597,NA,NA,NA,NA,NA,NA,NA,NA,NA,NA,FALSE,"VGG","E_F_Kate_Winslet.jpg E_M_michael_caine.jpg"
NA,"E_F_Kate_Winslet.jpg","E_M_nicolas_cage.jpg",NA,NA,NA,NA,NA,0.817426010966301,NA,NA,NA,NA,NA,NA,NA,NA,NA,NA,FALSE,"VGG","E_F_Kate_Winslet.jpg E_M_nicolas_cage.jpg"
NA,"E_F_Kate_Winslet.jpg","E_M_robert_de_niro.jpg",NA,NA,NA,NA,NA,0.911984883248806,NA,NA,NA,NA,NA,NA,NA,NA,NA,NA,FALSE,"VGG","E_F_Kate_Winslet.jpg E_M_robert_de_niro.jpg"
NA,"E_F_Kate_Winslet.jpg","E_M_tom_hankes.jpg",NA,NA,NA,NA,NA,0.866106405854225,NA,NA,NA,NA,NA,NA,NA,NA,NA,NA,FALSE,"VGG","E_F_Kate_Winslet.jpg E_M_tom_hankes.jpg"
NA,"E_F_Kate_Winslet.jpg","P_F_angela_rayner.jpg",NA,NA,NA,NA,NA,0.717423111200333,NA,NA,NA,NA,NA,NA,NA,NA,NA,NA,FALSE,"VGG","E_F_Kate_Winslet.jpg P_F_angela_rayner.jpg"
NA,"E_F_Kate_Winslet.jpg","P_F_esther_mcvey.jpg",NA,NA,NA,NA,NA,0.837192967534065,NA,NA,NA,NA,NA,NA,NA,NA,NA,NA,FALSE,"VGG","E_F_Kate_Winslet.jpg P_F_esther_mcvey.jpg"
NA,"E_F_Kate_Winslet.jpg","P_F_hillary_clinton.jpg",NA,NA,NA,NA,NA,0.790446937084198,NA,NA,NA,NA,NA,NA,NA,NA,NA,NA,FALSE,"VGG","E_F_Kate_Winslet.jpg P_F_hillary_clinton.jpg"
NA,"E_F_Kate_Winslet.jpg","P_F_nicola_sturgeon.jpg",NA,NA,NA,NA,NA,0.913972243666649,NA,NA,NA,NA,NA,NA,NA,NA,NA,NA,FALSE,"VGG","E_F_Kate_Winslet.jpg P_F_nicola_sturgeon.jpg"
NA,"E_F_Kate_Winslet.jpg","P_F_PRITI_PATEL.jpg",NA,NA,NA,NA,NA,0.781420946121216,NA,NA,NA,NA,NA,NA,NA,NA,NA,NA,FALSE,"VGG","E_F_Kate_Winslet.jpg P_F_PRITI_PATEL.jpg"
NA,"E_F_Kate_Winslet.jpg","P_F_tehresy_may.jpg",NA,NA,NA,NA,NA,0.964474618434906,NA,NA,NA,NA,NA,NA,NA,NA,NA,NA,FALSE,"VGG","E_F_Kate_Winslet.jpg P_F_tehresy_may.jpg"
NA,"E_F_Kate_Winslet.jpg","P_M_bill_clinton.jpg",NA,NA,NA,NA,NA,0.955429408699274,NA,NA,NA,NA,NA,NA,NA,NA,NA,NA,FALSE,"VGG","E_F_Kate_Winslet.jpg P_M_bill_clinton.jpg"
NA,"E_F_Kate_Winslet.jpg","P_M_boris_johnson.jpg",NA,NA,NA,NA,NA,0.951449677348137,NA,NA,NA,NA,NA,NA,NA,NA,NA,NA,FALSE,"VGG","E_F_Kate_Winslet.jpg P_M_boris_johnson.jpg"
NA,"E_F_Kate_Winslet.jpg","P_M_david_cameron.jpg",NA,NA,NA,NA,NA,0.894817769527435,NA,NA,NA,NA,NA,NA,NA,NA,NA,NA,FALSE,"VGG","E_F_Kate_Winslet.jpg P_M_david_cameron.jpg"
NA,"E_F_Kate_Winslet.jpg","P_M_donald_trump.jpg",NA,NA,NA,NA,NA,0.923134453594685,NA,NA,NA,NA,NA,NA,NA,NA,NA,NA,FALSE,"VGG","E_F_Kate_Winslet.jpg P_M_donald_trump.jpg"
NA,"E_F_Kate_Winslet.jpg","P_M_george_Wbush.jpg",NA,NA,NA,NA,NA,0.795047447085381,NA,NA,NA,NA,NA,NA,NA,NA,NA,NA,FALSE,"VGG","E_F_Kate_Winslet.jpg P_M_george_Wbush.jpg"
NA,"E_F_Kate_Winslet.jpg","P_M_Tony_Blair.jpg",NA,NA,NA,NA,NA,0.869617521762848,NA,NA,NA,NA,NA,NA,NA,NA,NA,NA,FALSE,"VGG","E_F_Kate_Winslet.jpg P_M_Tony_Blair.jpg"
NA,"E_F_keira_knightley.jpg","E_F_sandra_bullock.jpg",NA,NA,NA,NA,NA,0.803813934326172,NA,NA,NA,NA,NA,NA,NA,NA,NA,NA,FALSE,"VGG","E_F_keira_knightley.jpg E_F_sandra_bullock.jpg"
NA,"E_F_keira_knightley.jpg","E_M_anthony_hopkins.jpg",NA,NA,NA,NA,NA,0.965259648859501,NA,NA,NA,NA,NA,NA,NA,NA,NA,NA,FALSE,"VGG","E_F_keira_knightley.jpg E_M_anthony_hopkins.jpg"
NA,"E_F_keira_knightley.jpg","E_M_Hugh_Grant.jpg",NA,NA,NA,NA,NA,0.840191870927811,NA,NA,NA,NA,NA,NA,NA,NA,NA,NA,FALSE,"VGG","E_F_keira_knightley.jpg E_M_Hugh_Grant.jpg"
NA,"E_F_keira_knightley.jpg","E_M_liam_neeson.jpg",NA,NA,NA,NA,NA,0.878427259624004,NA,NA,NA,NA,NA,NA,NA,NA,NA,NA,FALSE,"VGG","E_F_keira_knightley.jpg E_M_liam_neeson.jpg"
NA,"E_F_keira_knightley.jpg","E_M_Martin_Freeman.jpg",NA,NA,NA,NA,NA,0.898581720888615,NA,NA,NA,NA,NA,NA,NA,NA,NA,NA,FALSE,"VGG","E_F_keira_knightley.jpg E_M_Martin_Freeman.jpg"
NA,"E_F_keira_knightley.jpg","E_M_michael_caine.jpg",NA,NA,NA,NA,NA,0.88745404034853,NA,NA,NA,NA,NA,NA,NA,NA,NA,NA,FALSE,"VGG","E_F_keira_knightley.jpg E_M_michael_caine.jpg"
NA,"E_F_keira_knightley.jpg","E_M_nicolas_cage.jpg",NA,NA,NA,NA,NA,0.898928783833981,NA,NA,NA,NA,NA,NA,NA,NA,NA,NA,FALSE,"VGG","E_F_keira_knightley.jpg E_M_nicolas_cage.jpg"
NA,"E_F_keira_knightley.jpg","E_M_robert_de_niro.jpg",NA,NA,NA,NA,NA,0.913489446043968,NA,NA,NA,NA,NA,NA,NA,NA,NA,NA,FALSE,"VGG","E_F_keira_knightley.jpg E_M_robert_de_niro.jpg"
NA,"E_F_keira_knightley.jpg","E_M_tom_hankes.jpg",NA,NA,NA,NA,NA,0.929776079952717,NA,NA,NA,NA,NA,NA,NA,NA,NA,NA,FALSE,"VGG","E_F_keira_knightley.jpg E_M_tom_hankes.jpg"
NA,"E_F_keira_knightley.jpg","P_F_angela_rayner.jpg",NA,NA,NA,NA,NA,0.76036873459816,NA,NA,NA,NA,NA,NA,NA,NA,NA,NA,FALSE,"VGG","E_F_keira_knightley.jpg P_F_angela_rayner.jpg"
NA,"E_F_keira_knightley.jpg","P_F_esther_mcvey.jpg",NA,NA,NA,NA,NA,0.921661615371704,NA,NA,NA,NA,NA,NA,NA,NA,NA,NA,FALSE,"VGG","E_F_keira_knightley.jpg P_F_esther_mcvey.jpg"
NA,"E_F_keira_knightley.jpg","P_F_hillary_clinton.jpg",NA,NA,NA,NA,NA,0.886099122464657,NA,NA,NA,NA,NA,NA,NA,NA,NA,NA,FALSE,"VGG","E_F_keira_knightley.jpg P_F_hillary_clinton.jpg"
NA,"E_F_keira_knightley.jpg","P_F_nicola_sturgeon.jpg",NA,NA,NA,NA,NA,0.8500607162714,NA,NA,NA,NA,NA,NA,NA,NA,NA,NA,FALSE,"VGG","E_F_keira_knightley.jpg P_F_nicola_sturgeon.jpg"
NA,"E_F_keira_knightley.jpg","P_F_PRITI_PATEL.jpg",NA,NA,NA,NA,NA,0.73652184009552,NA,NA,NA,NA,NA,NA,NA,NA,NA,NA,FALSE,"VGG","E_F_keira_knightley.jpg P_F_PRITI_PATEL.jpg"
NA,"E_F_keira_knightley.jpg","P_F_tehresy_may.jpg",NA,NA,NA,NA,NA,0.901303365826607,NA,NA,NA,NA,NA,NA,NA,NA,NA,NA,FALSE,"VGG","E_F_keira_knightley.jpg P_F_tehresy_may.jpg"
NA,"E_F_keira_knightley.jpg","P_M_bill_clinton.jpg",NA,NA,NA,NA,NA,0.904165983200073,NA,NA,NA,NA,NA,NA,NA,NA,NA,NA,FALSE,"VGG","E_F_keira_knightley.jpg P_M_bill_clinton.jpg"
NA,"E_F_keira_knightley.jpg","P_M_boris_johnson.jpg",NA,NA,NA,NA,NA,0.973759246990085,NA,NA,NA,NA,NA,NA,NA,NA,NA,NA,FALSE,"VGG","E_F_keira_knightley.jpg P_M_boris_johnson.jpg"
NA,"E_F_keira_knightley.jpg","P_M_david_cameron.jpg",NA,NA,NA,NA,NA,0.905825890600681,NA,NA,NA,NA,NA,NA,NA,NA,NA,NA,FALSE,"VGG","E_F_keira_knightley.jpg P_M_david_cameron.jpg"
NA,"E_F_keira_knightley.jpg","P_M_donald_trump.jpg",NA,NA,NA,NA,NA,0.960649751126766,NA,NA,NA,NA,NA,NA,NA,NA,NA,NA,FALSE,"VGG","E_F_keira_knightley.jpg P_M_donald_trump.jpg"
NA,"E_F_keira_knightley.jpg","P_M_george_Wbush.jpg",NA,NA,NA,NA,NA,0.837806209921837,NA,NA,NA,NA,NA,NA,NA,NA,NA,NA,FALSE,"VGG","E_F_keira_knightley.jpg P_M_george_Wbush.jpg"
NA,"E_F_keira_knightley.jpg","P_M_Tony_Blair.jpg",NA,NA,NA,NA,NA,0.823019489645958,NA,NA,NA,NA,NA,NA,NA,NA,NA,NA,FALSE,"VGG","E_F_keira_knightley.jpg P_M_Tony_Blair.jpg"
NA,"E_F_sandra_bullock.jpg","E_M_anthony_hopkins.jpg",NA,NA,NA,NA,NA,0.921958111226559,NA,NA,NA,NA,NA,NA,NA,NA,NA,NA,FALSE,"VGG","E_F_sandra_bullock.jpg E_M_anthony_hopkins.jpg"
NA,"E_F_sandra_bullock.jpg","E_M_Hugh_Grant.jpg",NA,NA,NA,NA,NA,0.843267410993576,NA,NA,NA,NA,NA,NA,NA,NA,NA,NA,FALSE,"VGG","E_F_sandra_bullock.jpg E_M_Hugh_Grant.jpg"
NA,"E_F_sandra_bullock.jpg","E_M_liam_neeson.jpg",NA,NA,NA,NA,NA,0.839981585741043,NA,NA,NA,NA,NA,NA,NA,NA,NA,NA,FALSE,"VGG","E_F_sandra_bullock.jpg E_M_liam_neeson.jpg"
NA,"E_F_sandra_bullock.jpg","E_M_Martin_Freeman.jpg",NA,NA,NA,NA,NA,0.750108689069748,NA,NA,NA,NA,NA,NA,NA,NA,NA,NA,FALSE,"VGG","E_F_sandra_bullock.jpg E_M_Martin_Freeman.jpg"
NA,"E_F_sandra_bullock.jpg","E_M_michael_caine.jpg",NA,NA,NA,NA,NA,0.943735130131245,NA,NA,NA,NA,NA,NA,NA,NA,NA,NA,FALSE,"VGG","E_F_sandra_bullock.jpg E_M_michael_caine.jpg"
NA,"E_F_sandra_bullock.jpg","E_M_nicolas_cage.jpg",NA,NA,NA,NA,NA,0.898012198507786,NA,NA,NA,NA,NA,NA,NA,NA,NA,NA,FALSE,"VGG","E_F_sandra_bullock.jpg E_M_nicolas_cage.jpg"
NA,"E_F_sandra_bullock.jpg","E_M_robert_de_niro.jpg",NA,NA,NA,NA,NA,0.918136410415173,NA,NA,NA,NA,NA,NA,NA,NA,NA,NA,FALSE,"VGG","E_F_sandra_bullock.jpg E_M_robert_de_niro.jpg"
NA,"E_F_sandra_bullock.jpg","E_M_tom_hankes.jpg",NA,NA,NA,NA,NA,0.868753895163536,NA,NA,NA,NA,NA,NA,NA,NA,NA,NA,FALSE,"VGG","E_F_sandra_bullock.jpg E_M_tom_hankes.jpg"
NA,"E_F_sandra_bullock.jpg","P_F_angela_rayner.jpg",NA,NA,NA,NA,NA,0.703189790248871,NA,NA,NA,NA,NA,NA,NA,NA,NA,NA,FALSE,"VGG","E_F_sandra_bullock.jpg P_F_angela_rayner.jpg"
NA,"E_F_sandra_bullock.jpg","P_F_esther_mcvey.jpg",NA,NA,NA,NA,NA,0.928183563053608,NA,NA,NA,NA,NA,NA,NA,NA,NA,NA,FALSE,"VGG","E_F_sandra_bullock.jpg P_F_esther_mcvey.jpg"
NA,"E_F_sandra_bullock.jpg","P_F_hillary_clinton.jpg",NA,NA,NA,NA,NA,0.863345101475716,NA,NA,NA,NA,NA,NA,NA,NA,NA,NA,FALSE,"VGG","E_F_sandra_bullock.jpg P_F_hillary_clinton.jpg"
NA,"E_F_sandra_bullock.jpg","P_F_nicola_sturgeon.jpg",NA,NA,NA,NA,NA,0.874775782227516,NA,NA,NA,NA,NA,NA,NA,NA,NA,NA,FALSE,"VGG","E_F_sandra_bullock.jpg P_F_nicola_sturgeon.jpg"
NA,"E_F_sandra_bullock.jpg","P_F_PRITI_PATEL.jpg",NA,NA,NA,NA,NA,0.717664539813995,NA,NA,NA,NA,NA,NA,NA,NA,NA,NA,FALSE,"VGG","E_F_sandra_bullock.jpg P_F_PRITI_PATEL.jpg"
NA,"E_F_sandra_bullock.jpg","P_F_tehresy_may.jpg",NA,NA,NA,NA,NA,0.924401313066483,NA,NA,NA,NA,NA,NA,NA,NA,NA,NA,FALSE,"VGG","E_F_sandra_bullock.jpg P_F_tehresy_may.jpg"
NA,"E_F_sandra_bullock.jpg","P_M_bill_clinton.jpg",NA,NA,NA,NA,NA,0.938146010041237,NA,NA,NA,NA,NA,NA,NA,NA,NA,NA,FALSE,"VGG","E_F_sandra_bullock.jpg P_M_bill_clinton.jpg"
NA,"E_F_sandra_bullock.jpg","P_M_boris_johnson.jpg",NA,NA,NA,NA,NA,0.949524562805891,NA,NA,NA,NA,NA,NA,NA,NA,NA,NA,FALSE,"VGG","E_F_sandra_bullock.jpg P_M_boris_johnson.jpg"
NA,"E_F_sandra_bullock.jpg","P_M_david_cameron.jpg",NA,NA,NA,NA,NA,0.94440908357501,NA,NA,NA,NA,NA,NA,NA,NA,NA,NA,FALSE,"VGG","E_F_sandra_bullock.jpg P_M_david_cameron.jpg"
NA,"E_F_sandra_bullock.jpg","P_M_donald_trump.jpg",NA,NA,NA,NA,NA,0.842556446790695,NA,NA,NA,NA,NA,NA,NA,NA,NA,NA,FALSE,"VGG","E_F_sandra_bullock.jpg P_M_donald_trump.jpg"
NA,"E_F_sandra_bullock.jpg","P_M_george_Wbush.jpg",NA,NA,NA,NA,NA,0.916851833462715,NA,NA,NA,NA,NA,NA,NA,NA,NA,NA,FALSE,"VGG","E_F_sandra_bullock.jpg P_M_george_Wbush.jpg"
NA,"E_F_sandra_bullock.jpg","P_M_Tony_Blair.jpg",NA,NA,NA,NA,NA,0.836217686533928,NA,NA,NA,NA,NA,NA,NA,NA,NA,NA,FALSE,"VGG","E_F_sandra_bullock.jpg P_M_Tony_Blair.jpg"
NA,"E_M_anthony_hopkins.jpg","E_M_Hugh_Grant.jpg",NA,NA,NA,NA,NA,0.862855285406113,NA,NA,NA,NA,NA,NA,NA,NA,NA,NA,FALSE,"VGG","E_M_anthony_hopkins.jpg E_M_Hugh_Grant.jpg"
NA,"E_M_anthony_hopkins.jpg","E_M_liam_neeson.jpg",NA,NA,NA,NA,NA,0.908259943127632,NA,NA,NA,NA,NA,NA,NA,NA,NA,NA,FALSE,"VGG","E_M_anthony_hopkins.jpg E_M_liam_neeson.jpg"
NA,"E_M_anthony_hopkins.jpg","E_M_Martin_Freeman.jpg",NA,NA,NA,NA,NA,0.915700443089008,NA,NA,NA,NA,NA,NA,NA,NA,NA,NA,FALSE,"VGG","E_M_anthony_hopkins.jpg E_M_Martin_Freeman.jpg"
NA,"E_M_anthony_hopkins.jpg","E_M_michael_caine.jpg",NA,NA,NA,NA,NA,0.649105727672577,NA,NA,NA,NA,NA,NA,NA,NA,NA,NA,FALSE,"VGG","E_M_anthony_hopkins.jpg E_M_michael_caine.jpg"
NA,"E_M_anthony_hopkins.jpg","E_M_nicolas_cage.jpg",NA,NA,NA,NA,NA,0.89147000014782,NA,NA,NA,NA,NA,NA,NA,NA,NA,NA,FALSE,"VGG","E_M_anthony_hopkins.jpg E_M_nicolas_cage.jpg"
NA,"E_M_anthony_hopkins.jpg","E_M_robert_de_niro.jpg",NA,NA,NA,NA,NA,0.844404235482216,NA,NA,NA,NA,NA,NA,NA,NA,NA,NA,FALSE,"VGG","E_M_anthony_hopkins.jpg E_M_robert_de_niro.jpg"
NA,"E_M_anthony_hopkins.jpg","E_M_tom_hankes.jpg",NA,NA,NA,NA,NA,0.79593314230442,NA,NA,NA,NA,NA,NA,NA,NA,NA,NA,FALSE,"VGG","E_M_anthony_hopkins.jpg E_M_tom_hankes.jpg"
NA,"E_M_anthony_hopkins.jpg","P_F_angela_rayner.jpg",NA,NA,NA,NA,NA,0.83191841840744,NA,NA,NA,NA,NA,NA,NA,NA,NA,NA,FALSE,"VGG","E_M_anthony_hopkins.jpg P_F_angela_rayner.jpg"
NA,"E_M_anthony_hopkins.jpg","P_F_esther_mcvey.jpg",NA,NA,NA,NA,NA,0.810046702623367,NA,NA,NA,NA,NA,NA,NA,NA,NA,NA,FALSE,"VGG","E_M_anthony_hopkins.jpg P_F_esther_mcvey.jpg"
NA,"E_M_anthony_hopkins.jpg","P_F_hillary_clinton.jpg",NA,NA,NA,NA,NA,0.806657910346985,NA,NA,NA,NA,NA,NA,NA,NA,NA,NA,FALSE,"VGG","E_M_anthony_hopkins.jpg P_F_hillary_clinton.jpg"
NA,"E_M_anthony_hopkins.jpg","P_F_nicola_sturgeon.jpg",NA,NA,NA,NA,NA,0.806680172681808,NA,NA,NA,NA,NA,NA,NA,NA,NA,NA,FALSE,"VGG","E_M_anthony_hopkins.jpg P_F_nicola_sturgeon.jpg"
NA,"E_M_anthony_hopkins.jpg","P_F_PRITI_PATEL.jpg",NA,NA,NA,NA,NA,0.848265752196312,NA,NA,NA,NA,NA,NA,NA,NA,NA,NA,FALSE,"VGG","E_M_anthony_hopkins.jpg P_F_PRITI_PATEL.jpg"
NA,"E_M_anthony_hopkins.jpg","P_F_tehresy_may.jpg",NA,NA,NA,NA,NA,0.715871304273605,NA,NA,NA,NA,NA,NA,NA,NA,NA,NA,FALSE,"VGG","E_M_anthony_hopkins.jpg P_F_tehresy_may.jpg"
NA,"E_M_anthony_hopkins.jpg","P_M_bill_clinton.jpg",NA,NA,NA,NA,NA,0.939863543957472,NA,NA,NA,NA,NA,NA,NA,NA,NA,NA,FALSE,"VGG","E_M_anthony_hopkins.jpg P_M_bill_clinton.jpg"
NA,"E_M_anthony_hopkins.jpg","P_M_boris_johnson.jpg",NA,NA,NA,NA,NA,0.813636764883995,NA,NA,NA,NA,NA,NA,NA,NA,NA,NA,FALSE,"VGG","E_M_anthony_hopkins.jpg P_M_boris_johnson.jpg"
NA,"E_M_anthony_hopkins.jpg","P_M_david_cameron.jpg",NA,NA,NA,NA,NA,0.85531310737133,NA,NA,NA,NA,NA,NA,NA,NA,NA,NA,FALSE,"VGG","E_M_anthony_hopkins.jpg P_M_david_cameron.jpg"
NA,"E_M_anthony_hopkins.jpg","P_M_donald_trump.jpg",NA,NA,NA,NA,NA,0.642775028944016,NA,NA,NA,NA,NA,NA,NA,NA,NA,NA,FALSE,"VGG","E_M_anthony_hopkins.jpg P_M_donald_trump.jpg"
NA,"E_M_anthony_hopkins.jpg","P_M_george_Wbush.jpg",NA,NA,NA,NA,NA,0.822128966450691,NA,NA,NA,NA,NA,NA,NA,NA,NA,NA,FALSE,"VGG","E_M_anthony_hopkins.jpg P_M_george_Wbush.jpg"
NA,"E_M_anthony_hopkins.jpg","P_M_Tony_Blair.jpg",NA,NA,NA,NA,NA,0.701264381408691,NA,NA,NA,NA,NA,NA,NA,NA,NA,NA,FALSE,"VGG","E_M_anthony_hopkins.jpg P_M_Tony_Blair.jpg"
NA,"E_M_Hugh_Grant.jpg","E_M_liam_neeson.jpg",NA,NA,NA,NA,NA,0.860320717096329,NA,NA,NA,NA,NA,NA,NA,NA,NA,NA,FALSE,"VGG","E_M_Hugh_Grant.jpg E_M_liam_neeson.jpg"
NA,"E_M_Hugh_Grant.jpg","E_M_Martin_Freeman.jpg",NA,NA,NA,NA,NA,0.818784639239311,NA,NA,NA,NA,NA,NA,NA,NA,NA,NA,FALSE,"VGG","E_M_Hugh_Grant.jpg E_M_Martin_Freeman.jpg"
NA,"E_M_Hugh_Grant.jpg","E_M_michael_caine.jpg",NA,NA,NA,NA,NA,0.85818387567997,NA,NA,NA,NA,NA,NA,NA,NA,NA,NA,FALSE,"VGG","E_M_Hugh_Grant.jpg E_M_michael_caine.jpg"
NA,"E_M_Hugh_Grant.jpg","E_M_nicolas_cage.jpg",NA,NA,NA,NA,NA,0.833116412162781,NA,NA,NA,NA,NA,NA,NA,NA,NA,NA,FALSE,"VGG","E_M_Hugh_Grant.jpg E_M_nicolas_cage.jpg"
NA,"E_M_Hugh_Grant.jpg","E_M_robert_de_niro.jpg",NA,NA,NA,NA,NA,0.830154612660408,NA,NA,NA,NA,NA,NA,NA,NA,NA,NA,FALSE,"VGG","E_M_Hugh_Grant.jpg E_M_robert_de_niro.jpg"
NA,"E_M_Hugh_Grant.jpg","E_M_tom_hankes.jpg",NA,NA,NA,NA,NA,0.826829507946968,NA,NA,NA,NA,NA,NA,NA,NA,NA,NA,FALSE,"VGG","E_M_Hugh_Grant.jpg E_M_tom_hankes.jpg"
NA,"E_M_Hugh_Grant.jpg","P_F_angela_rayner.jpg",NA,NA,NA,NA,NA,0.813319653272629,NA,NA,NA,NA,NA,NA,NA,NA,NA,NA,FALSE,"VGG","E_M_Hugh_Grant.jpg P_F_angela_rayner.jpg"
NA,"E_M_Hugh_Grant.jpg","P_F_esther_mcvey.jpg",NA,NA,NA,NA,NA,0.854750245809555,NA,NA,NA,NA,NA,NA,NA,NA,NA,NA,FALSE,"VGG","E_M_Hugh_Grant.jpg P_F_esther_mcvey.jpg"
NA,"E_M_Hugh_Grant.jpg","P_F_hillary_clinton.jpg",NA,NA,NA,NA,NA,0.859425857663155,NA,NA,NA,NA,NA,NA,NA,NA,NA,NA,FALSE,"VGG","E_M_Hugh_Grant.jpg P_F_hillary_clinton.jpg"
NA,"E_M_Hugh_Grant.jpg","P_F_nicola_sturgeon.jpg",NA,NA,NA,NA,NA,0.882525429129601,NA,NA,NA,NA,NA,NA,NA,NA,NA,NA,FALSE,"VGG","E_M_Hugh_Grant.jpg P_F_nicola_sturgeon.jpg"
NA,"E_M_Hugh_Grant.jpg","P_F_PRITI_PATEL.jpg",NA,NA,NA,NA,NA,0.892929784953594,NA,NA,NA,NA,NA,NA,NA,NA,NA,NA,FALSE,"VGG","E_M_Hugh_Grant.jpg P_F_PRITI_PATEL.jpg"
NA,"E_M_Hugh_Grant.jpg","P_F_tehresy_may.jpg",NA,NA,NA,NA,NA,0.665226578712463,NA,NA,NA,NA,NA,NA,NA,NA,NA,NA,FALSE,"VGG","E_M_Hugh_Grant.jpg P_F_tehresy_may.jpg"
NA,"E_M_Hugh_Grant.jpg","P_M_bill_clinton.jpg",NA,NA,NA,NA,NA,0.725919961929321,NA,NA,NA,NA,NA,NA,NA,NA,NA,NA,FALSE,"VGG","E_M_Hugh_Grant.jpg P_M_bill_clinton.jpg"
NA,"E_M_Hugh_Grant.jpg","P_M_boris_johnson.jpg",NA,NA,NA,NA,NA,0.77364581823349,NA,NA,NA,NA,NA,NA,NA,NA,NA,NA,FALSE,"VGG","E_M_Hugh_Grant.jpg P_M_boris_johnson.jpg"
NA,"E_M_Hugh_Grant.jpg","P_M_david_cameron.jpg",NA,NA,NA,NA,NA,0.763841927051544,NA,NA,NA,NA,NA,NA,NA,NA,NA,NA,FALSE,"VGG","E_M_Hugh_Grant.jpg P_M_david_cameron.jpg"
NA,"E_M_Hugh_Grant.jpg","P_M_donald_trump.jpg",NA,NA,NA,NA,NA,0.825491309165955,NA,NA,NA,NA,NA,NA,NA,NA,NA,NA,FALSE,"VGG","E_M_Hugh_Grant.jpg P_M_donald_trump.jpg"
NA,"E_M_Hugh_Grant.jpg","P_M_george_Wbush.jpg",NA,NA,NA,NA,NA,0.901582203805447,NA,NA,NA,NA,NA,NA,NA,NA,NA,NA,FALSE,"VGG","E_M_Hugh_Grant.jpg P_M_george_Wbush.jpg"
NA,"E_M_Hugh_Grant.jpg","P_M_Tony_Blair.jpg",NA,NA,NA,NA,NA,0.843989551067352,NA,NA,NA,NA,NA,NA,NA,NA,NA,NA,FALSE,"VGG","E_M_Hugh_Grant.jpg P_M_Tony_Blair.jpg"
NA,"E_M_liam_neeson.jpg","E_M_Martin_Freeman.jpg",NA,NA,NA,NA,NA,0.800296798348427,NA,NA,NA,NA,NA,NA,NA,NA,NA,NA,FALSE,"VGG","E_M_liam_neeson.jpg E_M_Martin_Freeman.jpg"
NA,"E_M_liam_neeson.jpg","E_M_michael_caine.jpg",NA,NA,NA,NA,NA,0.92146074026823,NA,NA,NA,NA,NA,NA,NA,NA,NA,NA,FALSE,"VGG","E_M_liam_neeson.jpg E_M_michael_caine.jpg"
NA,"E_M_liam_neeson.jpg","E_M_nicolas_cage.jpg",NA,NA,NA,NA,NA,0.80258247256279,NA,NA,NA,NA,NA,NA,NA,NA,NA,NA,FALSE,"VGG","E_M_liam_neeson.jpg E_M_nicolas_cage.jpg"
NA,"E_M_liam_neeson.jpg","E_M_robert_de_niro.jpg",NA,NA,NA,NA,NA,0.799490198493004,NA,NA,NA,NA,NA,NA,NA,NA,NA,NA,FALSE,"VGG","E_M_liam_neeson.jpg E_M_robert_de_niro.jpg"
NA,"E_M_liam_neeson.jpg","E_M_tom_hankes.jpg",NA,NA,NA,NA,NA,0.845270186662674,NA,NA,NA,NA,NA,NA,NA,NA,NA,NA,FALSE,"VGG","E_M_liam_neeson.jpg E_M_tom_hankes.jpg"
NA,"E_M_liam_neeson.jpg","P_F_angela_rayner.jpg",NA,NA,NA,NA,NA,0.897487044334412,NA,NA,NA,NA,NA,NA,NA,NA,NA,NA,FALSE,"VGG","E_M_liam_neeson.jpg P_F_angela_rayner.jpg"
NA,"E_M_liam_neeson.jpg","P_F_esther_mcvey.jpg",NA,NA,NA,NA,NA,0.844350531697273,NA,NA,NA,NA,NA,NA,NA,NA,NA,NA,FALSE,"VGG","E_M_liam_neeson.jpg P_F_esther_mcvey.jpg"
NA,"E_M_liam_neeson.jpg","P_F_hillary_clinton.jpg",NA,NA,NA,NA,NA,0.813203662633896,NA,NA,NA,NA,NA,NA,NA,NA,NA,NA,FALSE,"VGG","E_M_liam_neeson.jpg P_F_hillary_clinton.jpg"
NA,"E_M_liam_neeson.jpg","P_F_nicola_sturgeon.jpg",NA,NA,NA,NA,NA,0.802472069859505,NA,NA,NA,NA,NA,NA,NA,NA,NA,NA,FALSE,"VGG","E_M_liam_neeson.jpg P_F_nicola_sturgeon.jpg"
NA,"E_M_liam_neeson.jpg","P_F_PRITI_PATEL.jpg",NA,NA,NA,NA,NA,0.914287604391575,NA,NA,NA,NA,NA,NA,NA,NA,NA,NA,FALSE,"VGG","E_M_liam_neeson.jpg P_F_PRITI_PATEL.jpg"
NA,"E_M_liam_neeson.jpg","P_F_tehresy_may.jpg",NA,NA,NA,NA,NA,0.933086529374123,NA,NA,NA,NA,NA,NA,NA,NA,NA,NA,FALSE,"VGG","E_M_liam_neeson.jpg P_F_tehresy_may.jpg"
NA,"E_M_liam_neeson.jpg","P_M_bill_clinton.jpg",NA,NA,NA,NA,NA,0.752523422241211,NA,NA,NA,NA,NA,NA,NA,NA,NA,NA,FALSE,"VGG","E_M_liam_neeson.jpg P_M_bill_clinton.jpg"
NA,"E_M_liam_neeson.jpg","P_M_boris_johnson.jpg",NA,NA,NA,NA,NA,0.827874734997749,NA,NA,NA,NA,NA,NA,NA,NA,NA,NA,FALSE,"VGG","E_M_liam_neeson.jpg P_M_boris_johnson.jpg"
NA,"E_M_liam_neeson.jpg","P_M_david_cameron.jpg",NA,NA,NA,NA,NA,0.779985070228577,NA,NA,NA,NA,NA,NA,NA,NA,NA,NA,FALSE,"VGG","E_M_liam_neeson.jpg P_M_david_cameron.jpg"
NA,"E_M_liam_neeson.jpg","P_M_donald_trump.jpg",NA,NA,NA,NA,NA,0.832161426544189,NA,NA,NA,NA,NA,NA,NA,NA,NA,NA,FALSE,"VGG","E_M_liam_neeson.jpg P_M_donald_trump.jpg"
NA,"E_M_liam_neeson.jpg","P_M_george_Wbush.jpg",NA,NA,NA,NA,NA,0.748679995536804,NA,NA,NA,NA,NA,NA,NA,NA,NA,NA,FALSE,"VGG","E_M_liam_neeson.jpg P_M_george_Wbush.jpg"
NA,"E_M_liam_neeson.jpg","P_M_Tony_Blair.jpg",NA,NA,NA,NA,NA,0.854685842990875,NA,NA,NA,NA,NA,NA,NA,NA,NA,NA,FALSE,"VGG","E_M_liam_neeson.jpg P_M_Tony_Blair.jpg"
NA,"E_M_Martin_Freeman.jpg","E_M_michael_caine.jpg",NA,NA,NA,NA,NA,0.898305922746658,NA,NA,NA,NA,NA,NA,NA,NA,NA,NA,FALSE,"VGG","E_M_Martin_Freeman.jpg E_M_michael_caine.jpg"
NA,"E_M_Martin_Freeman.jpg","E_M_nicolas_cage.jpg",NA,NA,NA,NA,NA,0.879489414393902,NA,NA,NA,NA,NA,NA,NA,NA,NA,NA,FALSE,"VGG","E_M_Martin_Freeman.jpg E_M_nicolas_cage.jpg"
NA,"E_M_Martin_Freeman.jpg","E_M_robert_de_niro.jpg",NA,NA,NA,NA,NA,0.911347799003124,NA,NA,NA,NA,NA,NA,NA,NA,NA,NA,FALSE,"VGG","E_M_Martin_Freeman.jpg E_M_robert_de_niro.jpg"
NA,"E_M_Martin_Freeman.jpg","E_M_tom_hankes.jpg",NA,NA,NA,NA,NA,0.663135170936584,NA,NA,NA,NA,NA,NA,NA,NA,NA,NA,FALSE,"VGG","E_M_Martin_Freeman.jpg E_M_tom_hankes.jpg"
NA,"E_M_Martin_Freeman.jpg","P_F_angela_rayner.jpg",NA,NA,NA,NA,NA,0.928738720715046,NA,NA,NA,NA,NA,NA,NA,NA,NA,NA,FALSE,"VGG","E_M_Martin_Freeman.jpg P_F_angela_rayner.jpg"
NA,"E_M_Martin_Freeman.jpg","P_F_esther_mcvey.jpg",NA,NA,NA,NA,NA,0.919198952615261,NA,NA,NA,NA,NA,NA,NA,NA,NA,NA,FALSE,"VGG","E_M_Martin_Freeman.jpg P_F_esther_mcvey.jpg"
NA,"E_M_Martin_Freeman.jpg","P_F_hillary_clinton.jpg",NA,NA,NA,NA,NA,0.717024922370911,NA,NA,NA,NA,NA,NA,NA,NA,NA,NA,FALSE,"VGG","E_M_Martin_Freeman.jpg P_F_hillary_clinton.jpg"
NA,"E_M_Martin_Freeman.jpg","P_F_nicola_sturgeon.jpg",NA,NA,NA,NA,NA,0.823123201727867,NA,NA,NA,NA,NA,NA,NA,NA,NA,NA,FALSE,"VGG","E_M_Martin_Freeman.jpg P_F_nicola_sturgeon.jpg"
NA,"E_M_Martin_Freeman.jpg","P_F_PRITI_PATEL.jpg",NA,NA,NA,NA,NA,0.951569952070713,NA,NA,NA,NA,NA,NA,NA,NA,NA,NA,FALSE,"VGG","E_M_Martin_Freeman.jpg P_F_PRITI_PATEL.jpg"
NA,"E_M_Martin_Freeman.jpg","P_F_tehresy_may.jpg",NA,NA,NA,NA,NA,0.843243271112442,NA,NA,NA,NA,NA,NA,NA,NA,NA,NA,FALSE,"VGG","E_M_Martin_Freeman.jpg P_F_tehresy_may.jpg"
NA,"E_M_Martin_Freeman.jpg","P_M_bill_clinton.jpg",NA,NA,NA,NA,NA,0.786290794610977,NA,NA,NA,NA,NA,NA,NA,NA,NA,NA,FALSE,"VGG","E_M_Martin_Freeman.jpg P_M_bill_clinton.jpg"
NA,"E_M_Martin_Freeman.jpg","P_M_boris_johnson.jpg",NA,NA,NA,NA,NA,0.896685719490051,NA,NA,NA,NA,NA,NA,NA,NA,NA,NA,FALSE,"VGG","E_M_Martin_Freeman.jpg P_M_boris_johnson.jpg"
NA,"E_M_Martin_Freeman.jpg","P_M_david_cameron.jpg",NA,NA,NA,NA,NA,0.827436566352844,NA,NA,NA,NA,NA,NA,NA,NA,NA,NA,FALSE,"VGG","E_M_Martin_Freeman.jpg P_M_david_cameron.jpg"
NA,"E_M_Martin_Freeman.jpg","P_M_donald_trump.jpg",NA,NA,NA,NA,NA,0.770892530679703,NA,NA,NA,NA,NA,NA,NA,NA,NA,NA,FALSE,"VGG","E_M_Martin_Freeman.jpg P_M_donald_trump.jpg"
NA,"E_M_Martin_Freeman.jpg","P_M_george_Wbush.jpg",NA,NA,NA,NA,NA,0.875465095043182,NA,NA,NA,NA,NA,NA,NA,NA,NA,NA,FALSE,"VGG","E_M_Martin_Freeman.jpg P_M_george_Wbush.jpg"
NA,"E_M_Martin_Freeman.jpg","P_M_Tony_Blair.jpg",NA,NA,NA,NA,NA,0.840521395206451,NA,NA,NA,NA,NA,NA,NA,NA,NA,NA,FALSE,"VGG","E_M_Martin_Freeman.jpg P_M_Tony_Blair.jpg"
NA,"E_M_michael_caine.jpg","E_M_nicolas_cage.jpg",NA,NA,NA,NA,NA,0.762898653745651,NA,NA,NA,NA,NA,NA,NA,NA,NA,NA,FALSE,"VGG","E_M_michael_caine.jpg E_M_nicolas_cage.jpg"
NA,"E_M_michael_caine.jpg","E_M_robert_de_niro.jpg",NA,NA,NA,NA,NA,0.710881233215332,NA,NA,NA,NA,NA,NA,NA,NA,NA,NA,FALSE,"VGG","E_M_michael_caine.jpg E_M_robert_de_niro.jpg"
NA,"E_M_michael_caine.jpg","E_M_tom_hankes.jpg",NA,NA,NA,NA,NA,0.773671627044678,NA,NA,NA,NA,NA,NA,NA,NA,NA,NA,FALSE,"VGG","E_M_michael_caine.jpg E_M_tom_hankes.jpg"
NA,"E_M_michael_caine.jpg","P_F_angela_rayner.jpg",NA,NA,NA,NA,NA,0.776648759841919,NA,NA,NA,NA,NA,NA,NA,NA,NA,NA,FALSE,"VGG","E_M_michael_caine.jpg P_F_angela_rayner.jpg"
NA,"E_M_michael_caine.jpg","P_F_esther_mcvey.jpg",NA,NA,NA,NA,NA,0.851386338472366,NA,NA,NA,NA,NA,NA,NA,NA,NA,NA,FALSE,"VGG","E_M_michael_caine.jpg P_F_esther_mcvey.jpg"
NA,"E_M_michael_caine.jpg","P_F_hillary_clinton.jpg",NA,NA,NA,NA,NA,0.859080016613007,NA,NA,NA,NA,NA,NA,NA,NA,NA,NA,FALSE,"VGG","E_M_michael_caine.jpg P_F_hillary_clinton.jpg"
NA,"E_M_michael_caine.jpg","P_F_nicola_sturgeon.jpg",NA,NA,NA,NA,NA,0.910171546041965,NA,NA,NA,NA,NA,NA,NA,NA,NA,NA,FALSE,"VGG","E_M_michael_caine.jpg P_F_nicola_sturgeon.jpg"
NA,"E_M_michael_caine.jpg","P_F_PRITI_PATEL.jpg",NA,NA,NA,NA,NA,0.906093716621399,NA,NA,NA,NA,NA,NA,NA,NA,NA,NA,FALSE,"VGG","E_M_michael_caine.jpg P_F_PRITI_PATEL.jpg"
NA,"E_M_michael_caine.jpg","P_F_tehresy_may.jpg",NA,NA,NA,NA,NA,0.757206827402115,NA,NA,NA,NA,NA,NA,NA,NA,NA,NA,FALSE,"VGG","E_M_michael_caine.jpg P_F_tehresy_may.jpg"
NA,"E_M_michael_caine.jpg","P_M_bill_clinton.jpg",NA,NA,NA,NA,NA,0.86539214849472,NA,NA,NA,NA,NA,NA,NA,NA,NA,NA,FALSE,"VGG","E_M_michael_caine.jpg P_M_bill_clinton.jpg"
NA,"E_M_michael_caine.jpg","P_M_boris_johnson.jpg",NA,NA,NA,NA,NA,0.800144717097282,NA,NA,NA,NA,NA,NA,NA,NA,NA,NA,FALSE,"VGG","E_M_michael_caine.jpg P_M_boris_johnson.jpg"
NA,"E_M_michael_caine.jpg","P_M_david_cameron.jpg",NA,NA,NA,NA,NA,0.719283074140549,NA,NA,NA,NA,NA,NA,NA,NA,NA,NA,FALSE,"VGG","E_M_michael_caine.jpg P_M_david_cameron.jpg"
NA,"E_M_michael_caine.jpg","P_M_donald_trump.jpg",NA,NA,NA,NA,NA,0.708376079797745,NA,NA,NA,NA,NA,NA,NA,NA,NA,NA,FALSE,"VGG","E_M_michael_caine.jpg P_M_donald_trump.jpg"
NA,"E_M_michael_caine.jpg","P_M_george_Wbush.jpg",NA,NA,NA,NA,NA,0.769446134567261,NA,NA,NA,NA,NA,NA,NA,NA,NA,NA,FALSE,"VGG","E_M_michael_caine.jpg P_M_george_Wbush.jpg"
NA,"E_M_michael_caine.jpg","P_M_Tony_Blair.jpg",NA,NA,NA,NA,NA,0.694134294986725,NA,NA,NA,NA,NA,NA,NA,NA,NA,NA,FALSE,"VGG","E_M_michael_caine.jpg P_M_Tony_Blair.jpg"
NA,"E_M_nicolas_cage.jpg","E_M_robert_de_niro.jpg",NA,NA,NA,NA,NA,0.795980498194695,NA,NA,NA,NA,NA,NA,NA,NA,NA,NA,FALSE,"VGG","E_M_nicolas_cage.jpg E_M_robert_de_niro.jpg"
NA,"E_M_nicolas_cage.jpg","E_M_tom_hankes.jpg",NA,NA,NA,NA,NA,0.811919361352921,NA,NA,NA,NA,NA,NA,NA,NA,NA,NA,FALSE,"VGG","E_M_nicolas_cage.jpg E_M_tom_hankes.jpg"
NA,"E_M_nicolas_cage.jpg","P_F_angela_rayner.jpg",NA,NA,NA,NA,NA,0.77599985897541,NA,NA,NA,NA,NA,NA,NA,NA,NA,NA,FALSE,"VGG","E_M_nicolas_cage.jpg P_F_angela_rayner.jpg"
NA,"E_M_nicolas_cage.jpg","P_F_esther_mcvey.jpg",NA,NA,NA,NA,NA,0.881681360304356,NA,NA,NA,NA,NA,NA,NA,NA,NA,NA,FALSE,"VGG","E_M_nicolas_cage.jpg P_F_esther_mcvey.jpg"
NA,"E_M_nicolas_cage.jpg","P_F_hillary_clinton.jpg",NA,NA,NA,NA,NA,0.771199151873589,NA,NA,NA,NA,NA,NA,NA,NA,NA,NA,FALSE,"VGG","E_M_nicolas_cage.jpg P_F_hillary_clinton.jpg"
NA,"E_M_nicolas_cage.jpg","P_F_nicola_sturgeon.jpg",NA,NA,NA,NA,NA,0.846536189317703,NA,NA,NA,NA,NA,NA,NA,NA,NA,NA,FALSE,"VGG","E_M_nicolas_cage.jpg P_F_nicola_sturgeon.jpg"
NA,"E_M_nicolas_cage.jpg","P_F_PRITI_PATEL.jpg",NA,NA,NA,NA,NA,0.907896928489208,NA,NA,NA,NA,NA,NA,NA,NA,NA,NA,FALSE,"VGG","E_M_nicolas_cage.jpg P_F_PRITI_PATEL.jpg"
NA,"E_M_nicolas_cage.jpg","P_F_tehresy_may.jpg",NA,NA,NA,NA,NA,0.872594654560089,NA,NA,NA,NA,NA,NA,NA,NA,NA,NA,FALSE,"VGG","E_M_nicolas_cage.jpg P_F_tehresy_may.jpg"
NA,"E_M_nicolas_cage.jpg","P_M_bill_clinton.jpg",NA,NA,NA,NA,NA,0.924955226480961,NA,NA,NA,NA,NA,NA,NA,NA,NA,NA,FALSE,"VGG","E_M_nicolas_cage.jpg P_M_bill_clinton.jpg"
NA,"E_M_nicolas_cage.jpg","P_M_boris_johnson.jpg",NA,NA,NA,NA,NA,0.870315790176392,NA,NA,NA,NA,NA,NA,NA,NA,NA,NA,FALSE,"VGG","E_M_nicolas_cage.jpg P_M_boris_johnson.jpg"
NA,"E_M_nicolas_cage.jpg","P_M_david_cameron.jpg",NA,NA,NA,NA,NA,0.749989777803421,NA,NA,NA,NA,NA,NA,NA,NA,NA,NA,FALSE,"VGG","E_M_nicolas_cage.jpg P_M_david_cameron.jpg"
NA,"E_M_nicolas_cage.jpg","P_M_donald_trump.jpg",NA,NA,NA,NA,NA,0.77279981970787,NA,NA,NA,NA,NA,NA,NA,NA,NA,NA,FALSE,"VGG","E_M_nicolas_cage.jpg P_M_donald_trump.jpg"
NA,"E_M_nicolas_cage.jpg","P_M_george_Wbush.jpg",NA,NA,NA,NA,NA,0.787875235080719,NA,NA,NA,NA,NA,NA,NA,NA,NA,NA,FALSE,"VGG","E_M_nicolas_cage.jpg P_M_george_Wbush.jpg"
NA,"E_M_nicolas_cage.jpg","P_M_Tony_Blair.jpg",NA,NA,NA,NA,NA,0.851886510848999,NA,NA,NA,NA,NA,NA,NA,NA,NA,NA,FALSE,"VGG","E_M_nicolas_cage.jpg P_M_Tony_Blair.jpg"
NA,"E_M_robert_de_niro.jpg","E_M_tom_hankes.jpg",NA,NA,NA,NA,NA,0.793444916605949,NA,NA,NA,NA,NA,NA,NA,NA,NA,NA,FALSE,"VGG","E_M_robert_de_niro.jpg E_M_tom_hankes.jpg"
NA,"E_M_robert_de_niro.jpg","P_F_angela_rayner.jpg",NA,NA,NA,NA,NA,0.884032785892487,NA,NA,NA,NA,NA,NA,NA,NA,NA,NA,FALSE,"VGG","E_M_robert_de_niro.jpg P_F_angela_rayner.jpg"
NA,"E_M_robert_de_niro.jpg","P_F_esther_mcvey.jpg",NA,NA,NA,NA,NA,0.855339840054512,NA,NA,NA,NA,NA,NA,NA,NA,NA,NA,FALSE,"VGG","E_M_robert_de_niro.jpg P_F_esther_mcvey.jpg"
NA,"E_M_robert_de_niro.jpg","P_F_hillary_clinton.jpg",NA,NA,NA,NA,NA,0.890883184969425,NA,NA,NA,NA,NA,NA,NA,NA,NA,NA,FALSE,"VGG","E_M_robert_de_niro.jpg P_F_hillary_clinton.jpg"
NA,"E_M_robert_de_niro.jpg","P_F_nicola_sturgeon.jpg",NA,NA,NA,NA,NA,0.877493478357792,NA,NA,NA,NA,NA,NA,NA,NA,NA,NA,FALSE,"VGG","E_M_robert_de_niro.jpg P_F_nicola_sturgeon.jpg"
NA,"E_M_robert_de_niro.jpg","P_F_PRITI_PATEL.jpg",NA,NA,NA,NA,NA,0.903646364808083,NA,NA,NA,NA,NA,NA,NA,NA,NA,NA,FALSE,"VGG","E_M_robert_de_niro.jpg P_F_PRITI_PATEL.jpg"
NA,"E_M_robert_de_niro.jpg","P_F_tehresy_may.jpg",NA,NA,NA,NA,NA,0.875643447041512,NA,NA,NA,NA,NA,NA,NA,NA,NA,NA,FALSE,"VGG","E_M_robert_de_niro.jpg P_F_tehresy_may.jpg"
NA,"E_M_robert_de_niro.jpg","P_M_bill_clinton.jpg",NA,NA,NA,NA,NA,0.868389964103699,NA,NA,NA,NA,NA,NA,NA,NA,NA,NA,FALSE,"VGG","E_M_robert_de_niro.jpg P_M_bill_clinton.jpg"
NA,"E_M_robert_de_niro.jpg","P_M_boris_johnson.jpg",NA,NA,NA,NA,NA,0.823834508657455,NA,NA,NA,NA,NA,NA,NA,NA,NA,NA,FALSE,"VGG","E_M_robert_de_niro.jpg P_M_boris_johnson.jpg"
NA,"E_M_robert_de_niro.jpg","P_M_david_cameron.jpg",NA,NA,NA,NA,NA,0.729340046644211,NA,NA,NA,NA,NA,NA,NA,NA,NA,NA,FALSE,"VGG","E_M_robert_de_niro.jpg P_M_david_cameron.jpg"
NA,"E_M_robert_de_niro.jpg","P_M_donald_trump.jpg",NA,NA,NA,NA,NA,0.871493265032768,NA,NA,NA,NA,NA,NA,NA,NA,NA,NA,FALSE,"VGG","E_M_robert_de_niro.jpg P_M_donald_trump.jpg"
NA,"E_M_robert_de_niro.jpg","P_M_george_Wbush.jpg",NA,NA,NA,NA,NA,0.686722069978714,NA,NA,NA,NA,NA,NA,NA,NA,NA,NA,FALSE,"VGG","E_M_robert_de_niro.jpg P_M_george_Wbush.jpg"
NA,"E_M_robert_de_niro.jpg","P_M_Tony_Blair.jpg",NA,NA,NA,NA,NA,0.774728134274483,NA,NA,NA,NA,NA,NA,NA,NA,NA,NA,FALSE,"VGG","E_M_robert_de_niro.jpg P_M_Tony_Blair.jpg"
NA,"E_M_tom_hankes.jpg","P_F_angela_rayner.jpg",NA,NA,NA,NA,NA,0.882976092398167,NA,NA,NA,NA,NA,NA,NA,NA,NA,NA,FALSE,"VGG","E_M_tom_hankes.jpg P_F_angela_rayner.jpg"
NA,"E_M_tom_hankes.jpg","P_F_esther_mcvey.jpg",NA,NA,NA,NA,NA,0.841344252228737,NA,NA,NA,NA,NA,NA,NA,NA,NA,NA,FALSE,"VGG","E_M_tom_hankes.jpg P_F_esther_mcvey.jpg"
NA,"E_M_tom_hankes.jpg","P_F_hillary_clinton.jpg",NA,NA,NA,NA,NA,0.750323787331581,NA,NA,NA,NA,NA,NA,NA,NA,NA,NA,FALSE,"VGG","E_M_tom_hankes.jpg P_F_hillary_clinton.jpg"
NA,"E_M_tom_hankes.jpg","P_F_nicola_sturgeon.jpg",NA,NA,NA,NA,NA,0.919922932982445,NA,NA,NA,NA,NA,NA,NA,NA,NA,NA,FALSE,"VGG","E_M_tom_hankes.jpg P_F_nicola_sturgeon.jpg"
NA,"E_M_tom_hankes.jpg","P_F_PRITI_PATEL.jpg",NA,NA,NA,NA,NA,0.93931407481432,NA,NA,NA,NA,NA,NA,NA,NA,NA,NA,FALSE,"VGG","E_M_tom_hankes.jpg P_F_PRITI_PATEL.jpg"
NA,"E_M_tom_hankes.jpg","P_F_tehresy_may.jpg",NA,NA,NA,NA,NA,0.804257497191429,NA,NA,NA,NA,NA,NA,NA,NA,NA,NA,FALSE,"VGG","E_M_tom_hankes.jpg P_F_tehresy_may.jpg"
NA,"E_M_tom_hankes.jpg","P_M_bill_clinton.jpg",NA,NA,NA,NA,NA,0.857402011752129,NA,NA,NA,NA,NA,NA,NA,NA,NA,NA,FALSE,"VGG","E_M_tom_hankes.jpg P_M_bill_clinton.jpg"
NA,"E_M_tom_hankes.jpg","P_M_boris_johnson.jpg",NA,NA,NA,NA,NA,0.85123698413372,NA,NA,NA,NA,NA,NA,NA,NA,NA,NA,FALSE,"VGG","E_M_tom_hankes.jpg P_M_boris_johnson.jpg"
NA,"E_M_tom_hankes.jpg","P_M_david_cameron.jpg",NA,NA,NA,NA,NA,0.635543346405029,NA,NA,NA,NA,NA,NA,NA,NA,NA,NA,FALSE,"VGG","E_M_tom_hankes.jpg P_M_david_cameron.jpg"
NA,"E_M_tom_hankes.jpg","P_M_donald_trump.jpg",NA,NA,NA,NA,NA,0.738431870937347,NA,NA,NA,NA,NA,NA,NA,NA,NA,NA,FALSE,"VGG","E_M_tom_hankes.jpg P_M_donald_trump.jpg"
NA,"E_M_tom_hankes.jpg","P_M_george_Wbush.jpg",NA,NA,NA,NA,NA,0.829261839389801,NA,NA,NA,NA,NA,NA,NA,NA,NA,NA,FALSE,"VGG","E_M_tom_hankes.jpg P_M_george_Wbush.jpg"
NA,"E_M_tom_hankes.jpg","P_M_Tony_Blair.jpg",NA,NA,NA,NA,NA,0.805395439267159,NA,NA,NA,NA,NA,NA,NA,NA,NA,NA,FALSE,"VGG","E_M_tom_hankes.jpg P_M_Tony_Blair.jpg"
NA,"P_F_angela_rayner.jpg","P_F_esther_mcvey.jpg",NA,NA,NA,NA,NA,0.674871742725372,NA,NA,NA,NA,NA,NA,NA,NA,NA,NA,FALSE,"VGG","P_F_angela_rayner.jpg P_F_esther_mcvey.jpg"
NA,"P_F_angela_rayner.jpg","P_F_hillary_clinton.jpg",NA,NA,NA,NA,NA,0.821285590529442,NA,NA,NA,NA,NA,NA,NA,NA,NA,NA,FALSE,"VGG","P_F_angela_rayner.jpg P_F_hillary_clinton.jpg"
NA,"P_F_angela_rayner.jpg","P_F_nicola_sturgeon.jpg",NA,NA,NA,NA,NA,0.864245623350143,NA,NA,NA,NA,NA,NA,NA,NA,NA,NA,FALSE,"VGG","P_F_angela_rayner.jpg P_F_nicola_sturgeon.jpg"
NA,"P_F_angela_rayner.jpg","P_F_PRITI_PATEL.jpg",NA,NA,NA,NA,NA,0.573544561862946,NA,NA,NA,NA,NA,NA,NA,NA,NA,NA,FALSE,"VGG","P_F_angela_rayner.jpg P_F_PRITI_PATEL.jpg"
NA,"P_F_angela_rayner.jpg","P_F_tehresy_may.jpg",NA,NA,NA,NA,NA,0.822932347655296,NA,NA,NA,NA,NA,NA,NA,NA,NA,NA,FALSE,"VGG","P_F_angela_rayner.jpg P_F_tehresy_may.jpg"
NA,"P_F_angela_rayner.jpg","P_M_bill_clinton.jpg",NA,NA,NA,NA,NA,0.931638062000275,NA,NA,NA,NA,NA,NA,NA,NA,NA,NA,FALSE,"VGG","P_F_angela_rayner.jpg P_M_bill_clinton.jpg"
NA,"P_F_angela_rayner.jpg","P_M_boris_johnson.jpg",NA,NA,NA,NA,NA,0.827120617032051,NA,NA,NA,NA,NA,NA,NA,NA,NA,NA,FALSE,"VGG","P_F_angela_rayner.jpg P_M_boris_johnson.jpg"
NA,"P_F_angela_rayner.jpg","P_M_david_cameron.jpg",NA,NA,NA,NA,NA,0.873008042573929,NA,NA,NA,NA,NA,NA,NA,NA,NA,NA,FALSE,"VGG","P_F_angela_rayner.jpg P_M_david_cameron.jpg"
NA,"P_F_angela_rayner.jpg","P_M_donald_trump.jpg",NA,NA,NA,NA,NA,0.840370982885361,NA,NA,NA,NA,NA,NA,NA,NA,NA,NA,FALSE,"VGG","P_F_angela_rayner.jpg P_M_donald_trump.jpg"
NA,"P_F_angela_rayner.jpg","P_M_george_Wbush.jpg",NA,NA,NA,NA,NA,0.865079894661903,NA,NA,NA,NA,NA,NA,NA,NA,NA,NA,FALSE,"VGG","P_F_angela_rayner.jpg P_M_george_Wbush.jpg"
NA,"P_F_angela_rayner.jpg","P_M_Tony_Blair.jpg",NA,NA,NA,NA,NA,0.783610463142395,NA,NA,NA,NA,NA,NA,NA,NA,NA,NA,FALSE,"VGG","P_F_angela_rayner.jpg P_M_Tony_Blair.jpg"
NA,"P_F_esther_mcvey.jpg","P_F_hillary_clinton.jpg",NA,NA,NA,NA,NA,0.68706339597702,NA,NA,NA,NA,NA,NA,NA,NA,NA,NA,FALSE,"VGG","P_F_esther_mcvey.jpg P_F_hillary_clinton.jpg"
NA,"P_F_esther_mcvey.jpg","P_F_nicola_sturgeon.jpg",NA,NA,NA,NA,NA,0.768309101462364,NA,NA,NA,NA,NA,NA,NA,NA,NA,NA,FALSE,"VGG","P_F_esther_mcvey.jpg P_F_nicola_sturgeon.jpg"
NA,"P_F_esther_mcvey.jpg","P_F_PRITI_PATEL.jpg",NA,NA,NA,NA,NA,0.769101142883301,NA,NA,NA,NA,NA,NA,NA,NA,NA,NA,FALSE,"VGG","P_F_esther_mcvey.jpg P_F_PRITI_PATEL.jpg"
NA,"P_F_esther_mcvey.jpg","P_F_tehresy_may.jpg",NA,NA,NA,NA,NA,0.672142297029495,NA,NA,NA,NA,NA,NA,NA,NA,NA,NA,FALSE,"VGG","P_F_esther_mcvey.jpg P_F_tehresy_may.jpg"
NA,"P_F_esther_mcvey.jpg","P_M_bill_clinton.jpg",NA,NA,NA,NA,NA,0.815831214189529,NA,NA,NA,NA,NA,NA,NA,NA,NA,NA,FALSE,"VGG","P_F_esther_mcvey.jpg P_M_bill_clinton.jpg"
NA,"P_F_esther_mcvey.jpg","P_M_boris_johnson.jpg",NA,NA,NA,NA,NA,0.760458797216415,NA,NA,NA,NA,NA,NA,NA,NA,NA,NA,FALSE,"VGG","P_F_esther_mcvey.jpg P_M_boris_johnson.jpg"
NA,"P_F_esther_mcvey.jpg","P_M_david_cameron.jpg",NA,NA,NA,NA,NA,0.736368447542191,NA,NA,NA,NA,NA,NA,NA,NA,NA,NA,FALSE,"VGG","P_F_esther_mcvey.jpg P_M_david_cameron.jpg"
NA,"P_F_esther_mcvey.jpg","P_M_donald_trump.jpg",NA,NA,NA,NA,NA,0.844324469566345,NA,NA,NA,NA,NA,NA,NA,NA,NA,NA,FALSE,"VGG","P_F_esther_mcvey.jpg P_M_donald_trump.jpg"
NA,"P_F_esther_mcvey.jpg","P_M_george_Wbush.jpg",NA,NA,NA,NA,NA,0.901561863720417,NA,NA,NA,NA,NA,NA,NA,NA,NA,NA,FALSE,"VGG","P_F_esther_mcvey.jpg P_M_george_Wbush.jpg"
NA,"P_F_esther_mcvey.jpg","P_M_Tony_Blair.jpg",NA,NA,NA,NA,NA,0.899809144437313,NA,NA,NA,NA,NA,NA,NA,NA,NA,NA,FALSE,"VGG","P_F_esther_mcvey.jpg P_M_Tony_Blair.jpg"
NA,"P_F_hillary_clinton.jpg","P_F_nicola_sturgeon.jpg",NA,NA,NA,NA,NA,0.710396468639374,NA,NA,NA,NA,NA,NA,NA,NA,NA,NA,FALSE,"VGG","P_F_hillary_clinton.jpg P_F_nicola_sturgeon.jpg"
NA,"P_F_hillary_clinton.jpg","P_F_PRITI_PATEL.jpg",NA,NA,NA,NA,NA,0.935613736510277,NA,NA,NA,NA,NA,NA,NA,NA,NA,NA,FALSE,"VGG","P_F_hillary_clinton.jpg P_F_PRITI_PATEL.jpg"
NA,"P_F_hillary_clinton.jpg","P_F_tehresy_may.jpg",NA,NA,NA,NA,NA,0.705843478441238,NA,NA,NA,NA,NA,NA,NA,NA,NA,NA,FALSE,"VGG","P_F_hillary_clinton.jpg P_F_tehresy_may.jpg"
NA,"P_F_hillary_clinton.jpg","P_M_bill_clinton.jpg",NA,NA,NA,NA,NA,0.871041685342789,NA,NA,NA,NA,NA,NA,NA,NA,NA,NA,FALSE,"VGG","P_F_hillary_clinton.jpg P_M_bill_clinton.jpg"
NA,"P_F_hillary_clinton.jpg","P_M_boris_johnson.jpg",NA,NA,NA,NA,NA,0.864137843251228,NA,NA,NA,NA,NA,NA,NA,NA,NA,NA,FALSE,"VGG","P_F_hillary_clinton.jpg P_M_boris_johnson.jpg"
NA,"P_F_hillary_clinton.jpg","P_M_david_cameron.jpg",NA,NA,NA,NA,NA,0.766582012176514,NA,NA,NA,NA,NA,NA,NA,NA,NA,NA,FALSE,"VGG","P_F_hillary_clinton.jpg P_M_david_cameron.jpg"
NA,"P_F_hillary_clinton.jpg","P_M_donald_trump.jpg",NA,NA,NA,NA,NA,0.726512849330902,NA,NA,NA,NA,NA,NA,NA,NA,NA,NA,FALSE,"VGG","P_F_hillary_clinton.jpg P_M_donald_trump.jpg"
NA,"P_F_hillary_clinton.jpg","P_M_george_Wbush.jpg",NA,NA,NA,NA,NA,0.833409950137138,NA,NA,NA,NA,NA,NA,NA,NA,NA,NA,FALSE,"VGG","P_F_hillary_clinton.jpg P_M_george_Wbush.jpg"
NA,"P_F_hillary_clinton.jpg","P_M_Tony_Blair.jpg",NA,NA,NA,NA,NA,0.83138233423233,NA,NA,NA,NA,NA,NA,NA,NA,NA,NA,FALSE,"VGG","P_F_hillary_clinton.jpg P_M_Tony_Blair.jpg"
NA,"P_F_nicola_sturgeon.jpg","P_F_PRITI_PATEL.jpg",NA,NA,NA,NA,NA,0.830310165882111,NA,NA,NA,NA,NA,NA,NA,NA,NA,NA,FALSE,"VGG","P_F_nicola_sturgeon.jpg P_F_PRITI_PATEL.jpg"
NA,"P_F_nicola_sturgeon.jpg","P_F_tehresy_may.jpg",NA,NA,NA,NA,NA,0.771866202354431,NA,NA,NA,NA,NA,NA,NA,NA,NA,NA,FALSE,"VGG","P_F_nicola_sturgeon.jpg P_F_tehresy_may.jpg"
NA,"P_F_nicola_sturgeon.jpg","P_M_bill_clinton.jpg",NA,NA,NA,NA,NA,0.893330626189709,NA,NA,NA,NA,NA,NA,NA,NA,NA,NA,FALSE,"VGG","P_F_nicola_sturgeon.jpg P_M_bill_clinton.jpg"
NA,"P_F_nicola_sturgeon.jpg","P_M_boris_johnson.jpg",NA,NA,NA,NA,NA,0.881707370281219,NA,NA,NA,NA,NA,NA,NA,NA,NA,NA,FALSE,"VGG","P_F_nicola_sturgeon.jpg P_M_boris_johnson.jpg"
NA,"P_F_nicola_sturgeon.jpg","P_M_david_cameron.jpg",NA,NA,NA,NA,NA,0.817321732640266,NA,NA,NA,NA,NA,NA,NA,NA,NA,NA,FALSE,"VGG","P_F_nicola_sturgeon.jpg P_M_david_cameron.jpg"
NA,"P_F_nicola_sturgeon.jpg","P_M_donald_trump.jpg",NA,NA,NA,NA,NA,0.834065318107605,NA,NA,NA,NA,NA,NA,NA,NA,NA,NA,FALSE,"VGG","P_F_nicola_sturgeon.jpg P_M_donald_trump.jpg"
NA,"P_F_nicola_sturgeon.jpg","P_M_george_Wbush.jpg",NA,NA,NA,NA,NA,0.790960118174553,NA,NA,NA,NA,NA,NA,NA,NA,NA,NA,FALSE,"VGG","P_F_nicola_sturgeon.jpg P_M_george_Wbush.jpg"
NA,"P_F_nicola_sturgeon.jpg","P_M_Tony_Blair.jpg",NA,NA,NA,NA,NA,0.898744277656078,NA,NA,NA,NA,NA,NA,NA,NA,NA,NA,FALSE,"VGG","P_F_nicola_sturgeon.jpg P_M_Tony_Blair.jpg"
NA,"P_F_PRITI_PATEL.jpg","P_F_tehresy_may.jpg",NA,NA,NA,NA,NA,0.907269522547722,NA,NA,NA,NA,NA,NA,NA,NA,NA,NA,FALSE,"VGG","P_F_PRITI_PATEL.jpg P_F_tehresy_may.jpg"
NA,"P_F_PRITI_PATEL.jpg","P_M_bill_clinton.jpg",NA,NA,NA,NA,NA,0.928023181855679,NA,NA,NA,NA,NA,NA,NA,NA,NA,NA,FALSE,"VGG","P_F_PRITI_PATEL.jpg P_M_bill_clinton.jpg"
NA,"P_F_PRITI_PATEL.jpg","P_M_boris_johnson.jpg",NA,NA,NA,NA,NA,0.939808540046215,NA,NA,NA,NA,NA,NA,NA,NA,NA,NA,FALSE,"VGG","P_F_PRITI_PATEL.jpg P_M_boris_johnson.jpg"
NA,"P_F_PRITI_PATEL.jpg","P_M_david_cameron.jpg",NA,NA,NA,NA,NA,0.932715758681297,NA,NA,NA,NA,NA,NA,NA,NA,NA,NA,FALSE,"VGG","P_F_PRITI_PATEL.jpg P_M_david_cameron.jpg"
NA,"P_F_PRITI_PATEL.jpg","P_M_donald_trump.jpg",NA,NA,NA,NA,NA,0.930546462535858,NA,NA,NA,NA,NA,NA,NA,NA,NA,NA,FALSE,"VGG","P_F_PRITI_PATEL.jpg P_M_donald_trump.jpg"
NA,"P_F_PRITI_PATEL.jpg","P_M_george_Wbush.jpg",NA,NA,NA,NA,NA,0.942432444542646,NA,NA,NA,NA,NA,NA,NA,NA,NA,NA,FALSE,"VGG","P_F_PRITI_PATEL.jpg P_M_george_Wbush.jpg"
NA,"P_F_PRITI_PATEL.jpg","P_M_Tony_Blair.jpg",NA,NA,NA,NA,NA,0.879754520952702,NA,NA,NA,NA,NA,NA,NA,NA,NA,NA,FALSE,"VGG","P_F_PRITI_PATEL.jpg P_M_Tony_Blair.jpg"
NA,"P_F_tehresy_may.jpg","P_M_bill_clinton.jpg",NA,NA,NA,NA,NA,0.786639153957367,NA,NA,NA,NA,NA,NA,NA,NA,NA,NA,FALSE,"VGG","P_F_tehresy_may.jpg P_M_bill_clinton.jpg"
NA,"P_F_tehresy_may.jpg","P_M_boris_johnson.jpg",NA,NA,NA,NA,NA,0.747997760772705,NA,NA,NA,NA,NA,NA,NA,NA,NA,NA,FALSE,"VGG","P_F_tehresy_may.jpg P_M_boris_johnson.jpg"
NA,"P_F_tehresy_may.jpg","P_M_david_cameron.jpg",NA,NA,NA,NA,NA,0.779260441660881,NA,NA,NA,NA,NA,NA,NA,NA,NA,NA,FALSE,"VGG","P_F_tehresy_may.jpg P_M_david_cameron.jpg"
NA,"P_F_tehresy_may.jpg","P_M_donald_trump.jpg",NA,NA,NA,NA,NA,0.646092504262924,NA,NA,NA,NA,NA,NA,NA,NA,NA,NA,FALSE,"VGG","P_F_tehresy_may.jpg P_M_donald_trump.jpg"
NA,"P_F_tehresy_may.jpg","P_M_george_Wbush.jpg",NA,NA,NA,NA,NA,0.915184937417507,NA,NA,NA,NA,NA,NA,NA,NA,NA,NA,FALSE,"VGG","P_F_tehresy_may.jpg P_M_george_Wbush.jpg"
NA,"P_F_tehresy_may.jpg","P_M_Tony_Blair.jpg",NA,NA,NA,NA,NA,0.859265625476837,NA,NA,NA,NA,NA,NA,NA,NA,NA,NA,FALSE,"VGG","P_F_tehresy_may.jpg P_M_Tony_Blair.jpg"
NA,"P_M_bill_clinton.jpg","P_M_boris_johnson.jpg",NA,NA,NA,NA,NA,0.575313210487366,NA,NA,NA,NA,NA,NA,NA,NA,NA,NA,FALSE,"VGG","P_M_bill_clinton.jpg P_M_boris_johnson.jpg"
NA,"P_M_bill_clinton.jpg","P_M_david_cameron.jpg",NA,NA,NA,NA,NA,0.731863498687744,NA,NA,NA,NA,NA,NA,NA,NA,NA,NA,FALSE,"VGG","P_M_bill_clinton.jpg P_M_david_cameron.jpg"
NA,"P_M_bill_clinton.jpg","P_M_donald_trump.jpg",NA,NA,NA,NA,NA,0.79559850692749,NA,NA,NA,NA,NA,NA,NA,NA,NA,NA,FALSE,"VGG","P_M_bill_clinton.jpg P_M_donald_trump.jpg"
NA,"P_M_bill_clinton.jpg","P_M_george_Wbush.jpg",NA,NA,NA,NA,NA,0.922236882150173,NA,NA,NA,NA,NA,NA,NA,NA,NA,NA,FALSE,"VGG","P_M_bill_clinton.jpg P_M_george_Wbush.jpg"
NA,"P_M_bill_clinton.jpg","P_M_Tony_Blair.jpg",NA,NA,NA,NA,NA,0.932195261120796,NA,NA,NA,NA,NA,NA,NA,NA,NA,NA,FALSE,"VGG","P_M_bill_clinton.jpg P_M_Tony_Blair.jpg"
NA,"P_M_boris_johnson.jpg","P_M_david_cameron.jpg",NA,NA,NA,NA,NA,0.716926157474518,NA,NA,NA,NA,NA,NA,NA,NA,NA,NA,FALSE,"VGG","P_M_boris_johnson.jpg P_M_david_cameron.jpg"
NA,"P_M_boris_johnson.jpg","P_M_donald_trump.jpg",NA,NA,NA,NA,NA,0.675142765045166,NA,NA,NA,NA,NA,NA,NA,NA,NA,NA,FALSE,"VGG","P_M_boris_johnson.jpg P_M_donald_trump.jpg"
NA,"P_M_boris_johnson.jpg","P_M_george_Wbush.jpg",NA,NA,NA,NA,NA,0.86895552277565,NA,NA,NA,NA,NA,NA,NA,NA,NA,NA,FALSE,"VGG","P_M_boris_johnson.jpg P_M_george_Wbush.jpg"
NA,"P_M_boris_johnson.jpg","P_M_Tony_Blair.jpg",NA,NA,NA,NA,NA,0.856802091002464,NA,NA,NA,NA,NA,NA,NA,NA,NA,NA,FALSE,"VGG","P_M_boris_johnson.jpg P_M_Tony_Blair.jpg"
NA,"P_M_david_cameron.jpg","P_M_donald_trump.jpg",NA,NA,NA,NA,NA,0.843391269445419,NA,NA,NA,NA,NA,NA,NA,NA,NA,NA,FALSE,"VGG","P_M_david_cameron.jpg P_M_donald_trump.jpg"
NA,"P_M_david_cameron.jpg","P_M_george_Wbush.jpg",NA,NA,NA,NA,NA,0.827981173992157,NA,NA,NA,NA,NA,NA,NA,NA,NA,NA,FALSE,"VGG","P_M_david_cameron.jpg P_M_george_Wbush.jpg"
NA,"P_M_david_cameron.jpg","P_M_Tony_Blair.jpg",NA,NA,NA,NA,NA,0.807828888297081,NA,NA,NA,NA,NA,NA,NA,NA,NA,NA,FALSE,"VGG","P_M_david_cameron.jpg P_M_Tony_Blair.jpg"
NA,"P_M_donald_trump.jpg","P_M_george_Wbush.jpg",NA,NA,NA,NA,NA,0.872686877846718,NA,NA,NA,NA,NA,NA,NA,NA,NA,NA,FALSE,"VGG","P_M_donald_trump.jpg P_M_george_Wbush.jpg"
NA,"P_M_donald_trump.jpg","P_M_Tony_Blair.jpg",NA,NA,NA,NA,NA,0.741787672042847,NA,NA,NA,NA,NA,NA,NA,NA,NA,NA,FALSE,"VGG","P_M_donald_trump.jpg P_M_Tony_Blair.jpg"
NA,"P_M_george_Wbush.jpg","P_M_Tony_Blair.jpg",NA,NA,NA,NA,NA,0.80079448223114,NA,NA,NA,NA,NA,NA,NA,NA,NA,NA,FALSE,"VGG","P_M_george_Wbush.jpg P_M_Tony_Blair.jpg"
