"RT","img_1","img_2","isSameProffesion","img1proffesion","img2proffesion","img1Gender","img2Gender","keyPressed","participant","time","normlised_keyPress","age","gender","handedness","isFamiliar_img1","isFamiliar_img2","vividness_img1","vividness_img2","reject_trial","pair"
5068,"E_M_anthony_hopkins.jpg","E_M_robert_de_niro.jpg","TRUE","pictures/stimuli/E","pictures/stimuli/E","M","M","3","57fc3e1a7a62880001c197ac","11/30/2021, 07:16:41",-0.190871160361564,"36","Female","ambidextrous",1,1,0,0,FALSE,"E_M_anthony_hopkins.jpg E_M_robert_de_niro.jpg"
4985,"E_F_jennifer_aniston.jpg","E_M_michael_caine.jpg","TRUE","pictures/stimuli/E","pictures/stimuli/E","F","M","4","57fc3e1a7a62880001c197ac","11/30/2021, 07:16:41",0.417296752555185,"36","Female","ambidextrous",1,1,0,0,FALSE,"E_F_jennifer_aniston.jpg E_M_michael_caine.jpg"
5328,"E_F_jennifer_aniston.jpg","P_M_Tony_Blair.jpg","FALSE","pictures/stimuli/E","pictures/stimuli/P","F","M","5","57fc3e1a7a62880001c197ac","11/30/2021, 07:16:41",1.02546466547193,"36","Female","ambidextrous",1,1,0,0,FALSE,"E_F_jennifer_aniston.jpg P_M_Tony_Blair.jpg"
3094,"E_F_angelina_jolie.jpg","P_M_Tony_Blair.jpg","FALSE","pictures/stimuli/E","pictures/stimuli/P","F","M","5","57fc3e1a7a62880001c197ac","11/30/2021, 07:16:41",1.02546466547193,"36","Female","ambidextrous",1,1,0,0,FALSE,"E_F_angelina_jolie.jpg P_M_Tony_Blair.jpg"
3090,"E_M_Hugh_Grant.jpg","E_M_liam_neeson.jpg","TRUE","pictures/stimuli/E","pictures/stimuli/E","M","M","1","57fc3e1a7a62880001c197ac","11/30/2021, 07:16:41",-1.40720698619506,"36","Female","ambidextrous",1,1,0,0,FALSE,"E_M_Hugh_Grant.jpg E_M_liam_neeson.jpg"
3099,"E_F_Kate_Winslet.jpg","E_F_keira_knightley.jpg","TRUE","pictures/stimuli/E","pictures/stimuli/E","F","F","1","57fc3e1a7a62880001c197ac","11/30/2021, 07:16:41",-1.40720698619506,"36","Female","ambidextrous",1,1,0,0,FALSE,"E_F_Kate_Winslet.jpg E_F_keira_knightley.jpg"
3405,"E_F_sandra_bullock.jpg","E_M_tom_hankes.jpg","TRUE","pictures/stimuli/E","pictures/stimuli/E","F","M","3","57fc3e1a7a62880001c197ac","11/30/2021, 07:16:41",-0.190871160361564,"36","Female","ambidextrous",1,1,0,0,FALSE,"E_F_sandra_bullock.jpg E_M_tom_hankes.jpg"
3683,"E_M_Martin_Freeman.jpg","E_M_nicolas_cage.jpg","TRUE","pictures/stimuli/E","pictures/stimuli/E","M","M","3","57fc3e1a7a62880001c197ac","11/30/2021, 07:16:41",-0.190871160361564,"36","Female","ambidextrous",1,1,0,0,FALSE,"E_M_Martin_Freeman.jpg E_M_nicolas_cage.jpg"
4374,"P_F_hillary_clinton.jpg","P_F_PRITI_PATEL.jpg","TRUE","pictures/stimuli/P","pictures/stimuli/P","F","F","2","57fc3e1a7a62880001c197ac","11/30/2021, 07:16:41",-0.799039073278314,"36","Female","ambidextrous",1,1,0,0,FALSE,"P_F_hillary_clinton.jpg P_F_PRITI_PATEL.jpg"
3589,"E_F_sandra_bullock.jpg","E_M_Hugh_Grant.jpg","TRUE","pictures/stimuli/E","pictures/stimuli/E","F","M","2","57fc3e1a7a62880001c197ac","11/30/2021, 07:16:41",-0.799039073278314,"36","Female","ambidextrous",1,1,0,0,FALSE,"E_F_sandra_bullock.jpg E_M_Hugh_Grant.jpg"
2737,"E_F_sandra_bullock.jpg","E_M_robert_de_niro.jpg","TRUE","pictures/stimuli/E","pictures/stimuli/E","F","M","2","57fc3e1a7a62880001c197ac","11/30/2021, 07:16:41",-0.799039073278314,"36","Female","ambidextrous",1,1,0,0,FALSE,"E_F_sandra_bullock.jpg E_M_robert_de_niro.jpg"
2934,"E_M_anthony_hopkins.jpg","E_M_tom_hankes.jpg","TRUE","pictures/stimuli/E","pictures/stimuli/E","M","M","2","57fc3e1a7a62880001c197ac","11/30/2021, 07:16:41",-0.799039073278314,"36","Female","ambidextrous",1,1,0,0,FALSE,"E_M_anthony_hopkins.jpg E_M_tom_hankes.jpg"
4868,"E_M_liam_neeson.jpg","P_F_esther_mcvey.jpg","FALSE","pictures/stimuli/E","pictures/stimuli/P","M","F","5","57fc3e1a7a62880001c197ac","11/30/2021, 07:16:41",1.02546466547193,"36","Female","ambidextrous",1,1,0,0,FALSE,"E_M_liam_neeson.jpg P_F_esther_mcvey.jpg"
4854,"P_F_esther_mcvey.jpg","P_M_Tony_Blair.jpg","TRUE","pictures/stimuli/P","pictures/stimuli/P","F","M","2","57fc3e1a7a62880001c197ac","11/30/2021, 07:16:41",-0.799039073278314,"36","Female","ambidextrous",1,1,0,0,FALSE,"P_F_esther_mcvey.jpg P_M_Tony_Blair.jpg"
3309,"E_F_Kate_Winslet.jpg","E_M_liam_neeson.jpg","TRUE","pictures/stimuli/E","pictures/stimuli/E","F","M","2","57fc3e1a7a62880001c197ac","11/30/2021, 07:16:41",-0.799039073278314,"36","Female","ambidextrous",1,1,0,0,FALSE,"E_F_Kate_Winslet.jpg E_M_liam_neeson.jpg"
4787,"E_F_angelina_jolie.jpg","P_M_david_cameron.jpg","FALSE","pictures/stimuli/E","pictures/stimuli/P","F","M","6","57fc3e1a7a62880001c197ac","11/30/2021, 07:16:41",1.63363257838868,"36","Female","ambidextrous",1,1,0,0,FALSE,"E_F_angelina_jolie.jpg P_M_david_cameron.jpg"
4986,"P_F_hillary_clinton.jpg","P_M_david_cameron.jpg","TRUE","pictures/stimuli/P","pictures/stimuli/P","F","M","2","57fc3e1a7a62880001c197ac","11/30/2021, 07:16:41",-0.799039073278314,"36","Female","ambidextrous",1,1,0,0,FALSE,"P_F_hillary_clinton.jpg P_M_david_cameron.jpg"
3162,"E_M_tom_hankes.jpg","P_F_hillary_clinton.jpg","FALSE","pictures/stimuli/E","pictures/stimuli/P","M","F","3","57fc3e1a7a62880001c197ac","11/30/2021, 07:16:41",-0.190871160361564,"36","Female","ambidextrous",1,1,0,0,FALSE,"E_M_tom_hankes.jpg P_F_hillary_clinton.jpg"
3129,"E_F_Kate_Winslet.jpg","E_M_Martin_Freeman.jpg","TRUE","pictures/stimuli/E","pictures/stimuli/E","F","M","2","57fc3e1a7a62880001c197ac","11/30/2021, 07:16:41",-0.799039073278314,"36","Female","ambidextrous",1,1,0,0,FALSE,"E_F_Kate_Winslet.jpg E_M_Martin_Freeman.jpg"
4907,"E_M_liam_neeson.jpg","P_M_boris_johnson.jpg","FALSE","pictures/stimuli/E","pictures/stimuli/P","M","M","4","57fc3e1a7a62880001c197ac","11/30/2021, 07:16:41",0.417296752555185,"36","Female","ambidextrous",1,1,0,0,FALSE,"E_M_liam_neeson.jpg P_M_boris_johnson.jpg"
3445,"E_M_Hugh_Grant.jpg","E_M_Martin_Freeman.jpg","TRUE","pictures/stimuli/E","pictures/stimuli/E","M","M","1","57fc3e1a7a62880001c197ac","11/30/2021, 07:16:41",-1.40720698619506,"36","Female","ambidextrous",1,1,0,0,FALSE,"E_M_Hugh_Grant.jpg E_M_Martin_Freeman.jpg"
2427,"E_F_angelina_jolie.jpg","E_M_nicolas_cage.jpg","TRUE","pictures/stimuli/E","pictures/stimuli/E","F","M","2","57fc3e1a7a62880001c197ac","11/30/2021, 07:16:41",-0.799039073278314,"36","Female","ambidextrous",1,1,0,0,FALSE,"E_F_angelina_jolie.jpg E_M_nicolas_cage.jpg"
3110,"E_M_robert_de_niro.jpg","P_M_boris_johnson.jpg","FALSE","pictures/stimuli/E","pictures/stimuli/P","M","M","5","57fc3e1a7a62880001c197ac","11/30/2021, 07:16:41",1.02546466547193,"36","Female","ambidextrous",1,1,0,0,FALSE,"E_M_robert_de_niro.jpg P_M_boris_johnson.jpg"
3357,"E_F_Kate_Winslet.jpg","P_F_nicola_sturgeon.jpg","FALSE","pictures/stimuli/E","pictures/stimuli/P","F","F","3","57fc3e1a7a62880001c197ac","11/30/2021, 07:16:41",-0.190871160361564,"36","Female","ambidextrous",1,1,0,0,FALSE,"E_F_Kate_Winslet.jpg P_F_nicola_sturgeon.jpg"
3048,"P_M_bill_clinton.jpg","P_M_donald_trump.jpg","TRUE","pictures/stimuli/P","pictures/stimuli/P","M","M","2","57fc3e1a7a62880001c197ac","11/30/2021, 07:16:41",-0.799039073278314,"36","Female","ambidextrous",1,1,0,0,FALSE,"P_M_bill_clinton.jpg P_M_donald_trump.jpg"
3007,"E_F_angelina_jolie.jpg","P_M_boris_johnson.jpg","FALSE","pictures/stimuli/E","pictures/stimuli/P","F","M","6","57fc3e1a7a62880001c197ac","11/30/2021, 07:16:41",1.63363257838868,"36","Female","ambidextrous",1,1,0,0,FALSE,"E_F_angelina_jolie.jpg P_M_boris_johnson.jpg"
3019,"E_M_Hugh_Grant.jpg","P_F_tehresy_may.jpg","FALSE","pictures/stimuli/E","pictures/stimuli/P","M","F","3","57fc3e1a7a62880001c197ac","11/30/2021, 07:16:41",-0.190871160361564,"36","Female","ambidextrous",1,1,0,0,FALSE,"E_M_Hugh_Grant.jpg P_F_tehresy_may.jpg"
3188,"E_M_liam_neeson.jpg","P_M_Tony_Blair.jpg","FALSE","pictures/stimuli/E","pictures/stimuli/P","M","M","3","57fc3e1a7a62880001c197ac","11/30/2021, 07:16:41",-0.190871160361564,"36","Female","ambidextrous",1,1,0,0,FALSE,"E_M_liam_neeson.jpg P_M_Tony_Blair.jpg"
4383,"E_F_Kate_Winslet.jpg","P_M_donald_trump.jpg","FALSE","pictures/stimuli/E","pictures/stimuli/P","F","M","6","57fc3e1a7a62880001c197ac","11/30/2021, 07:16:41",1.63363257838868,"36","Female","ambidextrous",1,1,0,0,FALSE,"E_F_Kate_Winslet.jpg P_M_donald_trump.jpg"
2933,"E_M_Martin_Freeman.jpg","P_F_PRITI_PATEL.jpg","FALSE","pictures/stimuli/E","pictures/stimuli/P","M","F","3","57fc3e1a7a62880001c197ac","11/30/2021, 07:16:41",-0.190871160361564,"36","Female","ambidextrous",1,1,0,0,FALSE,"E_M_Martin_Freeman.jpg P_F_PRITI_PATEL.jpg"
2711,"E_F_Judi_Dench.jpg","P_M_boris_johnson.jpg","FALSE","pictures/stimuli/E","pictures/stimuli/P","F","M","3","57fc3e1a7a62880001c197ac","11/30/2021, 07:16:41",-0.190871160361564,"36","Female","ambidextrous",1,1,0,0,FALSE,"E_F_Judi_Dench.jpg P_M_boris_johnson.jpg"
3034,"E_F_sandra_bullock.jpg","E_M_anthony_hopkins.jpg","TRUE","pictures/stimuli/E","pictures/stimuli/E","F","M","3","57fc3e1a7a62880001c197ac","11/30/2021, 07:16:41",-0.190871160361564,"36","Female","ambidextrous",1,1,0,0,FALSE,"E_F_sandra_bullock.jpg E_M_anthony_hopkins.jpg"
3231,"E_M_liam_neeson.jpg","P_F_tehresy_may.jpg","FALSE","pictures/stimuli/E","pictures/stimuli/P","M","F","4","57fc3e1a7a62880001c197ac","11/30/2021, 07:16:41",0.417296752555185,"36","Female","ambidextrous",1,1,0,0,FALSE,"E_M_liam_neeson.jpg P_F_tehresy_may.jpg"
4236,"E_F_jennifer_aniston.jpg","E_F_Judi_Dench.jpg","TRUE","pictures/stimuli/E","pictures/stimuli/E","F","F","3","57fc3e1a7a62880001c197ac","11/30/2021, 07:16:41",-0.190871160361564,"36","Female","ambidextrous",1,1,0,0,FALSE,"E_F_jennifer_aniston.jpg E_F_Judi_Dench.jpg"
2630,"E_F_Kate_Winslet.jpg","P_M_Tony_Blair.jpg","FALSE","pictures/stimuli/E","pictures/stimuli/P","F","M","3","57fc3e1a7a62880001c197ac","11/30/2021, 07:16:41",-0.190871160361564,"36","Female","ambidextrous",1,1,0,0,FALSE,"E_F_Kate_Winslet.jpg P_M_Tony_Blair.jpg"
4488,"E_M_Hugh_Grant.jpg","P_M_donald_trump.jpg","FALSE","pictures/stimuli/E","pictures/stimuli/P","M","M","3","57fc3e1a7a62880001c197ac","11/30/2021, 07:16:41",-0.190871160361564,"36","Female","ambidextrous",1,1,0,0,FALSE,"E_M_Hugh_Grant.jpg P_M_donald_trump.jpg"
3020,"E_F_keira_knightley.jpg","P_F_PRITI_PATEL.jpg","FALSE","pictures/stimuli/E","pictures/stimuli/P","F","F","3","57fc3e1a7a62880001c197ac","11/30/2021, 07:16:41",-0.190871160361564,"36","Female","ambidextrous",1,1,0,0,FALSE,"E_F_keira_knightley.jpg P_F_PRITI_PATEL.jpg"
3596,"E_M_Martin_Freeman.jpg","P_M_bill_clinton.jpg","FALSE","pictures/stimuli/E","pictures/stimuli/P","M","M","4","57fc3e1a7a62880001c197ac","11/30/2021, 07:16:41",0.417296752555185,"36","Female","ambidextrous",1,1,0,0,FALSE,"E_M_Martin_Freeman.jpg P_M_bill_clinton.jpg"
3206,"E_F_Kate_Winslet.jpg","P_F_PRITI_PATEL.jpg","FALSE","pictures/stimuli/E","pictures/stimuli/P","F","F","3","57fc3e1a7a62880001c197ac","11/30/2021, 07:16:41",-0.190871160361564,"36","Female","ambidextrous",1,1,0,0,FALSE,"E_F_Kate_Winslet.jpg P_F_PRITI_PATEL.jpg"
3515,"E_M_liam_neeson.jpg","E_M_tom_hankes.jpg","TRUE","pictures/stimuli/E","pictures/stimuli/E","M","M","2","57fc3e1a7a62880001c197ac","11/30/2021, 07:16:41",-0.799039073278314,"36","Female","ambidextrous",1,1,0,0,FALSE,"E_M_liam_neeson.jpg E_M_tom_hankes.jpg"
6389,"P_F_angela_rayner.jpg","P_M_george_Wbush.jpg","TRUE","pictures/stimuli/P","pictures/stimuli/P","F","M","5","57fc3e1a7a62880001c197ac","11/30/2021, 07:16:41",1.02546466547193,"36","Female","ambidextrous",1,1,0,0,FALSE,"P_F_angela_rayner.jpg P_M_george_Wbush.jpg"
3881,"E_F_keira_knightley.jpg","P_M_donald_trump.jpg","FALSE","pictures/stimuli/E","pictures/stimuli/P","F","M","6","57fc3e1a7a62880001c197ac","11/30/2021, 07:16:41",1.63363257838868,"36","Female","ambidextrous",1,1,0,0,FALSE,"E_F_keira_knightley.jpg P_M_donald_trump.jpg"
4283,"E_M_tom_hankes.jpg","P_F_tehresy_may.jpg","FALSE","pictures/stimuli/E","pictures/stimuli/P","M","F","5","57fc3e1a7a62880001c197ac","11/30/2021, 07:16:41",1.02546466547193,"36","Female","ambidextrous",1,1,0,0,FALSE,"E_M_tom_hankes.jpg P_F_tehresy_may.jpg"
2916,"E_M_tom_hankes.jpg","P_F_esther_mcvey.jpg","FALSE","pictures/stimuli/E","pictures/stimuli/P","M","F","5","57fc3e1a7a62880001c197ac","11/30/2021, 07:16:41",1.02546466547193,"36","Female","ambidextrous",1,1,0,0,FALSE,"E_M_tom_hankes.jpg P_F_esther_mcvey.jpg"
3454,"P_F_esther_mcvey.jpg","P_F_PRITI_PATEL.jpg","TRUE","pictures/stimuli/P","pictures/stimuli/P","F","F","1","57fc3e1a7a62880001c197ac","11/30/2021, 07:16:41",-1.40720698619506,"36","Female","ambidextrous",1,1,0,0,FALSE,"P_F_esther_mcvey.jpg P_F_PRITI_PATEL.jpg"
3765,"E_F_sandra_bullock.jpg","E_M_michael_caine.jpg","TRUE","pictures/stimuli/E","pictures/stimuli/E","F","M","4","57fc3e1a7a62880001c197ac","11/30/2021, 07:16:41",0.417296752555185,"36","Female","ambidextrous",1,1,0,0,FALSE,"E_F_sandra_bullock.jpg E_M_michael_caine.jpg"
5374,"E_M_Hugh_Grant.jpg","E_M_robert_de_niro.jpg","TRUE","pictures/stimuli/E","pictures/stimuli/E","M","M","2","57fc3e1a7a62880001c197ac","11/30/2021, 07:16:41",-0.799039073278314,"36","Female","ambidextrous",1,1,0,0,FALSE,"E_M_Hugh_Grant.jpg E_M_robert_de_niro.jpg"
2974,"E_F_Judi_Dench.jpg","P_F_nicola_sturgeon.jpg","FALSE","pictures/stimuli/E","pictures/stimuli/P","F","F","4","57fc3e1a7a62880001c197ac","11/30/2021, 07:16:41",0.417296752555185,"36","Female","ambidextrous",1,1,0,0,FALSE,"E_F_Judi_Dench.jpg P_F_nicola_sturgeon.jpg"
2930,"E_M_Martin_Freeman.jpg","P_M_Tony_Blair.jpg","FALSE","pictures/stimuli/E","pictures/stimuli/P","M","M","3","57fc3e1a7a62880001c197ac","11/30/2021, 07:16:41",-0.190871160361564,"36","Female","ambidextrous",1,1,0,0,FALSE,"E_M_Martin_Freeman.jpg P_M_Tony_Blair.jpg"
3237,"E_F_angelina_jolie.jpg","E_M_robert_de_niro.jpg","TRUE","pictures/stimuli/E","pictures/stimuli/E","F","M","3","57fc3e1a7a62880001c197ac","11/30/2021, 07:16:41",-0.190871160361564,"36","Female","ambidextrous",1,1,0,0,FALSE,"E_F_angelina_jolie.jpg E_M_robert_de_niro.jpg"
3240,"E_M_nicolas_cage.jpg","P_F_PRITI_PATEL.jpg","FALSE","pictures/stimuli/E","pictures/stimuli/P","M","F","6","57fc3e1a7a62880001c197ac","11/30/2021, 07:16:41",1.63363257838868,"36","Female","ambidextrous",1,1,0,0,FALSE,"E_M_nicolas_cage.jpg P_F_PRITI_PATEL.jpg"
3411,"E_M_Hugh_Grant.jpg","P_F_nicola_sturgeon.jpg","FALSE","pictures/stimuli/E","pictures/stimuli/P","M","F","4","57fc3e1a7a62880001c197ac","11/30/2021, 07:16:41",0.417296752555185,"36","Female","ambidextrous",1,1,0,0,FALSE,"E_M_Hugh_Grant.jpg P_F_nicola_sturgeon.jpg"
2834,"E_M_liam_neeson.jpg","E_M_Martin_Freeman.jpg","TRUE","pictures/stimuli/E","pictures/stimuli/E","M","M","1","57fc3e1a7a62880001c197ac","11/30/2021, 07:16:41",-1.40720698619506,"36","Female","ambidextrous",1,1,0,0,FALSE,"E_M_liam_neeson.jpg E_M_Martin_Freeman.jpg"
3194,"E_F_sandra_bullock.jpg","P_F_tehresy_may.jpg","FALSE","pictures/stimuli/E","pictures/stimuli/P","F","F","5","57fc3e1a7a62880001c197ac","11/30/2021, 07:16:41",1.02546466547193,"36","Female","ambidextrous",1,1,0,0,FALSE,"E_F_sandra_bullock.jpg P_F_tehresy_may.jpg"
3065,"E_M_nicolas_cage.jpg","P_F_hillary_clinton.jpg","FALSE","pictures/stimuli/E","pictures/stimuli/P","M","F","5","57fc3e1a7a62880001c197ac","11/30/2021, 07:16:41",1.02546466547193,"36","Female","ambidextrous",1,1,0,0,FALSE,"E_M_nicolas_cage.jpg P_F_hillary_clinton.jpg"
2707,"E_M_Hugh_Grant.jpg","P_M_george_Wbush.jpg","FALSE","pictures/stimuli/E","pictures/stimuli/P","M","M","5","57fc3e1a7a62880001c197ac","11/30/2021, 07:16:41",1.02546466547193,"36","Female","ambidextrous",1,1,0,0,FALSE,"E_M_Hugh_Grant.jpg P_M_george_Wbush.jpg"
3013,"E_F_Judi_Dench.jpg","P_M_george_Wbush.jpg","FALSE","pictures/stimuli/E","pictures/stimuli/P","F","M","5","57fc3e1a7a62880001c197ac","11/30/2021, 07:16:41",1.02546466547193,"36","Female","ambidextrous",1,1,0,0,FALSE,"E_F_Judi_Dench.jpg P_M_george_Wbush.jpg"
3600,"E_M_Martin_Freeman.jpg","P_F_angela_rayner.jpg","FALSE","pictures/stimuli/E","pictures/stimuli/P","M","F","5","57fc3e1a7a62880001c197ac","11/30/2021, 07:16:41",1.02546466547193,"36","Female","ambidextrous",1,1,0,0,FALSE,"E_M_Martin_Freeman.jpg P_F_angela_rayner.jpg"
4897,"P_F_nicola_sturgeon.jpg","P_M_george_Wbush.jpg","TRUE","pictures/stimuli/P","pictures/stimuli/P","F","M","3","57fc3e1a7a62880001c197ac","11/30/2021, 07:16:41",-0.190871160361564,"36","Female","ambidextrous",1,1,0,0,FALSE,"P_F_nicola_sturgeon.jpg P_M_george_Wbush.jpg"
3200,"E_M_Martin_Freeman.jpg","P_F_tehresy_may.jpg","FALSE","pictures/stimuli/E","pictures/stimuli/P","M","F","4","57fc3e1a7a62880001c197ac","11/30/2021, 07:16:41",0.417296752555185,"36","Female","ambidextrous",1,1,0,0,FALSE,"E_M_Martin_Freeman.jpg P_F_tehresy_may.jpg"
3528,"P_M_david_cameron.jpg","P_M_donald_trump.jpg","TRUE","pictures/stimuli/P","pictures/stimuli/P","M","M","1","57fc3e1a7a62880001c197ac","11/30/2021, 07:16:41",-1.40720698619506,"36","Female","ambidextrous",1,1,0,0,FALSE,"P_M_david_cameron.jpg P_M_donald_trump.jpg"
2702,"P_F_nicola_sturgeon.jpg","P_M_boris_johnson.jpg","TRUE","pictures/stimuli/P","pictures/stimuli/P","F","M","1","57fc3e1a7a62880001c197ac","11/30/2021, 07:16:41",-1.40720698619506,"36","Female","ambidextrous",1,1,0,0,FALSE,"P_F_nicola_sturgeon.jpg P_M_boris_johnson.jpg"
2427,"P_F_hillary_clinton.jpg","P_F_tehresy_may.jpg","TRUE","pictures/stimuli/P","pictures/stimuli/P","F","F","1","57fc3e1a7a62880001c197ac","11/30/2021, 07:16:41",-1.40720698619506,"36","Female","ambidextrous",1,1,0,0,FALSE,"P_F_hillary_clinton.jpg P_F_tehresy_may.jpg"
4150,"E_F_Kate_Winslet.jpg","P_F_esther_mcvey.jpg","FALSE","pictures/stimuli/E","pictures/stimuli/P","F","F","4","57fc3e1a7a62880001c197ac","11/30/2021, 07:16:41",0.417296752555185,"36","Female","ambidextrous",1,1,0,0,FALSE,"E_F_Kate_Winslet.jpg P_F_esther_mcvey.jpg"
3074,"E_F_Judi_Dench.jpg","P_M_Tony_Blair.jpg","FALSE","pictures/stimuli/E","pictures/stimuli/P","F","M","4","57fc3e1a7a62880001c197ac","11/30/2021, 07:16:41",0.417296752555185,"36","Female","ambidextrous",1,1,0,0,FALSE,"E_F_Judi_Dench.jpg P_M_Tony_Blair.jpg"
3637,"E_F_keira_knightley.jpg","P_M_david_cameron.jpg","FALSE","pictures/stimuli/E","pictures/stimuli/P","F","M","5","57fc3e1a7a62880001c197ac","11/30/2021, 07:16:41",1.02546466547193,"36","Female","ambidextrous",1,1,0,0,FALSE,"E_F_keira_knightley.jpg P_M_david_cameron.jpg"
3132,"E_M_Martin_Freeman.jpg","P_F_nicola_sturgeon.jpg","FALSE","pictures/stimuli/E","pictures/stimuli/P","M","F","4","57fc3e1a7a62880001c197ac","11/30/2021, 07:16:41",0.417296752555185,"36","Female","ambidextrous",1,1,0,0,FALSE,"E_M_Martin_Freeman.jpg P_F_nicola_sturgeon.jpg"
2699,"E_F_keira_knightley.jpg","P_M_boris_johnson.jpg","FALSE","pictures/stimuli/E","pictures/stimuli/P","F","M","5","57fc3e1a7a62880001c197ac","11/30/2021, 07:16:41",1.02546466547193,"36","Female","ambidextrous",1,1,0,0,FALSE,"E_F_keira_knightley.jpg P_M_boris_johnson.jpg"
3748,"E_M_michael_caine.jpg","P_F_esther_mcvey.jpg","FALSE","pictures/stimuli/E","pictures/stimuli/P","M","F","5","57fc3e1a7a62880001c197ac","11/30/2021, 07:16:41",1.02546466547193,"36","Female","ambidextrous",1,1,0,0,FALSE,"E_M_michael_caine.jpg P_F_esther_mcvey.jpg"
2971,"E_F_sandra_bullock.jpg","P_M_donald_trump.jpg","FALSE","pictures/stimuli/E","pictures/stimuli/P","F","M","5","57fc3e1a7a62880001c197ac","11/30/2021, 07:16:41",1.02546466547193,"36","Female","ambidextrous",1,1,0,0,FALSE,"E_F_sandra_bullock.jpg P_M_donald_trump.jpg"
2454,"P_F_hillary_clinton.jpg","P_M_bill_clinton.jpg","TRUE","pictures/stimuli/P","pictures/stimuli/P","F","M","1","57fc3e1a7a62880001c197ac","11/30/2021, 07:16:41",-1.40720698619506,"36","Female","ambidextrous",1,1,0,0,FALSE,"P_F_hillary_clinton.jpg P_M_bill_clinton.jpg"
2192,"P_F_esther_mcvey.jpg","P_F_tehresy_may.jpg","TRUE","pictures/stimuli/P","pictures/stimuli/P","F","F","1","57fc3e1a7a62880001c197ac","11/30/2021, 07:16:41",-1.40720698619506,"36","Female","ambidextrous",1,1,0,0,FALSE,"P_F_esther_mcvey.jpg P_F_tehresy_may.jpg"
5100,"P_F_angela_rayner.jpg","P_M_boris_johnson.jpg","TRUE","pictures/stimuli/P","pictures/stimuli/P","F","M","2","57fc3e1a7a62880001c197ac","11/30/2021, 07:16:41",-0.799039073278314,"36","Female","ambidextrous",1,1,0,0,FALSE,"P_F_angela_rayner.jpg P_M_boris_johnson.jpg"
3190,"E_M_Hugh_Grant.jpg","P_M_Tony_Blair.jpg","FALSE","pictures/stimuli/E","pictures/stimuli/P","M","M","4","57fc3e1a7a62880001c197ac","11/30/2021, 07:16:41",0.417296752555185,"36","Female","ambidextrous",1,1,0,0,FALSE,"E_M_Hugh_Grant.jpg P_M_Tony_Blair.jpg"
3725,"E_F_jennifer_aniston.jpg","P_M_bill_clinton.jpg","FALSE","pictures/stimuli/E","pictures/stimuli/P","F","M","5","57fc3e1a7a62880001c197ac","11/30/2021, 07:16:41",1.02546466547193,"36","Female","ambidextrous",1,1,0,0,FALSE,"E_F_jennifer_aniston.jpg P_M_bill_clinton.jpg"
2574,"E_M_Martin_Freeman.jpg","P_M_david_cameron.jpg","FALSE","pictures/stimuli/E","pictures/stimuli/P","M","M","4","57fc3e1a7a62880001c197ac","11/30/2021, 07:16:41",0.417296752555185,"36","Female","ambidextrous",1,1,0,0,FALSE,"E_M_Martin_Freeman.jpg P_M_david_cameron.jpg"
3349,"E_F_Judi_Dench.jpg","E_F_Kate_Winslet.jpg","TRUE","pictures/stimuli/E","pictures/stimuli/E","F","F","1","57fc3e1a7a62880001c197ac","11/30/2021, 07:16:41",-1.40720698619506,"36","Female","ambidextrous",1,1,0,0,FALSE,"E_F_Judi_Dench.jpg E_F_Kate_Winslet.jpg"
3236,"E_F_angelina_jolie.jpg","P_F_esther_mcvey.jpg","FALSE","pictures/stimuli/E","pictures/stimuli/P","F","F","5","57fc3e1a7a62880001c197ac","11/30/2021, 07:16:41",1.02546466547193,"36","Female","ambidextrous",1,1,0,0,FALSE,"E_F_angelina_jolie.jpg P_F_esther_mcvey.jpg"
2904,"E_M_robert_de_niro.jpg","P_F_esther_mcvey.jpg","FALSE","pictures/stimuli/E","pictures/stimuli/P","M","F","6","57fc3e1a7a62880001c197ac","11/30/2021, 07:16:41",1.63363257838868,"36","Female","ambidextrous",1,1,0,0,FALSE,"E_M_robert_de_niro.jpg P_F_esther_mcvey.jpg"
2974,"E_M_robert_de_niro.jpg","P_F_hillary_clinton.jpg","FALSE","pictures/stimuli/E","pictures/stimuli/P","M","F","5","57fc3e1a7a62880001c197ac","11/30/2021, 07:16:41",1.02546466547193,"36","Female","ambidextrous",1,1,0,0,FALSE,"E_M_robert_de_niro.jpg P_F_hillary_clinton.jpg"
2711,"E_F_sandra_bullock.jpg","P_M_boris_johnson.jpg","FALSE","pictures/stimuli/E","pictures/stimuli/P","F","M","6","57fc3e1a7a62880001c197ac","11/30/2021, 07:16:41",1.63363257838868,"36","Female","ambidextrous",1,1,0,0,FALSE,"E_F_sandra_bullock.jpg P_M_boris_johnson.jpg"
4993,"E_F_angelina_jolie.jpg","E_M_Hugh_Grant.jpg","TRUE","pictures/stimuli/E","pictures/stimuli/E","F","M","2","57fc3e1a7a62880001c197ac","11/30/2021, 07:16:41",-0.799039073278314,"36","Female","ambidextrous",1,1,0,0,FALSE,"E_F_angelina_jolie.jpg E_M_Hugh_Grant.jpg"
5561,"E_M_liam_neeson.jpg","P_F_hillary_clinton.jpg","FALSE","pictures/stimuli/E","pictures/stimuli/P","M","F","6","57fc3e1a7a62880001c197ac","11/30/2021, 07:16:41",1.63363257838868,"36","Female","ambidextrous",1,1,0,0,FALSE,"E_M_liam_neeson.jpg P_F_hillary_clinton.jpg"
3721,"P_F_nicola_sturgeon.jpg","P_M_Tony_Blair.jpg","TRUE","pictures/stimuli/P","pictures/stimuli/P","F","M","1","57fc3e1a7a62880001c197ac","11/30/2021, 07:16:41",-1.40720698619506,"36","Female","ambidextrous",1,1,0,0,FALSE,"P_F_nicola_sturgeon.jpg P_M_Tony_Blair.jpg"
2771,"E_M_robert_de_niro.jpg","P_M_david_cameron.jpg","FALSE","pictures/stimuli/E","pictures/stimuli/P","M","M","6","57fc3e1a7a62880001c197ac","11/30/2021, 07:16:41",1.63363257838868,"36","Female","ambidextrous",1,1,0,0,FALSE,"E_M_robert_de_niro.jpg P_M_david_cameron.jpg"
3576,"E_M_tom_hankes.jpg","P_M_george_Wbush.jpg","FALSE","pictures/stimuli/E","pictures/stimuli/P","M","M","5","57fc3e1a7a62880001c197ac","11/30/2021, 07:16:41",1.02546466547193,"36","Female","ambidextrous",1,1,0,0,FALSE,"E_M_tom_hankes.jpg P_M_george_Wbush.jpg"
3735,"E_M_Martin_Freeman.jpg","E_M_tom_hankes.jpg","TRUE","pictures/stimuli/E","pictures/stimuli/E","M","M","4","57fc3e1a7a62880001c197ac","11/30/2021, 07:16:41",0.417296752555185,"36","Female","ambidextrous",1,1,0,0,FALSE,"E_M_Martin_Freeman.jpg E_M_tom_hankes.jpg"
3018,"E_F_jennifer_aniston.jpg","E_M_tom_hankes.jpg","TRUE","pictures/stimuli/E","pictures/stimuli/E","F","M","3","57fc3e1a7a62880001c197ac","11/30/2021, 07:16:41",-0.190871160361564,"36","Female","ambidextrous",1,1,0,0,FALSE,"E_F_jennifer_aniston.jpg E_M_tom_hankes.jpg"
3585,"E_F_sandra_bullock.jpg","P_F_esther_mcvey.jpg","FALSE","pictures/stimuli/E","pictures/stimuli/P","F","F","5","57fc3e1a7a62880001c197ac","11/30/2021, 07:16:41",1.02546466547193,"36","Female","ambidextrous",1,1,0,0,FALSE,"E_F_sandra_bullock.jpg P_F_esther_mcvey.jpg"
4244,"E_F_jennifer_aniston.jpg","E_M_Hugh_Grant.jpg","TRUE","pictures/stimuli/E","pictures/stimuli/E","F","M","2","57fc3e1a7a62880001c197ac","11/30/2021, 07:16:41",-0.799039073278314,"36","Female","ambidextrous",1,1,0,0,FALSE,"E_F_jennifer_aniston.jpg E_M_Hugh_Grant.jpg"
3982,"P_M_george_Wbush.jpg","P_M_Tony_Blair.jpg","TRUE","pictures/stimuli/P","pictures/stimuli/P","M","M","2","57fc3e1a7a62880001c197ac","11/30/2021, 07:16:41",-0.799039073278314,"36","Female","ambidextrous",1,1,0,0,FALSE,"P_M_george_Wbush.jpg P_M_Tony_Blair.jpg"
3652,"E_M_tom_hankes.jpg","P_M_bill_clinton.jpg","FALSE","pictures/stimuli/E","pictures/stimuli/P","M","M","4","57fc3e1a7a62880001c197ac","11/30/2021, 07:16:41",0.417296752555185,"36","Female","ambidextrous",1,1,0,0,FALSE,"E_M_tom_hankes.jpg P_M_bill_clinton.jpg"
2447,"E_F_jennifer_aniston.jpg","E_M_Martin_Freeman.jpg","TRUE","pictures/stimuli/E","pictures/stimuli/E","F","M","3","57fc3e1a7a62880001c197ac","11/30/2021, 07:16:41",-0.190871160361564,"36","Female","ambidextrous",1,1,0,0,FALSE,"E_F_jennifer_aniston.jpg E_M_Martin_Freeman.jpg"
4531,"E_F_sandra_bullock.jpg","E_M_nicolas_cage.jpg","TRUE","pictures/stimuli/E","pictures/stimuli/E","F","M","2","57fc3e1a7a62880001c197ac","11/30/2021, 07:16:41",-0.799039073278314,"36","Female","ambidextrous",1,1,0,0,FALSE,"E_F_sandra_bullock.jpg E_M_nicolas_cage.jpg"
2953,"E_F_sandra_bullock.jpg","P_M_david_cameron.jpg","FALSE","pictures/stimuli/E","pictures/stimuli/P","F","M","6","57fc3e1a7a62880001c197ac","11/30/2021, 07:16:41",1.63363257838868,"36","Female","ambidextrous",1,1,0,0,FALSE,"E_F_sandra_bullock.jpg P_M_david_cameron.jpg"
3744,"E_F_Judi_Dench.jpg","P_F_esther_mcvey.jpg","FALSE","pictures/stimuli/E","pictures/stimuli/P","F","F","5","57fc3e1a7a62880001c197ac","11/30/2021, 07:16:41",1.02546466547193,"36","Female","ambidextrous",1,1,0,0,FALSE,"E_F_Judi_Dench.jpg P_F_esther_mcvey.jpg"
3093,"E_F_sandra_bullock.jpg","P_M_bill_clinton.jpg","FALSE","pictures/stimuli/E","pictures/stimuli/P","F","M","4","57fc3e1a7a62880001c197ac","11/30/2021, 07:16:41",0.417296752555185,"36","Female","ambidextrous",1,1,0,0,FALSE,"E_F_sandra_bullock.jpg P_M_bill_clinton.jpg"
3218,"E_F_angelina_jolie.jpg","P_F_tehresy_may.jpg","FALSE","pictures/stimuli/E","pictures/stimuli/P","F","F","5","57fc3e1a7a62880001c197ac","11/30/2021, 07:16:41",1.02546466547193,"36","Female","ambidextrous",1,1,0,0,FALSE,"E_F_angelina_jolie.jpg P_F_tehresy_may.jpg"
3870,"E_M_liam_neeson.jpg","E_M_michael_caine.jpg","TRUE","pictures/stimuli/E","pictures/stimuli/E","M","M","1","57fc3e1a7a62880001c197ac","11/30/2021, 07:16:41",-1.40720698619506,"36","Female","ambidextrous",1,1,0,0,FALSE,"E_M_liam_neeson.jpg E_M_michael_caine.jpg"
2711,"P_F_PRITI_PATEL.jpg","P_M_bill_clinton.jpg","TRUE","pictures/stimuli/P","pictures/stimuli/P","F","M","2","57fc3e1a7a62880001c197ac","11/30/2021, 07:16:41",-0.799039073278314,"36","Female","ambidextrous",1,1,0,0,FALSE,"P_F_PRITI_PATEL.jpg P_M_bill_clinton.jpg"
2747,"E_M_Hugh_Grant.jpg","E_M_tom_hankes.jpg","TRUE","pictures/stimuli/E","pictures/stimuli/E","M","M","1","57fc3e1a7a62880001c197ac","11/30/2021, 07:16:41",-1.40720698619506,"36","Female","ambidextrous",1,1,0,0,FALSE,"E_M_Hugh_Grant.jpg E_M_tom_hankes.jpg"
3445,"E_F_Kate_Winslet.jpg","P_M_david_cameron.jpg","FALSE","pictures/stimuli/E","pictures/stimuli/P","F","M","4","57fc3e1a7a62880001c197ac","11/30/2021, 07:16:41",0.417296752555185,"36","Female","ambidextrous",1,1,0,0,FALSE,"E_F_Kate_Winslet.jpg P_M_david_cameron.jpg"
3266,"E_F_jennifer_aniston.jpg","E_F_Kate_Winslet.jpg","TRUE","pictures/stimuli/E","pictures/stimuli/E","F","F","2","57fc3e1a7a62880001c197ac","11/30/2021, 07:16:41",-0.799039073278314,"36","Female","ambidextrous",1,1,0,0,FALSE,"E_F_jennifer_aniston.jpg E_F_Kate_Winslet.jpg"
4067,"E_M_michael_caine.jpg","E_M_nicolas_cage.jpg","TRUE","pictures/stimuli/E","pictures/stimuli/E","M","M","2","57fc3e1a7a62880001c197ac","11/30/2021, 07:16:41",-0.799039073278314,"36","Female","ambidextrous",1,1,0,0,FALSE,"E_M_michael_caine.jpg E_M_nicolas_cage.jpg"
3912,"E_M_michael_caine.jpg","P_M_david_cameron.jpg","FALSE","pictures/stimuli/E","pictures/stimuli/P","M","M","5","57fc3e1a7a62880001c197ac","11/30/2021, 07:16:41",1.02546466547193,"36","Female","ambidextrous",1,1,0,0,FALSE,"E_M_michael_caine.jpg P_M_david_cameron.jpg"
3717,"E_F_sandra_bullock.jpg","E_M_Martin_Freeman.jpg","TRUE","pictures/stimuli/E","pictures/stimuli/E","F","M","3","57fc3e1a7a62880001c197ac","11/30/2021, 07:16:41",-0.190871160361564,"36","Female","ambidextrous",1,1,0,0,FALSE,"E_F_sandra_bullock.jpg E_M_Martin_Freeman.jpg"
3206,"E_F_sandra_bullock.jpg","P_F_angela_rayner.jpg","FALSE","pictures/stimuli/E","pictures/stimuli/P","F","F","5","57fc3e1a7a62880001c197ac","11/30/2021, 07:16:41",1.02546466547193,"36","Female","ambidextrous",1,1,0,0,FALSE,"E_F_sandra_bullock.jpg P_F_angela_rayner.jpg"
3090,"E_M_michael_caine.jpg","P_M_boris_johnson.jpg","FALSE","pictures/stimuli/E","pictures/stimuli/P","M","M","5","57fc3e1a7a62880001c197ac","11/30/2021, 07:16:41",1.02546466547193,"36","Female","ambidextrous",1,1,0,0,FALSE,"E_M_michael_caine.jpg P_M_boris_johnson.jpg"
2804,"E_M_tom_hankes.jpg","P_F_angela_rayner.jpg","FALSE","pictures/stimuli/E","pictures/stimuli/P","M","F","6","57fc3e1a7a62880001c197ac","11/30/2021, 07:16:41",1.63363257838868,"36","Female","ambidextrous",1,1,0,0,FALSE,"E_M_tom_hankes.jpg P_F_angela_rayner.jpg"
3277,"P_F_nicola_sturgeon.jpg","P_M_david_cameron.jpg","TRUE","pictures/stimuli/P","pictures/stimuli/P","F","M","1","57fc3e1a7a62880001c197ac","11/30/2021, 07:16:41",-1.40720698619506,"36","Female","ambidextrous",1,1,0,0,FALSE,"P_F_nicola_sturgeon.jpg P_M_david_cameron.jpg"
3287,"E_M_nicolas_cage.jpg","P_M_Tony_Blair.jpg","FALSE","pictures/stimuli/E","pictures/stimuli/P","M","M","5","57fc3e1a7a62880001c197ac","11/30/2021, 07:16:41",1.02546466547193,"36","Female","ambidextrous",1,1,0,0,FALSE,"E_M_nicolas_cage.jpg P_M_Tony_Blair.jpg"
3873,"E_F_keira_knightley.jpg","E_M_Hugh_Grant.jpg","TRUE","pictures/stimuli/E","pictures/stimuli/E","F","M","2","57fc3e1a7a62880001c197ac","11/30/2021, 07:16:41",-0.799039073278314,"36","Female","ambidextrous",1,1,0,0,FALSE,"E_F_keira_knightley.jpg E_M_Hugh_Grant.jpg"
2962,"E_F_keira_knightley.jpg","P_F_angela_rayner.jpg","FALSE","pictures/stimuli/E","pictures/stimuli/P","F","F","4","57fc3e1a7a62880001c197ac","11/30/2021, 07:16:41",0.417296752555185,"36","Female","ambidextrous",1,1,0,0,FALSE,"E_F_keira_knightley.jpg P_F_angela_rayner.jpg"
3647,"E_F_angelina_jolie.jpg","P_M_donald_trump.jpg","FALSE","pictures/stimuli/E","pictures/stimuli/P","F","M","5","57fc3e1a7a62880001c197ac","11/30/2021, 07:16:41",1.02546466547193,"36","Female","ambidextrous",1,1,0,0,FALSE,"E_F_angelina_jolie.jpg P_M_donald_trump.jpg"
3129,"E_F_Judi_Dench.jpg","E_M_robert_de_niro.jpg","TRUE","pictures/stimuli/E","pictures/stimuli/E","F","M","2","57fc3e1a7a62880001c197ac","11/30/2021, 07:16:41",-0.799039073278314,"36","Female","ambidextrous",1,1,0,0,FALSE,"E_F_Judi_Dench.jpg E_M_robert_de_niro.jpg"
7790,"P_F_angela_rayner.jpg","P_F_tehresy_may.jpg","TRUE","pictures/stimuli/P","pictures/stimuli/P","F","F","1","57fc3e1a7a62880001c197ac","11/30/2021, 07:16:41",-1.40720698619506,"36","Female","ambidextrous",1,1,0,0,FALSE,"P_F_angela_rayner.jpg P_F_tehresy_may.jpg"
3957,"E_F_keira_knightley.jpg","E_M_robert_de_niro.jpg","TRUE","pictures/stimuli/E","pictures/stimuli/E","F","M","3","57fc3e1a7a62880001c197ac","11/30/2021, 07:16:41",-0.190871160361564,"36","Female","ambidextrous",1,1,0,0,FALSE,"E_F_keira_knightley.jpg E_M_robert_de_niro.jpg"
7998,"E_F_jennifer_aniston.jpg","E_M_anthony_hopkins.jpg","TRUE","pictures/stimuli/E","pictures/stimuli/E","F","M","3","57fc3e1a7a62880001c197ac","11/30/2021, 07:16:41",-0.190871160361564,"36","Female","ambidextrous",1,1,0,0,FALSE,"E_F_jennifer_aniston.jpg E_M_anthony_hopkins.jpg"
2710,"E_F_angelina_jolie.jpg","E_F_sandra_bullock.jpg","TRUE","pictures/stimuli/E","pictures/stimuli/E","F","F","1","57fc3e1a7a62880001c197ac","11/30/2021, 07:16:41",-1.40720698619506,"36","Female","ambidextrous",1,1,0,0,FALSE,"E_F_angelina_jolie.jpg E_F_sandra_bullock.jpg"
2894,"E_M_anthony_hopkins.jpg","P_F_nicola_sturgeon.jpg","FALSE","pictures/stimuli/E","pictures/stimuli/P","M","F","4","57fc3e1a7a62880001c197ac","11/30/2021, 07:16:41",0.417296752555185,"36","Female","ambidextrous",1,1,0,0,FALSE,"E_M_anthony_hopkins.jpg P_F_nicola_sturgeon.jpg"
3160,"E_M_Hugh_Grant.jpg","P_M_david_cameron.jpg","FALSE","pictures/stimuli/E","pictures/stimuli/P","M","M","3","57fc3e1a7a62880001c197ac","11/30/2021, 07:16:41",-0.190871160361564,"36","Female","ambidextrous",1,1,0,0,FALSE,"E_M_Hugh_Grant.jpg P_M_david_cameron.jpg"
4075,"E_F_Kate_Winslet.jpg","P_M_bill_clinton.jpg","FALSE","pictures/stimuli/E","pictures/stimuli/P","F","M","5","57fc3e1a7a62880001c197ac","11/30/2021, 07:16:41",1.02546466547193,"36","Female","ambidextrous",1,1,0,0,FALSE,"E_F_Kate_Winslet.jpg P_M_bill_clinton.jpg"
6672,"E_M_anthony_hopkins.jpg","P_M_bill_clinton.jpg","FALSE","pictures/stimuli/E","pictures/stimuli/P","M","M","4","57fc3e1a7a62880001c197ac","11/30/2021, 07:16:41",0.417296752555185,"36","Female","ambidextrous",1,1,0,0,FALSE,"E_M_anthony_hopkins.jpg P_M_bill_clinton.jpg"
2504,"E_M_tom_hankes.jpg","P_F_nicola_sturgeon.jpg","FALSE","pictures/stimuli/E","pictures/stimuli/P","M","F","6","57fc3e1a7a62880001c197ac","11/30/2021, 07:16:41",1.63363257838868,"36","Female","ambidextrous",1,1,0,0,FALSE,"E_M_tom_hankes.jpg P_F_nicola_sturgeon.jpg"
2863,"E_M_tom_hankes.jpg","P_M_Tony_Blair.jpg","FALSE","pictures/stimuli/E","pictures/stimuli/P","M","M","6","57fc3e1a7a62880001c197ac","11/30/2021, 07:16:41",1.63363257838868,"36","Female","ambidextrous",1,1,0,0,FALSE,"E_M_tom_hankes.jpg P_M_Tony_Blair.jpg"
2995,"E_F_angelina_jolie.jpg","E_M_michael_caine.jpg","TRUE","pictures/stimuli/E","pictures/stimuli/E","F","M","3","57fc3e1a7a62880001c197ac","11/30/2021, 07:16:41",-0.190871160361564,"36","Female","ambidextrous",1,1,0,0,FALSE,"E_F_angelina_jolie.jpg E_M_michael_caine.jpg"
3936,"E_M_Hugh_Grant.jpg","P_F_angela_rayner.jpg","FALSE","pictures/stimuli/E","pictures/stimuli/P","M","F","5","57fc3e1a7a62880001c197ac","11/30/2021, 07:16:41",1.02546466547193,"36","Female","ambidextrous",1,1,0,0,FALSE,"E_M_Hugh_Grant.jpg P_F_angela_rayner.jpg"
2994,"E_M_anthony_hopkins.jpg","E_M_michael_caine.jpg","TRUE","pictures/stimuli/E","pictures/stimuli/E","M","M","1","57fc3e1a7a62880001c197ac","11/30/2021, 07:16:41",-1.40720698619506,"36","Female","ambidextrous",1,1,0,0,FALSE,"E_M_anthony_hopkins.jpg E_M_michael_caine.jpg"
3797,"E_M_anthony_hopkins.jpg","P_F_PRITI_PATEL.jpg","FALSE","pictures/stimuli/E","pictures/stimuli/P","M","F","5","57fc3e1a7a62880001c197ac","11/30/2021, 07:16:41",1.02546466547193,"36","Female","ambidextrous",1,1,0,0,FALSE,"E_M_anthony_hopkins.jpg P_F_PRITI_PATEL.jpg"
3504,"P_F_esther_mcvey.jpg","P_M_boris_johnson.jpg","TRUE","pictures/stimuli/P","pictures/stimuli/P","F","M","1","57fc3e1a7a62880001c197ac","11/30/2021, 07:16:41",-1.40720698619506,"36","Female","ambidextrous",1,1,0,0,FALSE,"P_F_esther_mcvey.jpg P_M_boris_johnson.jpg"
3411,"P_F_hillary_clinton.jpg","P_F_nicola_sturgeon.jpg","TRUE","pictures/stimuli/P","pictures/stimuli/P","F","F","2","57fc3e1a7a62880001c197ac","11/30/2021, 07:16:41",-0.799039073278314,"36","Female","ambidextrous",1,1,0,0,FALSE,"P_F_hillary_clinton.jpg P_F_nicola_sturgeon.jpg"
3983,"E_M_anthony_hopkins.jpg","P_M_donald_trump.jpg","FALSE","pictures/stimuli/E","pictures/stimuli/P","M","M","5","57fc3e1a7a62880001c197ac","11/30/2021, 07:16:41",1.02546466547193,"36","Female","ambidextrous",1,1,0,0,FALSE,"E_M_anthony_hopkins.jpg P_M_donald_trump.jpg"
3786,"E_F_sandra_bullock.jpg","P_F_nicola_sturgeon.jpg","FALSE","pictures/stimuli/E","pictures/stimuli/P","F","F","5","57fc3e1a7a62880001c197ac","11/30/2021, 07:16:41",1.02546466547193,"36","Female","ambidextrous",1,1,0,0,FALSE,"E_F_sandra_bullock.jpg P_F_nicola_sturgeon.jpg"
2935,"P_F_PRITI_PATEL.jpg","P_M_george_Wbush.jpg","TRUE","pictures/stimuli/P","pictures/stimuli/P","F","M","2","57fc3e1a7a62880001c197ac","11/30/2021, 07:16:41",-0.799039073278314,"36","Female","ambidextrous",1,1,0,0,FALSE,"P_F_PRITI_PATEL.jpg P_M_george_Wbush.jpg"
2335,"P_M_boris_johnson.jpg","P_M_Tony_Blair.jpg","TRUE","pictures/stimuli/P","pictures/stimuli/P","M","M","1","57fc3e1a7a62880001c197ac","11/30/2021, 07:16:41",-1.40720698619506,"36","Female","ambidextrous",1,1,0,0,FALSE,"P_M_boris_johnson.jpg P_M_Tony_Blair.jpg"
2577,"E_F_jennifer_aniston.jpg","P_F_nicola_sturgeon.jpg","FALSE","pictures/stimuli/E","pictures/stimuli/P","F","F","5","57fc3e1a7a62880001c197ac","11/30/2021, 07:16:41",1.02546466547193,"36","Female","ambidextrous",1,1,0,0,FALSE,"E_F_jennifer_aniston.jpg P_F_nicola_sturgeon.jpg"
2617,"P_F_PRITI_PATEL.jpg","P_M_boris_johnson.jpg","TRUE","pictures/stimuli/P","pictures/stimuli/P","F","M","1","57fc3e1a7a62880001c197ac","11/30/2021, 07:16:41",-1.40720698619506,"36","Female","ambidextrous",1,1,0,0,FALSE,"P_F_PRITI_PATEL.jpg P_M_boris_johnson.jpg"
4265,"E_F_Judi_Dench.jpg","P_M_bill_clinton.jpg","FALSE","pictures/stimuli/E","pictures/stimuli/P","F","M","4","57fc3e1a7a62880001c197ac","11/30/2021, 07:16:41",0.417296752555185,"36","Female","ambidextrous",1,1,0,0,FALSE,"E_F_Judi_Dench.jpg P_M_bill_clinton.jpg"
3733,"E_M_anthony_hopkins.jpg","P_M_boris_johnson.jpg","FALSE","pictures/stimuli/E","pictures/stimuli/P","M","M","4","57fc3e1a7a62880001c197ac","11/30/2021, 07:16:41",0.417296752555185,"36","Female","ambidextrous",1,1,0,0,FALSE,"E_M_anthony_hopkins.jpg P_M_boris_johnson.jpg"
3552,"E_F_Judi_Dench.jpg","P_F_hillary_clinton.jpg","FALSE","pictures/stimuli/E","pictures/stimuli/P","F","F","4","57fc3e1a7a62880001c197ac","11/30/2021, 07:16:41",0.417296752555185,"36","Female","ambidextrous",1,1,0,0,FALSE,"E_F_Judi_Dench.jpg P_F_hillary_clinton.jpg"
3469,"E_F_angelina_jolie.jpg","E_F_Judi_Dench.jpg","TRUE","pictures/stimuli/E","pictures/stimuli/E","F","F","3","57fc3e1a7a62880001c197ac","11/30/2021, 07:16:41",-0.190871160361564,"36","Female","ambidextrous",1,1,0,0,FALSE,"E_F_angelina_jolie.jpg E_F_Judi_Dench.jpg"
3014,"E_F_jennifer_aniston.jpg","P_M_david_cameron.jpg","FALSE","pictures/stimuli/E","pictures/stimuli/P","F","M","6","57fc3e1a7a62880001c197ac","11/30/2021, 07:16:41",1.63363257838868,"36","Female","ambidextrous",1,1,0,0,FALSE,"E_F_jennifer_aniston.jpg P_M_david_cameron.jpg"
3752,"E_M_tom_hankes.jpg","P_M_donald_trump.jpg","FALSE","pictures/stimuli/E","pictures/stimuli/P","M","M","4","57fc3e1a7a62880001c197ac","11/30/2021, 07:16:41",0.417296752555185,"36","Female","ambidextrous",1,1,0,0,FALSE,"E_M_tom_hankes.jpg P_M_donald_trump.jpg"
2751,"E_F_jennifer_aniston.jpg","E_F_sandra_bullock.jpg","TRUE","pictures/stimuli/E","pictures/stimuli/E","F","F","1","57fc3e1a7a62880001c197ac","11/30/2021, 07:16:41",-1.40720698619506,"36","Female","ambidextrous",1,1,0,0,FALSE,"E_F_jennifer_aniston.jpg E_F_sandra_bullock.jpg"
4252,"E_M_michael_caine.jpg","P_F_tehresy_may.jpg","FALSE","pictures/stimuli/E","pictures/stimuli/P","M","F","5","57fc3e1a7a62880001c197ac","11/30/2021, 07:16:41",1.02546466547193,"36","Female","ambidextrous",1,1,0,0,FALSE,"E_M_michael_caine.jpg P_F_tehresy_may.jpg"
3350,"E_F_jennifer_aniston.jpg","P_F_PRITI_PATEL.jpg","FALSE","pictures/stimuli/E","pictures/stimuli/P","F","F","5","57fc3e1a7a62880001c197ac","11/30/2021, 07:16:41",1.02546466547193,"36","Female","ambidextrous",1,1,0,0,FALSE,"E_F_jennifer_aniston.jpg P_F_PRITI_PATEL.jpg"
3214,"E_F_Judi_Dench.jpg","P_F_PRITI_PATEL.jpg","FALSE","pictures/stimuli/E","pictures/stimuli/P","F","F","4","57fc3e1a7a62880001c197ac","11/30/2021, 07:16:41",0.417296752555185,"36","Female","ambidextrous",1,1,0,0,FALSE,"E_F_Judi_Dench.jpg P_F_PRITI_PATEL.jpg"
3071,"E_F_angelina_jolie.jpg","E_F_jennifer_aniston.jpg","TRUE","pictures/stimuli/E","pictures/stimuli/E","F","F","1","57fc3e1a7a62880001c197ac","11/30/2021, 07:16:41",-1.40720698619506,"36","Female","ambidextrous",1,1,0,0,FALSE,"E_F_angelina_jolie.jpg E_F_jennifer_aniston.jpg"
2599,"E_F_jennifer_aniston.jpg","E_M_nicolas_cage.jpg","TRUE","pictures/stimuli/E","pictures/stimuli/E","F","M","2","57fc3e1a7a62880001c197ac","11/30/2021, 07:16:41",-0.799039073278314,"36","Female","ambidextrous",1,1,0,0,FALSE,"E_F_jennifer_aniston.jpg E_M_nicolas_cage.jpg"
3423,"E_M_Hugh_Grant.jpg","P_F_PRITI_PATEL.jpg","FALSE","pictures/stimuli/E","pictures/stimuli/P","M","F","3","57fc3e1a7a62880001c197ac","11/30/2021, 07:16:41",-0.190871160361564,"36","Female","ambidextrous",1,1,0,0,FALSE,"E_M_Hugh_Grant.jpg P_F_PRITI_PATEL.jpg"
4277,"P_F_angela_rayner.jpg","P_M_donald_trump.jpg","TRUE","pictures/stimuli/P","pictures/stimuli/P","F","M","2","57fc3e1a7a62880001c197ac","11/30/2021, 07:16:41",-0.799039073278314,"36","Female","ambidextrous",1,1,0,0,FALSE,"P_F_angela_rayner.jpg P_M_donald_trump.jpg"
3604,"E_M_Martin_Freeman.jpg","P_M_george_Wbush.jpg","FALSE","pictures/stimuli/E","pictures/stimuli/P","M","M","5","57fc3e1a7a62880001c197ac","11/30/2021, 07:16:41",1.02546466547193,"36","Female","ambidextrous",1,1,0,0,FALSE,"E_M_Martin_Freeman.jpg P_M_george_Wbush.jpg"
4028,"E_M_michael_caine.jpg","P_F_angela_rayner.jpg","FALSE","pictures/stimuli/E","pictures/stimuli/P","M","F","5","57fc3e1a7a62880001c197ac","11/30/2021, 07:16:41",1.02546466547193,"36","Female","ambidextrous",1,1,0,0,FALSE,"E_M_michael_caine.jpg P_F_angela_rayner.jpg"
2855,"P_F_tehresy_may.jpg","P_M_bill_clinton.jpg","TRUE","pictures/stimuli/P","pictures/stimuli/P","F","M","2","57fc3e1a7a62880001c197ac","11/30/2021, 07:16:41",-0.799039073278314,"36","Female","ambidextrous",1,1,0,0,FALSE,"P_F_tehresy_may.jpg P_M_bill_clinton.jpg"
2559,"P_F_tehresy_may.jpg","P_M_donald_trump.jpg","TRUE","pictures/stimuli/P","pictures/stimuli/P","F","M","2","57fc3e1a7a62880001c197ac","11/30/2021, 07:16:41",-0.799039073278314,"36","Female","ambidextrous",1,1,0,0,FALSE,"P_F_tehresy_may.jpg P_M_donald_trump.jpg"
4194,"E_M_anthony_hopkins.jpg","P_M_Tony_Blair.jpg","FALSE","pictures/stimuli/E","pictures/stimuli/P","M","M","4","57fc3e1a7a62880001c197ac","11/30/2021, 07:16:41",0.417296752555185,"36","Female","ambidextrous",1,1,0,0,FALSE,"E_M_anthony_hopkins.jpg P_M_Tony_Blair.jpg"
2767,"E_M_michael_caine.jpg","P_F_PRITI_PATEL.jpg","FALSE","pictures/stimuli/E","pictures/stimuli/P","M","F","4","57fc3e1a7a62880001c197ac","11/30/2021, 07:16:41",0.417296752555185,"36","Female","ambidextrous",1,1,0,0,FALSE,"E_M_michael_caine.jpg P_F_PRITI_PATEL.jpg"
3640,"E_M_nicolas_cage.jpg","P_M_boris_johnson.jpg","FALSE","pictures/stimuli/E","pictures/stimuli/P","M","M","5","57fc3e1a7a62880001c197ac","11/30/2021, 07:16:41",1.02546466547193,"36","Female","ambidextrous",1,1,0,0,FALSE,"E_M_nicolas_cage.jpg P_M_boris_johnson.jpg"
2751,"P_M_boris_johnson.jpg","P_M_david_cameron.jpg","TRUE","pictures/stimuli/P","pictures/stimuli/P","M","M","1","57fc3e1a7a62880001c197ac","11/30/2021, 07:16:41",-1.40720698619506,"36","Female","ambidextrous",1,1,0,0,FALSE,"P_M_boris_johnson.jpg P_M_david_cameron.jpg"
3837,"E_F_keira_knightley.jpg","P_F_tehresy_may.jpg","FALSE","pictures/stimuli/E","pictures/stimuli/P","F","F","4","57fc3e1a7a62880001c197ac","11/30/2021, 07:16:41",0.417296752555185,"36","Female","ambidextrous",1,1,0,0,FALSE,"E_F_keira_knightley.jpg P_F_tehresy_may.jpg"
2808,"E_F_jennifer_aniston.jpg","P_F_esther_mcvey.jpg","FALSE","pictures/stimuli/E","pictures/stimuli/P","F","F","5","57fc3e1a7a62880001c197ac","11/30/2021, 07:16:41",1.02546466547193,"36","Female","ambidextrous",1,1,0,0,FALSE,"E_F_jennifer_aniston.jpg P_F_esther_mcvey.jpg"
3058,"E_M_anthony_hopkins.jpg","P_F_esther_mcvey.jpg","FALSE","pictures/stimuli/E","pictures/stimuli/P","M","F","4","57fc3e1a7a62880001c197ac","11/30/2021, 07:16:41",0.417296752555185,"36","Female","ambidextrous",1,1,0,0,FALSE,"E_M_anthony_hopkins.jpg P_F_esther_mcvey.jpg"
2751,"E_F_angelina_jolie.jpg","P_F_hillary_clinton.jpg","FALSE","pictures/stimuli/E","pictures/stimuli/P","F","F","3","57fc3e1a7a62880001c197ac","11/30/2021, 07:16:41",-0.190871160361564,"36","Female","ambidextrous",1,1,0,0,FALSE,"E_F_angelina_jolie.jpg P_F_hillary_clinton.jpg"
2719,"P_F_nicola_sturgeon.jpg","P_M_bill_clinton.jpg","TRUE","pictures/stimuli/P","pictures/stimuli/P","F","M","2","57fc3e1a7a62880001c197ac","11/30/2021, 07:16:41",-0.799039073278314,"36","Female","ambidextrous",1,1,0,0,FALSE,"P_F_nicola_sturgeon.jpg P_M_bill_clinton.jpg"
2581,"E_F_Kate_Winslet.jpg","E_M_anthony_hopkins.jpg","TRUE","pictures/stimuli/E","pictures/stimuli/E","F","M","2","57fc3e1a7a62880001c197ac","11/30/2021, 07:16:41",-0.799039073278314,"36","Female","ambidextrous",1,1,0,0,FALSE,"E_F_Kate_Winslet.jpg E_M_anthony_hopkins.jpg"
2535,"E_F_Kate_Winslet.jpg","E_M_nicolas_cage.jpg","TRUE","pictures/stimuli/E","pictures/stimuli/E","F","M","2","57fc3e1a7a62880001c197ac","11/30/2021, 07:16:41",-0.799039073278314,"36","Female","ambidextrous",1,1,0,0,FALSE,"E_F_Kate_Winslet.jpg E_M_nicolas_cage.jpg"
3127,"E_F_Judi_Dench.jpg","E_M_Martin_Freeman.jpg","TRUE","pictures/stimuli/E","pictures/stimuli/E","F","M","2","57fc3e1a7a62880001c197ac","11/30/2021, 07:16:41",-0.799039073278314,"36","Female","ambidextrous",1,1,0,0,FALSE,"E_F_Judi_Dench.jpg E_M_Martin_Freeman.jpg"
2823,"E_M_robert_de_niro.jpg","P_M_Tony_Blair.jpg","FALSE","pictures/stimuli/E","pictures/stimuli/P","M","M","4","57fc3e1a7a62880001c197ac","11/30/2021, 07:16:41",0.417296752555185,"36","Female","ambidextrous",1,1,0,0,FALSE,"E_M_robert_de_niro.jpg P_M_Tony_Blair.jpg"
2786,"P_F_tehresy_may.jpg","P_M_boris_johnson.jpg","TRUE","pictures/stimuli/P","pictures/stimuli/P","F","M","1","57fc3e1a7a62880001c197ac","11/30/2021, 07:16:41",-1.40720698619506,"36","Female","ambidextrous",1,1,0,0,FALSE,"P_F_tehresy_may.jpg P_M_boris_johnson.jpg"
3039,"E_F_keira_knightley.jpg","P_M_Tony_Blair.jpg","FALSE","pictures/stimuli/E","pictures/stimuli/P","F","M","3","57fc3e1a7a62880001c197ac","11/30/2021, 07:16:41",-0.190871160361564,"36","Female","ambidextrous",1,1,0,0,FALSE,"E_F_keira_knightley.jpg P_M_Tony_Blair.jpg"
2120,"P_F_tehresy_may.jpg","P_M_david_cameron.jpg","TRUE","pictures/stimuli/P","pictures/stimuli/P","F","M","1","57fc3e1a7a62880001c197ac","11/30/2021, 07:16:41",-1.40720698619506,"36","Female","ambidextrous",1,1,0,0,FALSE,"P_F_tehresy_may.jpg P_M_david_cameron.jpg"
2951,"E_F_angelina_jolie.jpg","P_M_bill_clinton.jpg","FALSE","pictures/stimuli/E","pictures/stimuli/P","F","M","4","57fc3e1a7a62880001c197ac","11/30/2021, 07:16:41",0.417296752555185,"36","Female","ambidextrous",1,1,0,0,FALSE,"E_F_angelina_jolie.jpg P_M_bill_clinton.jpg"
2509,"E_F_Judi_Dench.jpg","E_M_anthony_hopkins.jpg","TRUE","pictures/stimuli/E","pictures/stimuli/E","F","M","1","57fc3e1a7a62880001c197ac","11/30/2021, 07:16:41",-1.40720698619506,"36","Female","ambidextrous",1,1,0,0,FALSE,"E_F_Judi_Dench.jpg E_M_anthony_hopkins.jpg"
2338,"P_M_david_cameron.jpg","P_M_george_Wbush.jpg","TRUE","pictures/stimuli/P","pictures/stimuli/P","M","M","2","57fc3e1a7a62880001c197ac","11/30/2021, 07:16:41",-0.799039073278314,"36","Female","ambidextrous",1,1,0,0,FALSE,"P_M_david_cameron.jpg P_M_george_Wbush.jpg"
2489,"E_F_angelina_jolie.jpg","P_M_george_Wbush.jpg","FALSE","pictures/stimuli/E","pictures/stimuli/P","F","M","4","57fc3e1a7a62880001c197ac","11/30/2021, 07:16:41",0.417296752555185,"36","Female","ambidextrous",1,1,0,0,FALSE,"E_F_angelina_jolie.jpg P_M_george_Wbush.jpg"
3525,"E_M_anthony_hopkins.jpg","E_M_Martin_Freeman.jpg","TRUE","pictures/stimuli/E","pictures/stimuli/E","M","M","2","57fc3e1a7a62880001c197ac","11/30/2021, 07:16:41",-0.799039073278314,"36","Female","ambidextrous",1,1,0,0,FALSE,"E_M_anthony_hopkins.jpg E_M_Martin_Freeman.jpg"
2602,"E_M_liam_neeson.jpg","E_M_nicolas_cage.jpg","TRUE","pictures/stimuli/E","pictures/stimuli/E","M","M","2","57fc3e1a7a62880001c197ac","11/30/2021, 07:16:41",-0.799039073278314,"36","Female","ambidextrous",1,1,0,0,FALSE,"E_M_liam_neeson.jpg E_M_nicolas_cage.jpg"
2395,"E_F_angelina_jolie.jpg","E_F_Kate_Winslet.jpg","TRUE","pictures/stimuli/E","pictures/stimuli/E","F","F","2","57fc3e1a7a62880001c197ac","11/30/2021, 07:16:41",-0.799039073278314,"36","Female","ambidextrous",1,1,0,0,FALSE,"E_F_angelina_jolie.jpg E_F_Kate_Winslet.jpg"
2391,"P_F_hillary_clinton.jpg","P_M_boris_johnson.jpg","TRUE","pictures/stimuli/P","pictures/stimuli/P","F","M","2","57fc3e1a7a62880001c197ac","11/30/2021, 07:16:41",-0.799039073278314,"36","Female","ambidextrous",1,1,0,0,FALSE,"P_F_hillary_clinton.jpg P_M_boris_johnson.jpg"
3432,"E_F_jennifer_aniston.jpg","P_M_george_Wbush.jpg","FALSE","pictures/stimuli/E","pictures/stimuli/P","F","M","4","57fc3e1a7a62880001c197ac","11/30/2021, 07:16:41",0.417296752555185,"36","Female","ambidextrous",1,1,0,0,FALSE,"E_F_jennifer_aniston.jpg P_M_george_Wbush.jpg"
4304,"P_F_nicola_sturgeon.jpg","P_F_tehresy_may.jpg","TRUE","pictures/stimuli/P","pictures/stimuli/P","F","F","1","57fc3e1a7a62880001c197ac","11/30/2021, 07:16:41",-1.40720698619506,"36","Female","ambidextrous",1,1,0,0,FALSE,"P_F_nicola_sturgeon.jpg P_F_tehresy_may.jpg"
3006,"E_M_robert_de_niro.jpg","P_F_angela_rayner.jpg","FALSE","pictures/stimuli/E","pictures/stimuli/P","M","F","6","57fc3e1a7a62880001c197ac","11/30/2021, 07:16:41",1.63363257838868,"36","Female","ambidextrous",1,1,0,0,FALSE,"E_M_robert_de_niro.jpg P_F_angela_rayner.jpg"
2664,"E_F_sandra_bullock.jpg","P_M_Tony_Blair.jpg","FALSE","pictures/stimuli/E","pictures/stimuli/P","F","M","6","57fc3e1a7a62880001c197ac","11/30/2021, 07:16:41",1.63363257838868,"36","Female","ambidextrous",1,1,0,0,FALSE,"E_F_sandra_bullock.jpg P_M_Tony_Blair.jpg"
2857,"E_F_jennifer_aniston.jpg","P_F_angela_rayner.jpg","FALSE","pictures/stimuli/E","pictures/stimuli/P","F","F","5","57fc3e1a7a62880001c197ac","11/30/2021, 07:16:41",1.02546466547193,"36","Female","ambidextrous",1,1,0,0,FALSE,"E_F_jennifer_aniston.jpg P_F_angela_rayner.jpg"
5051,"E_M_Martin_Freeman.jpg","E_M_michael_caine.jpg","TRUE","pictures/stimuli/E","pictures/stimuli/E","M","M","2","57fc3e1a7a62880001c197ac","11/30/2021, 07:16:41",-0.799039073278314,"36","Female","ambidextrous",1,1,0,0,FALSE,"E_M_Martin_Freeman.jpg E_M_michael_caine.jpg"
2951,"E_F_Judi_Dench.jpg","E_M_michael_caine.jpg","TRUE","pictures/stimuli/E","pictures/stimuli/E","F","M","2","57fc3e1a7a62880001c197ac","11/30/2021, 07:16:41",-0.799039073278314,"36","Female","ambidextrous",1,1,0,0,FALSE,"E_F_Judi_Dench.jpg E_M_michael_caine.jpg"
3441,"E_M_michael_caine.jpg","P_F_nicola_sturgeon.jpg","FALSE","pictures/stimuli/E","pictures/stimuli/P","M","F","4","57fc3e1a7a62880001c197ac","11/30/2021, 07:16:41",0.417296752555185,"36","Female","ambidextrous",1,1,0,0,FALSE,"E_M_michael_caine.jpg P_F_nicola_sturgeon.jpg"
2977,"E_M_Hugh_Grant.jpg","P_M_boris_johnson.jpg","FALSE","pictures/stimuli/E","pictures/stimuli/P","M","M","4","57fc3e1a7a62880001c197ac","11/30/2021, 07:16:41",0.417296752555185,"36","Female","ambidextrous",1,1,0,0,FALSE,"E_M_Hugh_Grant.jpg P_M_boris_johnson.jpg"
2849,"P_F_esther_mcvey.jpg","P_M_david_cameron.jpg","TRUE","pictures/stimuli/P","pictures/stimuli/P","F","M","1","57fc3e1a7a62880001c197ac","11/30/2021, 07:16:41",-1.40720698619506,"36","Female","ambidextrous",1,1,0,0,FALSE,"P_F_esther_mcvey.jpg P_M_david_cameron.jpg"
3070,"E_M_Hugh_Grant.jpg","P_F_hillary_clinton.jpg","FALSE","pictures/stimuli/E","pictures/stimuli/P","M","F","5","57fc3e1a7a62880001c197ac","11/30/2021, 07:16:41",1.02546466547193,"36","Female","ambidextrous",1,1,0,0,FALSE,"E_M_Hugh_Grant.jpg P_F_hillary_clinton.jpg"
4695,"P_M_bill_clinton.jpg","P_M_Tony_Blair.jpg","TRUE","pictures/stimuli/P","pictures/stimuli/P","M","M","1","57fc3e1a7a62880001c197ac","11/30/2021, 07:16:41",-1.40720698619506,"36","Female","ambidextrous",1,1,0,0,FALSE,"P_M_bill_clinton.jpg P_M_Tony_Blair.jpg"
2423,"P_F_esther_mcvey.jpg","P_M_donald_trump.jpg","TRUE","pictures/stimuli/P","pictures/stimuli/P","F","M","2","57fc3e1a7a62880001c197ac","11/30/2021, 07:16:41",-0.799039073278314,"36","Female","ambidextrous",1,1,0,0,FALSE,"P_F_esther_mcvey.jpg P_M_donald_trump.jpg"
2643,"E_M_liam_neeson.jpg","E_M_robert_de_niro.jpg","TRUE","pictures/stimuli/E","pictures/stimuli/E","M","M","1","57fc3e1a7a62880001c197ac","11/30/2021, 07:16:41",-1.40720698619506,"36","Female","ambidextrous",1,1,0,0,FALSE,"E_M_liam_neeson.jpg E_M_robert_de_niro.jpg"
2879,"E_F_Kate_Winslet.jpg","P_F_hillary_clinton.jpg","FALSE","pictures/stimuli/E","pictures/stimuli/P","F","F","4","57fc3e1a7a62880001c197ac","11/30/2021, 07:16:41",0.417296752555185,"36","Female","ambidextrous",1,1,0,0,FALSE,"E_F_Kate_Winslet.jpg P_F_hillary_clinton.jpg"
3110,"E_M_liam_neeson.jpg","P_M_george_Wbush.jpg","FALSE","pictures/stimuli/E","pictures/stimuli/P","M","M","5","57fc3e1a7a62880001c197ac","11/30/2021, 07:16:41",1.02546466547193,"36","Female","ambidextrous",1,1,0,0,FALSE,"E_M_liam_neeson.jpg P_M_george_Wbush.jpg"
3163,"E_M_Martin_Freeman.jpg","P_M_boris_johnson.jpg","FALSE","pictures/stimuli/E","pictures/stimuli/P","M","M","4","57fc3e1a7a62880001c197ac","11/30/2021, 07:16:41",0.417296752555185,"36","Female","ambidextrous",1,1,0,0,FALSE,"E_M_Martin_Freeman.jpg P_M_boris_johnson.jpg"
2910,"E_F_Kate_Winslet.jpg","E_M_Hugh_Grant.jpg","TRUE","pictures/stimuli/E","pictures/stimuli/E","F","M","2","57fc3e1a7a62880001c197ac","11/30/2021, 07:16:41",-0.799039073278314,"36","Female","ambidextrous",1,1,0,0,FALSE,"E_F_Kate_Winslet.jpg E_M_Hugh_Grant.jpg"
2479,"P_F_angela_rayner.jpg","P_M_david_cameron.jpg","TRUE","pictures/stimuli/P","pictures/stimuli/P","F","M","1","57fc3e1a7a62880001c197ac","11/30/2021, 07:16:41",-1.40720698619506,"36","Female","ambidextrous",1,1,0,0,FALSE,"P_F_angela_rayner.jpg P_M_david_cameron.jpg"
2704,"P_M_boris_johnson.jpg","P_M_george_Wbush.jpg","TRUE","pictures/stimuli/P","pictures/stimuli/P","M","M","2","57fc3e1a7a62880001c197ac","11/30/2021, 07:16:41",-0.799039073278314,"36","Female","ambidextrous",1,1,0,0,FALSE,"P_M_boris_johnson.jpg P_M_george_Wbush.jpg"
3945,"E_F_angelina_jolie.jpg","E_M_liam_neeson.jpg","TRUE","pictures/stimuli/E","pictures/stimuli/E","F","M","3","57fc3e1a7a62880001c197ac","11/30/2021, 07:16:41",-0.190871160361564,"36","Female","ambidextrous",1,1,0,0,FALSE,"E_F_angelina_jolie.jpg E_M_liam_neeson.jpg"
4595,"E_M_Hugh_Grant.jpg","P_M_bill_clinton.jpg","FALSE","pictures/stimuli/E","pictures/stimuli/P","M","M","4","57fc3e1a7a62880001c197ac","11/30/2021, 07:16:41",0.417296752555185,"36","Female","ambidextrous",1,1,0,0,FALSE,"E_M_Hugh_Grant.jpg P_M_bill_clinton.jpg"
2412,"E_F_sandra_bullock.jpg","P_M_george_Wbush.jpg","FALSE","pictures/stimuli/E","pictures/stimuli/P","F","M","5","57fc3e1a7a62880001c197ac","11/30/2021, 07:16:41",1.02546466547193,"36","Female","ambidextrous",1,1,0,0,FALSE,"E_F_sandra_bullock.jpg P_M_george_Wbush.jpg"
2353,"P_M_donald_trump.jpg","P_M_Tony_Blair.jpg","TRUE","pictures/stimuli/P","pictures/stimuli/P","M","M","2","57fc3e1a7a62880001c197ac","11/30/2021, 07:16:41",-0.799039073278314,"36","Female","ambidextrous",1,1,0,0,FALSE,"P_M_donald_trump.jpg P_M_Tony_Blair.jpg"
3989,"E_M_Martin_Freeman.jpg","E_M_robert_de_niro.jpg","TRUE","pictures/stimuli/E","pictures/stimuli/E","M","M","2","57fc3e1a7a62880001c197ac","11/30/2021, 07:16:41",-0.799039073278314,"36","Female","ambidextrous",1,1,0,0,FALSE,"E_M_Martin_Freeman.jpg E_M_robert_de_niro.jpg"
3844,"E_M_michael_caine.jpg","E_M_tom_hankes.jpg","TRUE","pictures/stimuli/E","pictures/stimuli/E","M","M","1","57fc3e1a7a62880001c197ac","11/30/2021, 07:16:41",-1.40720698619506,"36","Female","ambidextrous",1,1,0,0,FALSE,"E_M_michael_caine.jpg E_M_tom_hankes.jpg"
2256,"E_M_nicolas_cage.jpg","E_M_robert_de_niro.jpg","TRUE","pictures/stimuli/E","pictures/stimuli/E","M","M","1","57fc3e1a7a62880001c197ac","11/30/2021, 07:16:41",-1.40720698619506,"36","Female","ambidextrous",1,1,0,0,FALSE,"E_M_nicolas_cage.jpg E_M_robert_de_niro.jpg"
2862,"E_M_robert_de_niro.jpg","P_M_george_Wbush.jpg","FALSE","pictures/stimuli/E","pictures/stimuli/P","M","M","4","57fc3e1a7a62880001c197ac","11/30/2021, 07:16:41",0.417296752555185,"36","Female","ambidextrous",1,1,0,0,FALSE,"E_M_robert_de_niro.jpg P_M_george_Wbush.jpg"
3125,"E_F_keira_knightley.jpg","E_M_anthony_hopkins.jpg","TRUE","pictures/stimuli/E","pictures/stimuli/E","F","M","3","57fc3e1a7a62880001c197ac","11/30/2021, 07:16:41",-0.190871160361564,"36","Female","ambidextrous",1,1,0,0,FALSE,"E_F_keira_knightley.jpg E_M_anthony_hopkins.jpg"
2830,"E_F_jennifer_aniston.jpg","P_M_boris_johnson.jpg","FALSE","pictures/stimuli/E","pictures/stimuli/P","F","M","6","57fc3e1a7a62880001c197ac","11/30/2021, 07:16:41",1.63363257838868,"36","Female","ambidextrous",1,1,0,0,FALSE,"E_F_jennifer_aniston.jpg P_M_boris_johnson.jpg"
2508,"P_F_tehresy_may.jpg","P_M_Tony_Blair.jpg","TRUE","pictures/stimuli/P","pictures/stimuli/P","F","M","1","57fc3e1a7a62880001c197ac","11/30/2021, 07:16:41",-1.40720698619506,"36","Female","ambidextrous",1,1,0,0,FALSE,"P_F_tehresy_may.jpg P_M_Tony_Blair.jpg"
2891,"E_F_jennifer_aniston.jpg","P_F_hillary_clinton.jpg","FALSE","pictures/stimuli/E","pictures/stimuli/P","F","F","4","57fc3e1a7a62880001c197ac","11/30/2021, 07:16:41",0.417296752555185,"36","Female","ambidextrous",1,1,0,0,FALSE,"E_F_jennifer_aniston.jpg P_F_hillary_clinton.jpg"
3521,"E_M_anthony_hopkins.jpg","P_F_angela_rayner.jpg","FALSE","pictures/stimuli/E","pictures/stimuli/P","M","F","5","57fc3e1a7a62880001c197ac","11/30/2021, 07:16:41",1.02546466547193,"36","Female","ambidextrous",1,1,0,0,FALSE,"E_M_anthony_hopkins.jpg P_F_angela_rayner.jpg"
2775,"E_F_keira_knightley.jpg","E_M_nicolas_cage.jpg","TRUE","pictures/stimuli/E","pictures/stimuli/E","F","M","3","57fc3e1a7a62880001c197ac","11/30/2021, 07:16:41",-0.190871160361564,"36","Female","ambidextrous",1,1,0,0,FALSE,"E_F_keira_knightley.jpg E_M_nicolas_cage.jpg"
2759,"P_F_angela_rayner.jpg","P_F_hillary_clinton.jpg","TRUE","pictures/stimuli/P","pictures/stimuli/P","F","F","2","57fc3e1a7a62880001c197ac","11/30/2021, 07:16:41",-0.799039073278314,"36","Female","ambidextrous",1,1,0,0,FALSE,"P_F_angela_rayner.jpg P_F_hillary_clinton.jpg"
3883,"E_M_michael_caine.jpg","P_M_bill_clinton.jpg","FALSE","pictures/stimuli/E","pictures/stimuli/P","M","M","4","57fc3e1a7a62880001c197ac","11/30/2021, 07:16:41",0.417296752555185,"36","Female","ambidextrous",1,1,0,0,FALSE,"E_M_michael_caine.jpg P_M_bill_clinton.jpg"
3319,"E_M_liam_neeson.jpg","P_F_angela_rayner.jpg","FALSE","pictures/stimuli/E","pictures/stimuli/P","M","F","5","57fc3e1a7a62880001c197ac","11/30/2021, 07:16:41",1.02546466547193,"36","Female","ambidextrous",1,1,0,0,FALSE,"E_M_liam_neeson.jpg P_F_angela_rayner.jpg"
2798,"E_F_Judi_Dench.jpg","E_M_tom_hankes.jpg","TRUE","pictures/stimuli/E","pictures/stimuli/E","F","M","3","57fc3e1a7a62880001c197ac","11/30/2021, 07:16:41",-0.190871160361564,"36","Female","ambidextrous",1,1,0,0,FALSE,"E_F_Judi_Dench.jpg E_M_tom_hankes.jpg"
3226,"P_M_donald_trump.jpg","P_M_george_Wbush.jpg","TRUE","pictures/stimuli/P","pictures/stimuli/P","M","M","1","57fc3e1a7a62880001c197ac","11/30/2021, 07:16:41",-1.40720698619506,"36","Female","ambidextrous",1,1,0,0,FALSE,"P_M_donald_trump.jpg P_M_george_Wbush.jpg"
3127,"E_F_Kate_Winslet.jpg","P_F_angela_rayner.jpg","FALSE","pictures/stimuli/E","pictures/stimuli/P","F","F","4","57fc3e1a7a62880001c197ac","11/30/2021, 07:16:41",0.417296752555185,"36","Female","ambidextrous",1,1,0,0,FALSE,"E_F_Kate_Winslet.jpg P_F_angela_rayner.jpg"
2451,"E_F_keira_knightley.jpg","P_F_nicola_sturgeon.jpg","FALSE","pictures/stimuli/E","pictures/stimuli/P","F","F","4","57fc3e1a7a62880001c197ac","11/30/2021, 07:16:41",0.417296752555185,"36","Female","ambidextrous",1,1,0,0,FALSE,"E_F_keira_knightley.jpg P_F_nicola_sturgeon.jpg"
2708,"E_M_anthony_hopkins.jpg","E_M_Hugh_Grant.jpg","TRUE","pictures/stimuli/E","pictures/stimuli/E","M","M","1","57fc3e1a7a62880001c197ac","11/30/2021, 07:16:41",-1.40720698619506,"36","Female","ambidextrous",1,1,0,0,FALSE,"E_M_anthony_hopkins.jpg E_M_Hugh_Grant.jpg"
2827,"E_F_Kate_Winslet.jpg","P_M_boris_johnson.jpg","FALSE","pictures/stimuli/E","pictures/stimuli/P","F","M","5","57fc3e1a7a62880001c197ac","11/30/2021, 07:16:41",1.02546466547193,"36","Female","ambidextrous",1,1,0,0,FALSE,"E_F_Kate_Winslet.jpg P_M_boris_johnson.jpg"
2614,"E_M_nicolas_cage.jpg","P_F_nicola_sturgeon.jpg","FALSE","pictures/stimuli/E","pictures/stimuli/P","M","F","6","57fc3e1a7a62880001c197ac","11/30/2021, 07:16:41",1.63363257838868,"36","Female","ambidextrous",1,1,0,0,FALSE,"E_M_nicolas_cage.jpg P_F_nicola_sturgeon.jpg"
2841,"P_F_esther_mcvey.jpg","P_M_george_Wbush.jpg","TRUE","pictures/stimuli/P","pictures/stimuli/P","F","M","3","57fc3e1a7a62880001c197ac","11/30/2021, 07:16:41",-0.190871160361564,"36","Female","ambidextrous",1,1,0,0,FALSE,"P_F_esther_mcvey.jpg P_M_george_Wbush.jpg"
4246,"E_F_angelina_jolie.jpg","E_M_tom_hankes.jpg","TRUE","pictures/stimuli/E","pictures/stimuli/E","F","M","2","57fc3e1a7a62880001c197ac","11/30/2021, 07:16:41",-0.799039073278314,"36","Female","ambidextrous",1,1,0,0,FALSE,"E_F_angelina_jolie.jpg E_M_tom_hankes.jpg"
2568,"E_M_nicolas_cage.jpg","P_F_esther_mcvey.jpg","FALSE","pictures/stimuli/E","pictures/stimuli/P","M","F","6","57fc3e1a7a62880001c197ac","11/30/2021, 07:16:41",1.63363257838868,"36","Female","ambidextrous",1,1,0,0,FALSE,"E_M_nicolas_cage.jpg P_F_esther_mcvey.jpg"
3257,"E_M_anthony_hopkins.jpg","P_F_tehresy_may.jpg","FALSE","pictures/stimuli/E","pictures/stimuli/P","M","F","4","57fc3e1a7a62880001c197ac","11/30/2021, 07:16:41",0.417296752555185,"36","Female","ambidextrous",1,1,0,0,FALSE,"E_M_anthony_hopkins.jpg P_F_tehresy_may.jpg"
3626,"P_F_angela_rayner.jpg","P_M_Tony_Blair.jpg","TRUE","pictures/stimuli/P","pictures/stimuli/P","F","M","1","57fc3e1a7a62880001c197ac","11/30/2021, 07:16:41",-1.40720698619506,"36","Female","ambidextrous",1,1,0,0,FALSE,"P_F_angela_rayner.jpg P_M_Tony_Blair.jpg"
3197,"P_F_hillary_clinton.jpg","P_M_Tony_Blair.jpg","TRUE","pictures/stimuli/P","pictures/stimuli/P","F","M","2","57fc3e1a7a62880001c197ac","11/30/2021, 07:16:41",-0.799039073278314,"36","Female","ambidextrous",1,1,0,0,FALSE,"P_F_hillary_clinton.jpg P_M_Tony_Blair.jpg"
2983,"E_F_Kate_Winslet.jpg","P_F_tehresy_may.jpg","FALSE","pictures/stimuli/E","pictures/stimuli/P","F","F","4","57fc3e1a7a62880001c197ac","11/30/2021, 07:16:41",0.417296752555185,"36","Female","ambidextrous",1,1,0,0,FALSE,"E_F_Kate_Winslet.jpg P_F_tehresy_may.jpg"
2835,"E_F_angelina_jolie.jpg","E_M_anthony_hopkins.jpg","TRUE","pictures/stimuli/E","pictures/stimuli/E","F","M","3","57fc3e1a7a62880001c197ac","11/30/2021, 07:16:41",-0.190871160361564,"36","Female","ambidextrous",1,1,0,0,FALSE,"E_F_angelina_jolie.jpg E_M_anthony_hopkins.jpg"
5226,"P_F_angela_rayner.jpg","P_M_bill_clinton.jpg","TRUE","pictures/stimuli/P","pictures/stimuli/P","F","M","2","57fc3e1a7a62880001c197ac","11/30/2021, 07:16:41",-0.799039073278314,"36","Female","ambidextrous",1,1,0,0,FALSE,"P_F_angela_rayner.jpg P_M_bill_clinton.jpg"
3129,"P_F_angela_rayner.jpg","P_F_PRITI_PATEL.jpg","TRUE","pictures/stimuli/P","pictures/stimuli/P","F","F","1","57fc3e1a7a62880001c197ac","11/30/2021, 07:16:41",-1.40720698619506,"36","Female","ambidextrous",1,1,0,0,FALSE,"P_F_angela_rayner.jpg P_F_PRITI_PATEL.jpg"
2703,"P_F_nicola_sturgeon.jpg","P_F_PRITI_PATEL.jpg","TRUE","pictures/stimuli/P","pictures/stimuli/P","F","F","1","57fc3e1a7a62880001c197ac","11/30/2021, 07:16:41",-1.40720698619506,"36","Female","ambidextrous",1,1,0,0,FALSE,"P_F_nicola_sturgeon.jpg P_F_PRITI_PATEL.jpg"
2900,"E_F_Judi_Dench.jpg","E_F_sandra_bullock.jpg","TRUE","pictures/stimuli/E","pictures/stimuli/E","F","F","1","57fc3e1a7a62880001c197ac","11/30/2021, 07:16:41",-1.40720698619506,"36","Female","ambidextrous",1,1,0,0,FALSE,"E_F_Judi_Dench.jpg E_F_sandra_bullock.jpg"
3517,"E_F_keira_knightley.jpg","P_F_esther_mcvey.jpg","FALSE","pictures/stimuli/E","pictures/stimuli/P","F","F","5","57fc3e1a7a62880001c197ac","11/30/2021, 07:16:41",1.02546466547193,"36","Female","ambidextrous",1,1,0,0,FALSE,"E_F_keira_knightley.jpg P_F_esther_mcvey.jpg"
3246,"E_F_jennifer_aniston.jpg","P_M_donald_trump.jpg","FALSE","pictures/stimuli/E","pictures/stimuli/P","F","M","5","57fc3e1a7a62880001c197ac","11/30/2021, 07:16:41",1.02546466547193,"36","Female","ambidextrous",1,1,0,0,FALSE,"E_F_jennifer_aniston.jpg P_M_donald_trump.jpg"
2930,"E_F_jennifer_aniston.jpg","P_F_tehresy_may.jpg","FALSE","pictures/stimuli/E","pictures/stimuli/P","F","F","6","57fc3e1a7a62880001c197ac","11/30/2021, 07:16:41",1.63363257838868,"36","Female","ambidextrous",1,1,0,0,FALSE,"E_F_jennifer_aniston.jpg P_F_tehresy_may.jpg"
2459,"E_F_angelina_jolie.jpg","E_M_Martin_Freeman.jpg","TRUE","pictures/stimuli/E","pictures/stimuli/E","F","M","4","57fc3e1a7a62880001c197ac","11/30/2021, 07:16:41",0.417296752555185,"36","Female","ambidextrous",1,1,0,0,FALSE,"E_F_angelina_jolie.jpg E_M_Martin_Freeman.jpg"
2583,"E_F_Kate_Winslet.jpg","E_M_robert_de_niro.jpg","TRUE","pictures/stimuli/E","pictures/stimuli/E","F","M","3","57fc3e1a7a62880001c197ac","11/30/2021, 07:16:41",-0.190871160361564,"36","Female","ambidextrous",1,1,0,0,FALSE,"E_F_Kate_Winslet.jpg E_M_robert_de_niro.jpg"
2839,"P_M_bill_clinton.jpg","P_M_george_Wbush.jpg","TRUE","pictures/stimuli/P","pictures/stimuli/P","M","M","1","57fc3e1a7a62880001c197ac","11/30/2021, 07:16:41",-1.40720698619506,"36","Female","ambidextrous",1,1,0,0,FALSE,"P_M_bill_clinton.jpg P_M_george_Wbush.jpg"
3731,"E_M_tom_hankes.jpg","P_M_david_cameron.jpg","FALSE","pictures/stimuli/E","pictures/stimuli/P","M","M","5","57fc3e1a7a62880001c197ac","11/30/2021, 07:16:41",1.02546466547193,"36","Female","ambidextrous",1,1,0,0,FALSE,"E_M_tom_hankes.jpg P_M_david_cameron.jpg"
2766,"E_F_Judi_Dench.jpg","P_F_angela_rayner.jpg","FALSE","pictures/stimuli/E","pictures/stimuli/P","F","F","4","57fc3e1a7a62880001c197ac","11/30/2021, 07:16:41",0.417296752555185,"36","Female","ambidextrous",1,1,0,0,FALSE,"E_F_Judi_Dench.jpg P_F_angela_rayner.jpg"
3037,"E_M_robert_de_niro.jpg","P_M_donald_trump.jpg","FALSE","pictures/stimuli/E","pictures/stimuli/P","M","M","4","57fc3e1a7a62880001c197ac","11/30/2021, 07:16:41",0.417296752555185,"36","Female","ambidextrous",1,1,0,0,FALSE,"E_M_robert_de_niro.jpg P_M_donald_trump.jpg"
4612,"E_M_Martin_Freeman.jpg","P_F_hillary_clinton.jpg","FALSE","pictures/stimuli/E","pictures/stimuli/P","M","F","6","57fc3e1a7a62880001c197ac","11/30/2021, 07:16:41",1.63363257838868,"36","Female","ambidextrous",1,1,0,0,FALSE,"E_M_Martin_Freeman.jpg P_F_hillary_clinton.jpg"
3062,"P_F_esther_mcvey.jpg","P_F_nicola_sturgeon.jpg","TRUE","pictures/stimuli/P","pictures/stimuli/P","F","F","2","57fc3e1a7a62880001c197ac","11/30/2021, 07:16:41",-0.799039073278314,"36","Female","ambidextrous",1,1,0,0,FALSE,"P_F_esther_mcvey.jpg P_F_nicola_sturgeon.jpg"
4212,"E_M_robert_de_niro.jpg","P_M_bill_clinton.jpg","FALSE","pictures/stimuli/E","pictures/stimuli/P","M","M","5","57fc3e1a7a62880001c197ac","11/30/2021, 07:16:41",1.02546466547193,"36","Female","ambidextrous",1,1,0,0,FALSE,"E_M_robert_de_niro.jpg P_M_bill_clinton.jpg"
2910,"E_M_tom_hankes.jpg","P_M_boris_johnson.jpg","FALSE","pictures/stimuli/E","pictures/stimuli/P","M","M","6","57fc3e1a7a62880001c197ac","11/30/2021, 07:16:41",1.63363257838868,"36","Female","ambidextrous",1,1,0,0,FALSE,"E_M_tom_hankes.jpg P_M_boris_johnson.jpg"
2954,"E_M_robert_de_niro.jpg","P_F_PRITI_PATEL.jpg","FALSE","pictures/stimuli/E","pictures/stimuli/P","M","F","6","57fc3e1a7a62880001c197ac","11/30/2021, 07:16:41",1.63363257838868,"36","Female","ambidextrous",1,1,0,0,FALSE,"E_M_robert_de_niro.jpg P_F_PRITI_PATEL.jpg"
3199,"E_M_Martin_Freeman.jpg","P_M_donald_trump.jpg","FALSE","pictures/stimuli/E","pictures/stimuli/P","M","M","5","57fc3e1a7a62880001c197ac","11/30/2021, 07:16:41",1.02546466547193,"36","Female","ambidextrous",1,1,0,0,FALSE,"E_M_Martin_Freeman.jpg P_M_donald_trump.jpg"
2743,"E_F_Judi_Dench.jpg","E_M_liam_neeson.jpg","TRUE","pictures/stimuli/E","pictures/stimuli/E","F","M","2","57fc3e1a7a62880001c197ac","11/30/2021, 07:16:41",-0.799039073278314,"36","Female","ambidextrous",1,1,0,0,FALSE,"E_F_Judi_Dench.jpg E_M_liam_neeson.jpg"
2750,"E_M_michael_caine.jpg","P_M_donald_trump.jpg","FALSE","pictures/stimuli/E","pictures/stimuli/P","M","M","4","57fc3e1a7a62880001c197ac","11/30/2021, 07:16:41",0.417296752555185,"36","Female","ambidextrous",1,1,0,0,FALSE,"E_M_michael_caine.jpg P_M_donald_trump.jpg"
2567,"E_M_nicolas_cage.jpg","E_M_tom_hankes.jpg","TRUE","pictures/stimuli/E","pictures/stimuli/E","M","M","1","57fc3e1a7a62880001c197ac","11/30/2021, 07:16:41",-1.40720698619506,"36","Female","ambidextrous",1,1,0,0,FALSE,"E_M_nicolas_cage.jpg E_M_tom_hankes.jpg"
2812,"P_F_esther_mcvey.jpg","P_F_hillary_clinton.jpg","TRUE","pictures/stimuli/P","pictures/stimuli/P","F","F","2","57fc3e1a7a62880001c197ac","11/30/2021, 07:16:41",-0.799039073278314,"36","Female","ambidextrous",1,1,0,0,FALSE,"P_F_esther_mcvey.jpg P_F_hillary_clinton.jpg"
3310,"E_F_angelina_jolie.jpg","P_F_PRITI_PATEL.jpg","FALSE","pictures/stimuli/E","pictures/stimuli/P","F","F","5","57fc3e1a7a62880001c197ac","11/30/2021, 07:16:41",1.02546466547193,"36","Female","ambidextrous",1,1,0,0,FALSE,"E_F_angelina_jolie.jpg P_F_PRITI_PATEL.jpg"
3141,"E_M_liam_neeson.jpg","P_M_david_cameron.jpg","FALSE","pictures/stimuli/E","pictures/stimuli/P","M","M","4","57fc3e1a7a62880001c197ac","11/30/2021, 07:16:41",0.417296752555185,"36","Female","ambidextrous",1,1,0,0,FALSE,"E_M_liam_neeson.jpg P_M_david_cameron.jpg"
3278,"E_M_anthony_hopkins.jpg","E_M_liam_neeson.jpg","TRUE","pictures/stimuli/E","pictures/stimuli/E","M","M","1","57fc3e1a7a62880001c197ac","11/30/2021, 07:16:41",-1.40720698619506,"36","Female","ambidextrous",1,1,0,0,FALSE,"E_M_anthony_hopkins.jpg E_M_liam_neeson.jpg"
4284,"P_F_PRITI_PATEL.jpg","P_M_donald_trump.jpg","TRUE","pictures/stimuli/P","pictures/stimuli/P","F","M","2","57fc3e1a7a62880001c197ac","11/30/2021, 07:16:41",-0.799039073278314,"36","Female","ambidextrous",1,1,0,0,FALSE,"P_F_PRITI_PATEL.jpg P_M_donald_trump.jpg"
4084,"E_M_nicolas_cage.jpg","P_M_donald_trump.jpg","FALSE","pictures/stimuli/E","pictures/stimuli/P","M","M","4","57fc3e1a7a62880001c197ac","11/30/2021, 07:16:41",0.417296752555185,"36","Female","ambidextrous",1,1,0,0,FALSE,"E_M_nicolas_cage.jpg P_M_donald_trump.jpg"
3508,"E_F_Kate_Winslet.jpg","E_F_sandra_bullock.jpg","TRUE","pictures/stimuli/E","pictures/stimuli/E","F","F","1","57fc3e1a7a62880001c197ac","11/30/2021, 07:16:41",-1.40720698619506,"36","Female","ambidextrous",1,1,0,0,FALSE,"E_F_Kate_Winslet.jpg E_F_sandra_bullock.jpg"
2926,"E_M_nicolas_cage.jpg","P_M_bill_clinton.jpg","FALSE","pictures/stimuli/E","pictures/stimuli/P","M","M","5","57fc3e1a7a62880001c197ac","11/30/2021, 07:16:41",1.02546466547193,"36","Female","ambidextrous",1,1,0,0,FALSE,"E_M_nicolas_cage.jpg P_M_bill_clinton.jpg"
7568,"E_F_jennifer_aniston.jpg","E_F_keira_knightley.jpg","TRUE","pictures/stimuli/E","pictures/stimuli/E","F","F","2","57fc3e1a7a62880001c197ac","11/30/2021, 07:16:41",-0.799039073278314,"36","Female","ambidextrous",1,1,0,0,FALSE,"E_F_jennifer_aniston.jpg E_F_keira_knightley.jpg"
2263,"P_F_angela_rayner.jpg","P_F_esther_mcvey.jpg","TRUE","pictures/stimuli/P","pictures/stimuli/P","F","F","1","57fc3e1a7a62880001c197ac","11/30/2021, 07:16:41",-1.40720698619506,"36","Female","ambidextrous",1,1,0,0,FALSE,"P_F_angela_rayner.jpg P_F_esther_mcvey.jpg"
2910,"E_F_keira_knightley.jpg","E_M_liam_neeson.jpg","TRUE","pictures/stimuli/E","pictures/stimuli/E","F","M","2","57fc3e1a7a62880001c197ac","11/30/2021, 07:16:41",-0.799039073278314,"36","Female","ambidextrous",1,1,0,0,FALSE,"E_F_keira_knightley.jpg E_M_liam_neeson.jpg"
2407,"P_F_PRITI_PATEL.jpg","P_M_david_cameron.jpg","TRUE","pictures/stimuli/P","pictures/stimuli/P","F","M","1","57fc3e1a7a62880001c197ac","11/30/2021, 07:16:41",-1.40720698619506,"36","Female","ambidextrous",1,1,0,0,FALSE,"P_F_PRITI_PATEL.jpg P_M_david_cameron.jpg"
3181,"E_F_sandra_bullock.jpg","P_F_hillary_clinton.jpg","FALSE","pictures/stimuli/E","pictures/stimuli/P","F","F","3","57fc3e1a7a62880001c197ac","11/30/2021, 07:16:41",-0.190871160361564,"36","Female","ambidextrous",1,1,0,0,FALSE,"E_F_sandra_bullock.jpg P_F_hillary_clinton.jpg"
2781,"E_M_robert_de_niro.jpg","E_M_tom_hankes.jpg","TRUE","pictures/stimuli/E","pictures/stimuli/E","M","M","1","57fc3e1a7a62880001c197ac","11/30/2021, 07:16:41",-1.40720698619506,"36","Female","ambidextrous",1,1,0,0,FALSE,"E_M_robert_de_niro.jpg E_M_tom_hankes.jpg"
4179,"E_M_michael_caine.jpg","P_F_hillary_clinton.jpg","FALSE","pictures/stimuli/E","pictures/stimuli/P","M","F","5","57fc3e1a7a62880001c197ac","11/30/2021, 07:16:41",1.02546466547193,"36","Female","ambidextrous",1,1,0,0,FALSE,"E_M_michael_caine.jpg P_F_hillary_clinton.jpg"
2618,"E_F_Judi_Dench.jpg","E_M_nicolas_cage.jpg","TRUE","pictures/stimuli/E","pictures/stimuli/E","F","M","3","57fc3e1a7a62880001c197ac","11/30/2021, 07:16:41",-0.190871160361564,"36","Female","ambidextrous",1,1,0,0,FALSE,"E_F_Judi_Dench.jpg E_M_nicolas_cage.jpg"
2848,"E_M_liam_neeson.jpg","P_M_bill_clinton.jpg","FALSE","pictures/stimuli/E","pictures/stimuli/P","M","M","4","57fc3e1a7a62880001c197ac","11/30/2021, 07:16:41",0.417296752555185,"36","Female","ambidextrous",1,1,0,0,FALSE,"E_M_liam_neeson.jpg P_M_bill_clinton.jpg"
3279,"P_F_hillary_clinton.jpg","P_M_donald_trump.jpg","TRUE","pictures/stimuli/P","pictures/stimuli/P","F","M","2","57fc3e1a7a62880001c197ac","11/30/2021, 07:16:41",-0.799039073278314,"36","Female","ambidextrous",1,1,0,0,FALSE,"P_F_hillary_clinton.jpg P_M_donald_trump.jpg"
3606,"P_F_esther_mcvey.jpg","P_M_bill_clinton.jpg","TRUE","pictures/stimuli/P","pictures/stimuli/P","F","M","3","57fc3e1a7a62880001c197ac","11/30/2021, 07:16:41",-0.190871160361564,"36","Female","ambidextrous",1,1,0,0,FALSE,"P_F_esther_mcvey.jpg P_M_bill_clinton.jpg"
2407,"P_F_PRITI_PATEL.jpg","P_M_Tony_Blair.jpg","TRUE","pictures/stimuli/P","pictures/stimuli/P","F","M","2","57fc3e1a7a62880001c197ac","11/30/2021, 07:16:41",-0.799039073278314,"36","Female","ambidextrous",1,1,0,0,FALSE,"P_F_PRITI_PATEL.jpg P_M_Tony_Blair.jpg"
4739,"P_M_bill_clinton.jpg","P_M_boris_johnson.jpg","TRUE","pictures/stimuli/P","pictures/stimuli/P","M","M","2","57fc3e1a7a62880001c197ac","11/30/2021, 07:16:41",-0.799039073278314,"36","Female","ambidextrous",1,1,0,0,FALSE,"P_M_bill_clinton.jpg P_M_boris_johnson.jpg"
2691,"E_M_anthony_hopkins.jpg","P_M_george_Wbush.jpg","FALSE","pictures/stimuli/E","pictures/stimuli/P","M","M","4","57fc3e1a7a62880001c197ac","11/30/2021, 07:16:41",0.417296752555185,"36","Female","ambidextrous",1,1,0,0,FALSE,"E_M_anthony_hopkins.jpg P_M_george_Wbush.jpg"
2523,"E_M_nicolas_cage.jpg","P_M_david_cameron.jpg","FALSE","pictures/stimuli/E","pictures/stimuli/P","M","M","5","57fc3e1a7a62880001c197ac","11/30/2021, 07:16:41",1.02546466547193,"36","Female","ambidextrous",1,1,0,0,FALSE,"E_M_nicolas_cage.jpg P_M_david_cameron.jpg"
2767,"E_M_Hugh_Grant.jpg","E_M_michael_caine.jpg","TRUE","pictures/stimuli/E","pictures/stimuli/E","M","M","2","57fc3e1a7a62880001c197ac","11/30/2021, 07:16:41",-0.799039073278314,"36","Female","ambidextrous",1,1,0,0,FALSE,"E_M_Hugh_Grant.jpg E_M_michael_caine.jpg"
2187,"E_M_Hugh_Grant.jpg","E_M_nicolas_cage.jpg","TRUE","pictures/stimuli/E","pictures/stimuli/E","M","M","1","57fc3e1a7a62880001c197ac","11/30/2021, 07:16:41",-1.40720698619506,"36","Female","ambidextrous",1,1,0,0,FALSE,"E_M_Hugh_Grant.jpg E_M_nicolas_cage.jpg"
2552,"E_F_keira_knightley.jpg","P_M_george_Wbush.jpg","FALSE","pictures/stimuli/E","pictures/stimuli/P","F","M","6","57fc3e1a7a62880001c197ac","11/30/2021, 07:16:41",1.63363257838868,"36","Female","ambidextrous",1,1,0,0,FALSE,"E_F_keira_knightley.jpg P_M_george_Wbush.jpg"
4385,"E_F_keira_knightley.jpg","E_M_michael_caine.jpg","TRUE","pictures/stimuli/E","pictures/stimuli/E","F","M","3","57fc3e1a7a62880001c197ac","11/30/2021, 07:16:41",-0.190871160361564,"36","Female","ambidextrous",1,1,0,0,FALSE,"E_F_keira_knightley.jpg E_M_michael_caine.jpg"
3120,"E_M_anthony_hopkins.jpg","E_M_nicolas_cage.jpg","TRUE","pictures/stimuli/E","pictures/stimuli/E","M","M","1","57fc3e1a7a62880001c197ac","11/30/2021, 07:16:41",-1.40720698619506,"36","Female","ambidextrous",1,1,0,0,FALSE,"E_M_anthony_hopkins.jpg E_M_nicolas_cage.jpg"
3223,"E_F_Judi_Dench.jpg","E_F_keira_knightley.jpg","TRUE","pictures/stimuli/E","pictures/stimuli/E","F","F","2","57fc3e1a7a62880001c197ac","11/30/2021, 07:16:41",-0.799039073278314,"36","Female","ambidextrous",1,1,0,0,FALSE,"E_F_Judi_Dench.jpg E_F_keira_knightley.jpg"
3446,"P_F_nicola_sturgeon.jpg","P_M_donald_trump.jpg","TRUE","pictures/stimuli/P","pictures/stimuli/P","F","M","2","57fc3e1a7a62880001c197ac","11/30/2021, 07:16:41",-0.799039073278314,"36","Female","ambidextrous",1,1,0,0,FALSE,"P_F_nicola_sturgeon.jpg P_M_donald_trump.jpg"
2918,"E_F_keira_knightley.jpg","E_M_tom_hankes.jpg","TRUE","pictures/stimuli/E","pictures/stimuli/E","F","M","2","57fc3e1a7a62880001c197ac","11/30/2021, 07:16:41",-0.799039073278314,"36","Female","ambidextrous",1,1,0,0,FALSE,"E_F_keira_knightley.jpg E_M_tom_hankes.jpg"
2464,"E_F_angelina_jolie.jpg","E_F_keira_knightley.jpg","TRUE","pictures/stimuli/E","pictures/stimuli/E","F","F","1","57fc3e1a7a62880001c197ac","11/30/2021, 07:16:41",-1.40720698619506,"36","Female","ambidextrous",1,1,0,0,FALSE,"E_F_angelina_jolie.jpg E_F_keira_knightley.jpg"
3626,"E_M_robert_de_niro.jpg","P_F_tehresy_may.jpg","FALSE","pictures/stimuli/E","pictures/stimuli/P","M","F","6","57fc3e1a7a62880001c197ac","11/30/2021, 07:16:41",1.63363257838868,"36","Female","ambidextrous",1,1,0,0,FALSE,"E_M_robert_de_niro.jpg P_F_tehresy_may.jpg"
2522,"P_F_PRITI_PATEL.jpg","P_F_tehresy_may.jpg","TRUE","pictures/stimuli/P","pictures/stimuli/P","F","F","1","57fc3e1a7a62880001c197ac","11/30/2021, 07:16:41",-1.40720698619506,"36","Female","ambidextrous",1,1,0,0,FALSE,"P_F_PRITI_PATEL.jpg P_F_tehresy_may.jpg"
2926,"E_M_liam_neeson.jpg","P_F_nicola_sturgeon.jpg","FALSE","pictures/stimuli/E","pictures/stimuli/P","M","F","4","57fc3e1a7a62880001c197ac","11/30/2021, 07:16:41",0.417296752555185,"36","Female","ambidextrous",1,1,0,0,FALSE,"E_M_liam_neeson.jpg P_F_nicola_sturgeon.jpg"
2959,"E_F_Judi_Dench.jpg","P_M_donald_trump.jpg","FALSE","pictures/stimuli/E","pictures/stimuli/P","F","M","5","57fc3e1a7a62880001c197ac","11/30/2021, 07:16:41",1.02546466547193,"36","Female","ambidextrous",1,1,0,0,FALSE,"E_F_Judi_Dench.jpg P_M_donald_trump.jpg"
2767,"E_F_sandra_bullock.jpg","E_M_liam_neeson.jpg","TRUE","pictures/stimuli/E","pictures/stimuli/E","F","M","2","57fc3e1a7a62880001c197ac","11/30/2021, 07:16:41",-0.799039073278314,"36","Female","ambidextrous",1,1,0,0,FALSE,"E_F_sandra_bullock.jpg E_M_liam_neeson.jpg"
2902,"E_M_liam_neeson.jpg","P_M_donald_trump.jpg","FALSE","pictures/stimuli/E","pictures/stimuli/P","M","M","5","57fc3e1a7a62880001c197ac","11/30/2021, 07:16:41",1.02546466547193,"36","Female","ambidextrous",1,1,0,0,FALSE,"E_M_liam_neeson.jpg P_M_donald_trump.jpg"
3051,"E_M_anthony_hopkins.jpg","P_M_david_cameron.jpg","FALSE","pictures/stimuli/E","pictures/stimuli/P","M","M","4","57fc3e1a7a62880001c197ac","11/30/2021, 07:16:41",0.417296752555185,"36","Female","ambidextrous",1,1,0,0,FALSE,"E_M_anthony_hopkins.jpg P_M_david_cameron.jpg"
2548,"E_M_Hugh_Grant.jpg","P_F_esther_mcvey.jpg","FALSE","pictures/stimuli/E","pictures/stimuli/P","M","F","4","57fc3e1a7a62880001c197ac","11/30/2021, 07:16:41",0.417296752555185,"36","Female","ambidextrous",1,1,0,0,FALSE,"E_M_Hugh_Grant.jpg P_F_esther_mcvey.jpg"
3226,"E_M_liam_neeson.jpg","P_F_PRITI_PATEL.jpg","FALSE","pictures/stimuli/E","pictures/stimuli/P","M","F","5","57fc3e1a7a62880001c197ac","11/30/2021, 07:16:41",1.02546466547193,"36","Female","ambidextrous",1,1,0,0,FALSE,"E_M_liam_neeson.jpg P_F_PRITI_PATEL.jpg"
2841,"E_M_nicolas_cage.jpg","P_F_tehresy_may.jpg","FALSE","pictures/stimuli/E","pictures/stimuli/P","M","F","6","57fc3e1a7a62880001c197ac","11/30/2021, 07:16:41",1.63363257838868,"36","Female","ambidextrous",1,1,0,0,FALSE,"E_M_nicolas_cage.jpg P_F_tehresy_may.jpg"
2886,"E_M_michael_caine.jpg","P_M_george_Wbush.jpg","FALSE","pictures/stimuli/E","pictures/stimuli/P","M","M","5","57fc3e1a7a62880001c197ac","11/30/2021, 07:16:41",1.02546466547193,"36","Female","ambidextrous",1,1,0,0,FALSE,"E_M_michael_caine.jpg P_M_george_Wbush.jpg"
3885,"E_F_Kate_Winslet.jpg","E_M_michael_caine.jpg","TRUE","pictures/stimuli/E","pictures/stimuli/E","F","M","2","57fc3e1a7a62880001c197ac","11/30/2021, 07:16:41",-0.799039073278314,"36","Female","ambidextrous",1,1,0,0,FALSE,"E_F_Kate_Winslet.jpg E_M_michael_caine.jpg"
4172,"E_F_Judi_Dench.jpg","P_M_david_cameron.jpg","FALSE","pictures/stimuli/E","pictures/stimuli/P","F","M","5","57fc3e1a7a62880001c197ac","11/30/2021, 07:16:41",1.02546466547193,"36","Female","ambidextrous",1,1,0,0,FALSE,"E_F_Judi_Dench.jpg P_M_david_cameron.jpg"
5493,"P_F_hillary_clinton.jpg","P_M_george_Wbush.jpg","TRUE","pictures/stimuli/P","pictures/stimuli/P","F","M","1","57fc3e1a7a62880001c197ac","11/30/2021, 07:16:41",-1.40720698619506,"36","Female","ambidextrous",1,1,0,0,FALSE,"P_F_hillary_clinton.jpg P_M_george_Wbush.jpg"
3194,"P_M_david_cameron.jpg","P_M_Tony_Blair.jpg","TRUE","pictures/stimuli/P","pictures/stimuli/P","M","M","1","57fc3e1a7a62880001c197ac","11/30/2021, 07:16:41",-1.40720698619506,"36","Female","ambidextrous",1,1,0,0,FALSE,"P_M_david_cameron.jpg P_M_Tony_Blair.jpg"
2655,"E_M_nicolas_cage.jpg","P_M_george_Wbush.jpg","FALSE","pictures/stimuli/E","pictures/stimuli/P","M","M","5","57fc3e1a7a62880001c197ac","11/30/2021, 07:16:41",1.02546466547193,"36","Female","ambidextrous",1,1,0,0,FALSE,"E_M_nicolas_cage.jpg P_M_george_Wbush.jpg"
2511,"E_F_Kate_Winslet.jpg","E_M_tom_hankes.jpg","TRUE","pictures/stimuli/E","pictures/stimuli/E","F","M","2","57fc3e1a7a62880001c197ac","11/30/2021, 07:16:41",-0.799039073278314,"36","Female","ambidextrous",1,1,0,0,FALSE,"E_F_Kate_Winslet.jpg E_M_tom_hankes.jpg"
3118,"E_M_michael_caine.jpg","P_M_Tony_Blair.jpg","FALSE","pictures/stimuli/E","pictures/stimuli/P","M","M","4","57fc3e1a7a62880001c197ac","11/30/2021, 07:16:41",0.417296752555185,"36","Female","ambidextrous",1,1,0,0,FALSE,"E_M_michael_caine.jpg P_M_Tony_Blair.jpg"
2802,"P_F_tehresy_may.jpg","P_M_george_Wbush.jpg","TRUE","pictures/stimuli/P","pictures/stimuli/P","F","M","3","57fc3e1a7a62880001c197ac","11/30/2021, 07:16:41",-0.190871160361564,"36","Female","ambidextrous",1,1,0,0,FALSE,"P_F_tehresy_may.jpg P_M_george_Wbush.jpg"
2854,"E_M_Martin_Freeman.jpg","P_F_esther_mcvey.jpg","FALSE","pictures/stimuli/E","pictures/stimuli/P","M","F","5","57fc3e1a7a62880001c197ac","11/30/2021, 07:16:41",1.02546466547193,"36","Female","ambidextrous",1,1,0,0,FALSE,"E_M_Martin_Freeman.jpg P_F_esther_mcvey.jpg"
2914,"E_F_keira_knightley.jpg","P_F_hillary_clinton.jpg","FALSE","pictures/stimuli/E","pictures/stimuli/P","F","F","5","57fc3e1a7a62880001c197ac","11/30/2021, 07:16:41",1.02546466547193,"36","Female","ambidextrous",1,1,0,0,FALSE,"E_F_keira_knightley.jpg P_F_hillary_clinton.jpg"
3321,"E_F_keira_knightley.jpg","E_M_Martin_Freeman.jpg","TRUE","pictures/stimuli/E","pictures/stimuli/E","F","M","3","57fc3e1a7a62880001c197ac","11/30/2021, 07:16:41",-0.190871160361564,"36","Female","ambidextrous",1,1,0,0,FALSE,"E_F_keira_knightley.jpg E_M_Martin_Freeman.jpg"
2638,"E_M_nicolas_cage.jpg","P_F_angela_rayner.jpg","FALSE","pictures/stimuli/E","pictures/stimuli/P","M","F","6","57fc3e1a7a62880001c197ac","11/30/2021, 07:16:41",1.63363257838868,"36","Female","ambidextrous",1,1,0,0,FALSE,"E_M_nicolas_cage.jpg P_F_angela_rayner.jpg"
2816,"E_F_angelina_jolie.jpg","P_F_angela_rayner.jpg","FALSE","pictures/stimuli/E","pictures/stimuli/P","F","F","4","57fc3e1a7a62880001c197ac","11/30/2021, 07:16:41",0.417296752555185,"36","Female","ambidextrous",1,1,0,0,FALSE,"E_F_angelina_jolie.jpg P_F_angela_rayner.jpg"
3101,"E_M_anthony_hopkins.jpg","P_F_hillary_clinton.jpg","FALSE","pictures/stimuli/E","pictures/stimuli/P","M","F","5","57fc3e1a7a62880001c197ac","11/30/2021, 07:16:41",1.02546466547193,"36","Female","ambidextrous",1,1,0,0,FALSE,"E_M_anthony_hopkins.jpg P_F_hillary_clinton.jpg"
3087,"E_F_Kate_Winslet.jpg","P_M_george_Wbush.jpg","FALSE","pictures/stimuli/E","pictures/stimuli/P","F","M","6","57fc3e1a7a62880001c197ac","11/30/2021, 07:16:41",1.63363257838868,"36","Female","ambidextrous",1,1,0,0,FALSE,"E_F_Kate_Winslet.jpg P_M_george_Wbush.jpg"
2555,"E_F_Judi_Dench.jpg","P_F_tehresy_may.jpg","FALSE","pictures/stimuli/E","pictures/stimuli/P","F","F","4","57fc3e1a7a62880001c197ac","11/30/2021, 07:16:41",0.417296752555185,"36","Female","ambidextrous",1,1,0,0,FALSE,"E_F_Judi_Dench.jpg P_F_tehresy_may.jpg"
2919,"E_F_angelina_jolie.jpg","P_F_nicola_sturgeon.jpg","FALSE","pictures/stimuli/E","pictures/stimuli/P","F","F","5","57fc3e1a7a62880001c197ac","11/30/2021, 07:16:41",1.02546466547193,"36","Female","ambidextrous",1,1,0,0,FALSE,"E_F_angelina_jolie.jpg P_F_nicola_sturgeon.jpg"
3765,"P_M_boris_johnson.jpg","P_M_donald_trump.jpg","TRUE","pictures/stimuli/P","pictures/stimuli/P","M","M","1","57fc3e1a7a62880001c197ac","11/30/2021, 07:16:41",-1.40720698619506,"36","Female","ambidextrous",1,1,0,0,FALSE,"P_M_boris_johnson.jpg P_M_donald_trump.jpg"
3129,"E_F_Judi_Dench.jpg","E_M_Hugh_Grant.jpg","TRUE","pictures/stimuli/E","pictures/stimuli/E","F","M","2","57fc3e1a7a62880001c197ac","11/30/2021, 07:16:41",-0.799039073278314,"36","Female","ambidextrous",1,1,0,0,FALSE,"E_F_Judi_Dench.jpg E_M_Hugh_Grant.jpg"
3115,"E_F_sandra_bullock.jpg","P_F_PRITI_PATEL.jpg","FALSE","pictures/stimuli/E","pictures/stimuli/P","F","F","5","57fc3e1a7a62880001c197ac","11/30/2021, 07:16:41",1.02546466547193,"36","Female","ambidextrous",1,1,0,0,FALSE,"E_F_sandra_bullock.jpg P_F_PRITI_PATEL.jpg"
2579,"E_M_tom_hankes.jpg","P_F_PRITI_PATEL.jpg","FALSE","pictures/stimuli/E","pictures/stimuli/P","M","F","6","57fc3e1a7a62880001c197ac","11/30/2021, 07:16:41",1.63363257838868,"36","Female","ambidextrous",1,1,0,0,FALSE,"E_M_tom_hankes.jpg P_F_PRITI_PATEL.jpg"
3257,"P_M_bill_clinton.jpg","P_M_david_cameron.jpg","TRUE","pictures/stimuli/P","pictures/stimuli/P","M","M","1","57fc3e1a7a62880001c197ac","11/30/2021, 07:16:41",-1.40720698619506,"36","Female","ambidextrous",1,1,0,0,FALSE,"P_M_bill_clinton.jpg P_M_david_cameron.jpg"
2510,"E_M_robert_de_niro.jpg","P_F_nicola_sturgeon.jpg","FALSE","pictures/stimuli/E","pictures/stimuli/P","M","F","6","57fc3e1a7a62880001c197ac","11/30/2021, 07:16:41",1.63363257838868,"36","Female","ambidextrous",1,1,0,0,FALSE,"E_M_robert_de_niro.jpg P_F_nicola_sturgeon.jpg"
3236,"P_F_angela_rayner.jpg","P_F_nicola_sturgeon.jpg","TRUE","pictures/stimuli/P","pictures/stimuli/P","F","F","1","57fc3e1a7a62880001c197ac","11/30/2021, 07:16:41",-1.40720698619506,"36","Female","ambidextrous",1,1,0,0,FALSE,"P_F_angela_rayner.jpg P_F_nicola_sturgeon.jpg"
2352,"E_F_keira_knightley.jpg","P_M_bill_clinton.jpg","FALSE","pictures/stimuli/E","pictures/stimuli/P","F","M","6","57fc3e1a7a62880001c197ac","11/30/2021, 07:16:41",1.63363257838868,"36","Female","ambidextrous",1,1,0,0,FALSE,"E_F_keira_knightley.jpg P_M_bill_clinton.jpg"
3928,"E_M_michael_caine.jpg","E_M_robert_de_niro.jpg","TRUE","pictures/stimuli/E","pictures/stimuli/E","M","M","1","57fc3e1a7a62880001c197ac","11/30/2021, 07:16:41",-1.40720698619506,"36","Female","ambidextrous",1,1,0,0,FALSE,"E_M_michael_caine.jpg E_M_robert_de_niro.jpg"
2656,"E_F_jennifer_aniston.jpg","E_M_robert_de_niro.jpg","TRUE","pictures/stimuli/E","pictures/stimuli/E","F","M","3","57fc3e1a7a62880001c197ac","11/30/2021, 07:16:41",-0.190871160361564,"36","Female","ambidextrous",1,1,0,0,FALSE,"E_F_jennifer_aniston.jpg E_M_robert_de_niro.jpg"
2319,"E_F_jennifer_aniston.jpg","E_M_liam_neeson.jpg","TRUE","pictures/stimuli/E","pictures/stimuli/E","F","M","2","57fc3e1a7a62880001c197ac","11/30/2021, 07:16:41",-0.799039073278314,"36","Female","ambidextrous",1,1,0,0,FALSE,"E_F_jennifer_aniston.jpg E_M_liam_neeson.jpg"
2351,"E_F_keira_knightley.jpg","E_F_sandra_bullock.jpg","TRUE","pictures/stimuli/E","pictures/stimuli/E","F","F","1","57fc3e1a7a62880001c197ac","11/30/2021, 07:16:41",-1.40720698619506,"36","Female","ambidextrous",1,1,0,0,FALSE,"E_F_keira_knightley.jpg E_F_sandra_bullock.jpg"
10371,"E_F_Kate_Winslet.jpg","E_M_Hugh_Grant.jpg","TRUE","pictures/stimuli/E","pictures/stimuli/E","F","M","3","59d3bb3200d4940001817436","11/30/2021, 07:31:56",-0.883681526362727,"31","Female","right",1,1,0,0,FALSE,"E_F_Kate_Winslet.jpg E_M_Hugh_Grant.jpg"
3207,"E_M_nicolas_cage.jpg","P_F_nicola_sturgeon.jpg","FALSE","pictures/stimuli/E","pictures/stimuli/P","M","F","6","59d3bb3200d4940001817436","11/30/2021, 07:31:56",1.00163464038489,"31","Female","right",1,1,0,0,FALSE,"E_M_nicolas_cage.jpg P_F_nicola_sturgeon.jpg"
3919,"P_M_bill_clinton.jpg","P_M_Tony_Blair.jpg","TRUE","pictures/stimuli/P","pictures/stimuli/P","M","M","3","59d3bb3200d4940001817436","11/30/2021, 07:31:56",-0.883681526362727,"31","Female","right",1,1,0,0,FALSE,"P_M_bill_clinton.jpg P_M_Tony_Blair.jpg"
3260,"E_M_Hugh_Grant.jpg","E_M_nicolas_cage.jpg","TRUE","pictures/stimuli/E","pictures/stimuli/E","M","M","5","59d3bb3200d4940001817436","11/30/2021, 07:31:56",0.373195918135681,"31","Female","right",1,1,0,0,FALSE,"E_M_Hugh_Grant.jpg E_M_nicolas_cage.jpg"
5115,"P_M_george_Wbush.jpg","P_M_Tony_Blair.jpg","TRUE","pictures/stimuli/P","pictures/stimuli/P","M","M","4","59d3bb3200d4940001817436","11/30/2021, 07:31:56",-0.255242804113523,"31","Female","right",1,1,0,0,FALSE,"P_M_george_Wbush.jpg P_M_Tony_Blair.jpg"
2820,"E_F_keira_knightley.jpg","E_M_Hugh_Grant.jpg","TRUE","pictures/stimuli/E","pictures/stimuli/E","F","M","2","59d3bb3200d4940001817436","11/30/2021, 07:31:56",-1.51212024861193,"31","Female","right",1,1,0,0,FALSE,"E_F_keira_knightley.jpg E_M_Hugh_Grant.jpg"
3029,"E_M_tom_hankes.jpg","P_M_bill_clinton.jpg","FALSE","pictures/stimuli/E","pictures/stimuli/P","M","M","5","59d3bb3200d4940001817436","11/30/2021, 07:31:56",0.373195918135681,"31","Female","right",1,1,0,0,FALSE,"E_M_tom_hankes.jpg P_M_bill_clinton.jpg"
3692,"E_M_anthony_hopkins.jpg","E_M_robert_de_niro.jpg","TRUE","pictures/stimuli/E","pictures/stimuli/E","M","M","3","59d3bb3200d4940001817436","11/30/2021, 07:31:56",-0.883681526362727,"31","Female","right",1,1,0,0,FALSE,"E_M_anthony_hopkins.jpg E_M_robert_de_niro.jpg"
3427,"E_F_Judi_Dench.jpg","E_M_Martin_Freeman.jpg","TRUE","pictures/stimuli/E","pictures/stimuli/E","F","M","2","59d3bb3200d4940001817436","11/30/2021, 07:31:56",-1.51212024861193,"31","Female","right",1,1,0,0,FALSE,"E_F_Judi_Dench.jpg E_M_Martin_Freeman.jpg"
2698,"E_M_robert_de_niro.jpg","P_M_david_cameron.jpg","FALSE","pictures/stimuli/E","pictures/stimuli/P","M","M","6","59d3bb3200d4940001817436","11/30/2021, 07:31:56",1.00163464038489,"31","Female","right",1,1,0,0,FALSE,"E_M_robert_de_niro.jpg P_M_david_cameron.jpg"
2560,"E_F_jennifer_aniston.jpg","E_M_Hugh_Grant.jpg","TRUE","pictures/stimuli/E","pictures/stimuli/E","F","M","4","59d3bb3200d4940001817436","11/30/2021, 07:31:56",-0.255242804113523,"31","Female","right",1,1,0,0,FALSE,"E_F_jennifer_aniston.jpg E_M_Hugh_Grant.jpg"
3234,"P_F_hillary_clinton.jpg","P_M_boris_johnson.jpg","TRUE","pictures/stimuli/P","pictures/stimuli/P","F","M","6","59d3bb3200d4940001817436","11/30/2021, 07:31:56",1.00163464038489,"31","Female","right",1,1,0,0,FALSE,"P_F_hillary_clinton.jpg P_M_boris_johnson.jpg"
5523,"E_M_anthony_hopkins.jpg","E_M_Hugh_Grant.jpg","TRUE","pictures/stimuli/E","pictures/stimuli/E","M","M","5","59d3bb3200d4940001817436","11/30/2021, 07:31:56",0.373195918135681,"31","Female","right",1,1,0,0,FALSE,"E_M_anthony_hopkins.jpg E_M_Hugh_Grant.jpg"
2771,"E_F_keira_knightley.jpg","P_F_PRITI_PATEL.jpg","FALSE","pictures/stimuli/E","pictures/stimuli/P","F","F","6","59d3bb3200d4940001817436","11/30/2021, 07:31:56",1.00163464038489,"31","Female","right",1,1,0,0,FALSE,"E_F_keira_knightley.jpg P_F_PRITI_PATEL.jpg"
2909,"E_M_robert_de_niro.jpg","P_F_tehresy_may.jpg","FALSE","pictures/stimuli/E","pictures/stimuli/P","M","F","6","59d3bb3200d4940001817436","11/30/2021, 07:31:56",1.00163464038489,"31","Female","right",1,1,0,0,FALSE,"E_M_robert_de_niro.jpg P_F_tehresy_may.jpg"
2301,"E_M_anthony_hopkins.jpg","P_F_nicola_sturgeon.jpg","FALSE","pictures/stimuli/E","pictures/stimuli/P","M","F","6","59d3bb3200d4940001817436","11/30/2021, 07:31:56",1.00163464038489,"31","Female","right",1,1,0,0,FALSE,"E_M_anthony_hopkins.jpg P_F_nicola_sturgeon.jpg"
2428,"E_F_keira_knightley.jpg","P_M_george_Wbush.jpg","FALSE","pictures/stimuli/E","pictures/stimuli/P","F","M","6","59d3bb3200d4940001817436","11/30/2021, 07:31:56",1.00163464038489,"31","Female","right",1,1,0,0,FALSE,"E_F_keira_knightley.jpg P_M_george_Wbush.jpg"
2875,"E_M_robert_de_niro.jpg","P_F_nicola_sturgeon.jpg","FALSE","pictures/stimuli/E","pictures/stimuli/P","M","F","6","59d3bb3200d4940001817436","11/30/2021, 07:31:56",1.00163464038489,"31","Female","right",1,1,0,0,FALSE,"E_M_robert_de_niro.jpg P_F_nicola_sturgeon.jpg"
4183,"P_F_PRITI_PATEL.jpg","P_M_boris_johnson.jpg","TRUE","pictures/stimuli/P","pictures/stimuli/P","F","M","1","59d3bb3200d4940001817436","11/30/2021, 07:31:56",-2.14055897086114,"31","Female","right",1,1,0,0,FALSE,"P_F_PRITI_PATEL.jpg P_M_boris_johnson.jpg"
4387,"P_F_PRITI_PATEL.jpg","P_F_tehresy_may.jpg","TRUE","pictures/stimuli/P","pictures/stimuli/P","F","F","2","59d3bb3200d4940001817436","11/30/2021, 07:31:56",-1.51212024861193,"31","Female","right",1,1,0,0,FALSE,"P_F_PRITI_PATEL.jpg P_F_tehresy_may.jpg"
3631,"E_F_angelina_jolie.jpg","P_F_nicola_sturgeon.jpg","FALSE","pictures/stimuli/E","pictures/stimuli/P","F","F","6","59d3bb3200d4940001817436","11/30/2021, 07:31:56",1.00163464038489,"31","Female","right",1,1,0,0,FALSE,"E_F_angelina_jolie.jpg P_F_nicola_sturgeon.jpg"
2384,"E_F_keira_knightley.jpg","E_M_michael_caine.jpg","TRUE","pictures/stimuli/E","pictures/stimuli/E","F","M","3","59d3bb3200d4940001817436","11/30/2021, 07:31:56",-0.883681526362727,"31","Female","right",1,1,0,0,FALSE,"E_F_keira_knightley.jpg E_M_michael_caine.jpg"
3143,"E_F_keira_knightley.jpg","E_M_nicolas_cage.jpg","TRUE","pictures/stimuli/E","pictures/stimuli/E","F","M","4","59d3bb3200d4940001817436","11/30/2021, 07:31:56",-0.255242804113523,"31","Female","right",1,1,0,0,FALSE,"E_F_keira_knightley.jpg E_M_nicolas_cage.jpg"
2670,"E_M_nicolas_cage.jpg","P_F_PRITI_PATEL.jpg","FALSE","pictures/stimuli/E","pictures/stimuli/P","M","F","6","59d3bb3200d4940001817436","11/30/2021, 07:31:56",1.00163464038489,"31","Female","right",1,1,0,0,FALSE,"E_M_nicolas_cage.jpg P_F_PRITI_PATEL.jpg"
3132,"E_F_angelina_jolie.jpg","E_M_Hugh_Grant.jpg","TRUE","pictures/stimuli/E","pictures/stimuli/E","F","M","4","59d3bb3200d4940001817436","11/30/2021, 07:31:56",-0.255242804113523,"31","Female","right",1,1,0,0,FALSE,"E_F_angelina_jolie.jpg E_M_Hugh_Grant.jpg"
5611,"E_M_anthony_hopkins.jpg","P_M_david_cameron.jpg","FALSE","pictures/stimuli/E","pictures/stimuli/P","M","M","6","59d3bb3200d4940001817436","11/30/2021, 07:31:56",1.00163464038489,"31","Female","right",1,1,0,0,FALSE,"E_M_anthony_hopkins.jpg P_M_david_cameron.jpg"
3009,"E_F_Kate_Winslet.jpg","P_F_tehresy_may.jpg","FALSE","pictures/stimuli/E","pictures/stimuli/P","F","F","5","59d3bb3200d4940001817436","11/30/2021, 07:31:56",0.373195918135681,"31","Female","right",1,1,0,0,FALSE,"E_F_Kate_Winslet.jpg P_F_tehresy_may.jpg"
3501,"P_F_nicola_sturgeon.jpg","P_F_tehresy_may.jpg","TRUE","pictures/stimuli/P","pictures/stimuli/P","F","F","3","59d3bb3200d4940001817436","11/30/2021, 07:31:56",-0.883681526362727,"31","Female","right",1,1,0,0,FALSE,"P_F_nicola_sturgeon.jpg P_F_tehresy_may.jpg"
3628,"P_F_nicola_sturgeon.jpg","P_M_george_Wbush.jpg","TRUE","pictures/stimuli/P","pictures/stimuli/P","F","M","4","59d3bb3200d4940001817436","11/30/2021, 07:31:56",-0.255242804113523,"31","Female","right",1,1,0,0,FALSE,"P_F_nicola_sturgeon.jpg P_M_george_Wbush.jpg"
2812,"E_M_michael_caine.jpg","P_F_angela_rayner.jpg","FALSE","pictures/stimuli/E","pictures/stimuli/P","M","F","6","59d3bb3200d4940001817436","11/30/2021, 07:31:56",1.00163464038489,"31","Female","right",1,1,0,0,FALSE,"E_M_michael_caine.jpg P_F_angela_rayner.jpg"
2373,"E_F_jennifer_aniston.jpg","P_M_Tony_Blair.jpg","FALSE","pictures/stimuli/E","pictures/stimuli/P","F","M","6","59d3bb3200d4940001817436","11/30/2021, 07:31:56",1.00163464038489,"31","Female","right",1,1,0,0,FALSE,"E_F_jennifer_aniston.jpg P_M_Tony_Blair.jpg"
2376,"E_F_keira_knightley.jpg","P_F_hillary_clinton.jpg","FALSE","pictures/stimuli/E","pictures/stimuli/P","F","F","5","59d3bb3200d4940001817436","11/30/2021, 07:31:56",0.373195918135681,"31","Female","right",1,1,0,0,FALSE,"E_F_keira_knightley.jpg P_F_hillary_clinton.jpg"
3085,"E_F_keira_knightley.jpg","E_M_tom_hankes.jpg","TRUE","pictures/stimuli/E","pictures/stimuli/E","F","M","3","59d3bb3200d4940001817436","11/30/2021, 07:31:56",-0.883681526362727,"31","Female","right",1,1,0,0,FALSE,"E_F_keira_knightley.jpg E_M_tom_hankes.jpg"
4804,"E_F_angelina_jolie.jpg","E_F_Judi_Dench.jpg","TRUE","pictures/stimuli/E","pictures/stimuli/E","F","F","3","59d3bb3200d4940001817436","11/30/2021, 07:31:56",-0.883681526362727,"31","Female","right",1,1,0,0,FALSE,"E_F_angelina_jolie.jpg E_F_Judi_Dench.jpg"
2970,"E_F_Kate_Winslet.jpg","P_M_donald_trump.jpg","FALSE","pictures/stimuli/E","pictures/stimuli/P","F","M","6","59d3bb3200d4940001817436","11/30/2021, 07:31:56",1.00163464038489,"31","Female","right",1,1,0,0,FALSE,"E_F_Kate_Winslet.jpg P_M_donald_trump.jpg"
3045,"E_F_jennifer_aniston.jpg","E_M_Martin_Freeman.jpg","TRUE","pictures/stimuli/E","pictures/stimuli/E","F","M","3","59d3bb3200d4940001817436","11/30/2021, 07:31:56",-0.883681526362727,"31","Female","right",1,1,0,0,FALSE,"E_F_jennifer_aniston.jpg E_M_Martin_Freeman.jpg"
2994,"E_M_robert_de_niro.jpg","P_F_hillary_clinton.jpg","FALSE","pictures/stimuli/E","pictures/stimuli/P","M","F","6","59d3bb3200d4940001817436","11/30/2021, 07:31:56",1.00163464038489,"31","Female","right",1,1,0,0,FALSE,"E_M_robert_de_niro.jpg P_F_hillary_clinton.jpg"
3122,"E_M_michael_caine.jpg","E_M_tom_hankes.jpg","TRUE","pictures/stimuli/E","pictures/stimuli/E","M","M","2","59d3bb3200d4940001817436","11/30/2021, 07:31:56",-1.51212024861193,"31","Female","right",1,1,0,0,FALSE,"E_M_michael_caine.jpg E_M_tom_hankes.jpg"
2209,"P_M_donald_trump.jpg","P_M_Tony_Blair.jpg","TRUE","pictures/stimuli/P","pictures/stimuli/P","M","M","6","59d3bb3200d4940001817436","11/30/2021, 07:31:56",1.00163464038489,"31","Female","right",1,1,0,0,FALSE,"P_M_donald_trump.jpg P_M_Tony_Blair.jpg"
3528,"E_M_tom_hankes.jpg","P_F_hillary_clinton.jpg","FALSE","pictures/stimuli/E","pictures/stimuli/P","M","F","4","59d3bb3200d4940001817436","11/30/2021, 07:31:56",-0.255242804113523,"31","Female","right",1,1,0,0,FALSE,"E_M_tom_hankes.jpg P_F_hillary_clinton.jpg"
5104,"E_M_liam_neeson.jpg","E_M_Martin_Freeman.jpg","TRUE","pictures/stimuli/E","pictures/stimuli/E","M","M","3","59d3bb3200d4940001817436","11/30/2021, 07:31:56",-0.883681526362727,"31","Female","right",1,1,0,0,FALSE,"E_M_liam_neeson.jpg E_M_Martin_Freeman.jpg"
4117,"E_M_nicolas_cage.jpg","P_M_Tony_Blair.jpg","FALSE","pictures/stimuli/E","pictures/stimuli/P","M","M","6","59d3bb3200d4940001817436","11/30/2021, 07:31:56",1.00163464038489,"31","Female","right",1,1,0,0,FALSE,"E_M_nicolas_cage.jpg P_M_Tony_Blair.jpg"
4265,"P_M_bill_clinton.jpg","P_M_george_Wbush.jpg","TRUE","pictures/stimuli/P","pictures/stimuli/P","M","M","3","59d3bb3200d4940001817436","11/30/2021, 07:31:56",-0.883681526362727,"31","Female","right",1,1,0,0,FALSE,"P_M_bill_clinton.jpg P_M_george_Wbush.jpg"
2389,"E_F_Kate_Winslet.jpg","P_M_david_cameron.jpg","FALSE","pictures/stimuli/E","pictures/stimuli/P","F","M","6","59d3bb3200d4940001817436","11/30/2021, 07:31:56",1.00163464038489,"31","Female","right",1,1,0,0,FALSE,"E_F_Kate_Winslet.jpg P_M_david_cameron.jpg"
2615,"E_M_anthony_hopkins.jpg","P_M_george_Wbush.jpg","FALSE","pictures/stimuli/E","pictures/stimuli/P","M","M","6","59d3bb3200d4940001817436","11/30/2021, 07:31:56",1.00163464038489,"31","Female","right",1,1,0,0,FALSE,"E_M_anthony_hopkins.jpg P_M_george_Wbush.jpg"
