"RT","img_1","img_2","isSameProffesion","img1proffesion","img2proffesion","img1Gender","img2Gender","keyPressed","participant","time","normlised_keyPress","age","gender","handedness","isFamiliar_img1","isFamiliar_img2","vividness_img1","vividness_img2","reject_trial","pair"
7577,"E_M_anthony_hopkins.jpg","E_M_tom_hankes.jpg","TRUE","pictures/stimuli/E","pictures/stimuli/E","M","M","4","5b91b40257131100016a3b87","11/30/2021, 15:00:46",-0.514104777184512,"35","Male","right",1,1,0,0,FALSE,"E_M_anthony_hopkins.jpg E_M_tom_hankes.jpg"
2554,"E_F_keira_knightley.jpg","P_F_hillary_clinton.jpg","FALSE","pictures/stimuli/E","pictures/stimuli/P","F","F","6","5b91b40257131100016a3b87","11/30/2021, 15:00:46",0.861072610346076,"35","Male","right",1,1,0,0,FALSE,"E_F_keira_knightley.jpg P_F_hillary_clinton.jpg"
3621,"E_F_Judi_Dench.jpg","P_M_donald_trump.jpg","FALSE","pictures/stimuli/E","pictures/stimuli/P","F","M","5","5b91b40257131100016a3b87","11/30/2021, 15:00:46",0.173483916580782,"35","Male","right",1,1,0,0,FALSE,"E_F_Judi_Dench.jpg P_M_donald_trump.jpg"
3760,"P_F_nicola_sturgeon.jpg","P_M_Tony_Blair.jpg","TRUE","pictures/stimuli/P","pictures/stimuli/P","F","M","5","5b91b40257131100016a3b87","11/30/2021, 15:00:46",0.173483916580782,"35","Male","right",1,1,0,0,FALSE,"P_F_nicola_sturgeon.jpg P_M_Tony_Blair.jpg"
3308,"E_F_jennifer_aniston.jpg","P_M_Tony_Blair.jpg","FALSE","pictures/stimuli/E","pictures/stimuli/P","F","M","6","5b91b40257131100016a3b87","11/30/2021, 15:00:46",0.861072610346076,"35","Male","right",1,1,0,0,FALSE,"E_F_jennifer_aniston.jpg P_M_Tony_Blair.jpg"
2380,"E_F_sandra_bullock.jpg","P_F_esther_mcvey.jpg","FALSE","pictures/stimuli/E","pictures/stimuli/P","F","F","6","5b91b40257131100016a3b87","11/30/2021, 15:00:46",0.861072610346076,"35","Male","right",1,0,0,0,TRUE,"E_F_sandra_bullock.jpg P_F_esther_mcvey.jpg"
2669,"E_M_liam_neeson.jpg","E_M_tom_hankes.jpg","TRUE","pictures/stimuli/E","pictures/stimuli/E","M","M","4","5b91b40257131100016a3b87","11/30/2021, 15:00:46",-0.514104777184512,"35","Male","right",1,1,0,0,FALSE,"E_M_liam_neeson.jpg E_M_tom_hankes.jpg"
5021,"E_F_jennifer_aniston.jpg","E_F_keira_knightley.jpg","TRUE","pictures/stimuli/E","pictures/stimuli/E","F","F","5","5b91b40257131100016a3b87","11/30/2021, 15:00:46",0.173483916580782,"35","Male","right",1,1,0,0,FALSE,"E_F_jennifer_aniston.jpg E_F_keira_knightley.jpg"
2351,"E_F_sandra_bullock.jpg","P_F_tehresy_may.jpg","FALSE","pictures/stimuli/E","pictures/stimuli/P","F","F","6","5b91b40257131100016a3b87","11/30/2021, 15:00:46",0.861072610346076,"35","Male","right",1,1,0,0,FALSE,"E_F_sandra_bullock.jpg P_F_tehresy_may.jpg"
5255,"E_M_anthony_hopkins.jpg","P_M_bill_clinton.jpg","FALSE","pictures/stimuli/E","pictures/stimuli/P","M","M","4","5b91b40257131100016a3b87","11/30/2021, 15:00:46",-0.514104777184512,"35","Male","right",1,1,0,0,FALSE,"E_M_anthony_hopkins.jpg P_M_bill_clinton.jpg"
3524,"E_M_michael_caine.jpg","E_M_nicolas_cage.jpg","TRUE","pictures/stimuli/E","pictures/stimuli/E","M","M","2","5b91b40257131100016a3b87","11/30/2021, 15:00:46",-1.8892821647151,"35","Male","right",1,1,0,0,FALSE,"E_M_michael_caine.jpg E_M_nicolas_cage.jpg"
3732,"P_F_angela_rayner.jpg","P_F_hillary_clinton.jpg","TRUE","pictures/stimuli/P","pictures/stimuli/P","F","F","3","5b91b40257131100016a3b87","11/30/2021, 15:00:46",-1.20169347094981,"35","Male","right",0,1,0,0,TRUE,"P_F_angela_rayner.jpg P_F_hillary_clinton.jpg"
3334,"E_F_sandra_bullock.jpg","E_M_Martin_Freeman.jpg","TRUE","pictures/stimuli/E","pictures/stimuli/E","F","M","6","5b91b40257131100016a3b87","11/30/2021, 15:00:46",0.861072610346076,"35","Male","right",1,1,0,0,FALSE,"E_F_sandra_bullock.jpg E_M_Martin_Freeman.jpg"
3064,"E_F_angelina_jolie.jpg","P_F_hillary_clinton.jpg","FALSE","pictures/stimuli/E","pictures/stimuli/P","F","F","6","5b91b40257131100016a3b87","11/30/2021, 15:00:46",0.861072610346076,"35","Male","right",1,1,0,0,FALSE,"E_F_angelina_jolie.jpg P_F_hillary_clinton.jpg"
2160,"E_F_angelina_jolie.jpg","P_F_nicola_sturgeon.jpg","FALSE","pictures/stimuli/E","pictures/stimuli/P","F","F","6","5b91b40257131100016a3b87","11/30/2021, 15:00:46",0.861072610346076,"35","Male","right",1,1,0,0,FALSE,"E_F_angelina_jolie.jpg P_F_nicola_sturgeon.jpg"
3658,"E_F_keira_knightley.jpg","P_F_tehresy_may.jpg","FALSE","pictures/stimuli/E","pictures/stimuli/P","F","F","6","5b91b40257131100016a3b87","11/30/2021, 15:00:46",0.861072610346076,"35","Male","right",1,1,0,0,FALSE,"E_F_keira_knightley.jpg P_F_tehresy_may.jpg"
4080,"P_F_nicola_sturgeon.jpg","P_F_PRITI_PATEL.jpg","TRUE","pictures/stimuli/P","pictures/stimuli/P","F","F","6","5b91b40257131100016a3b87","11/30/2021, 15:00:46",0.861072610346076,"35","Male","right",1,0,0,0,TRUE,"P_F_nicola_sturgeon.jpg P_F_PRITI_PATEL.jpg"
5734,"E_F_Judi_Dench.jpg","P_F_hillary_clinton.jpg","FALSE","pictures/stimuli/E","pictures/stimuli/P","F","F","6","5b91b40257131100016a3b87","11/30/2021, 15:00:46",0.861072610346076,"35","Male","right",1,1,0,0,FALSE,"E_F_Judi_Dench.jpg P_F_hillary_clinton.jpg"
2669,"E_F_Kate_Winslet.jpg","E_M_nicolas_cage.jpg","TRUE","pictures/stimuli/E","pictures/stimuli/E","F","M","6","5b91b40257131100016a3b87","11/30/2021, 15:00:46",0.861072610346076,"35","Male","right",1,1,0,0,FALSE,"E_F_Kate_Winslet.jpg E_M_nicolas_cage.jpg"
2977,"E_M_robert_de_niro.jpg","P_F_angela_rayner.jpg","FALSE","pictures/stimuli/E","pictures/stimuli/P","M","F","6","5b91b40257131100016a3b87","11/30/2021, 15:00:46",0.861072610346076,"35","Male","right",1,0,0,0,TRUE,"E_M_robert_de_niro.jpg P_F_angela_rayner.jpg"
9284,"E_F_Judi_Dench.jpg","E_M_Martin_Freeman.jpg","TRUE","pictures/stimuli/E","pictures/stimuli/E","F","M","5","5b91b40257131100016a3b87","11/30/2021, 15:00:46",0.173483916580782,"35","Male","right",1,1,0,0,FALSE,"E_F_Judi_Dench.jpg E_M_Martin_Freeman.jpg"
2840,"P_F_esther_mcvey.jpg","P_M_bill_clinton.jpg","TRUE","pictures/stimuli/P","pictures/stimuli/P","F","M","6","5b91b40257131100016a3b87","11/30/2021, 15:00:46",0.861072610346076,"35","Male","right",0,1,0,0,TRUE,"P_F_esther_mcvey.jpg P_M_bill_clinton.jpg"
9711,"E_F_keira_knightley.jpg","E_M_liam_neeson.jpg","TRUE","pictures/stimuli/E","pictures/stimuli/E","F","M","6","5b91b40257131100016a3b87","11/30/2021, 15:00:46",0.861072610346076,"35","Male","right",1,1,0,0,FALSE,"E_F_keira_knightley.jpg E_M_liam_neeson.jpg"
2958,"P_F_esther_mcvey.jpg","P_M_george_Wbush.jpg","TRUE","pictures/stimuli/P","pictures/stimuli/P","F","M","6","5b91b40257131100016a3b87","11/30/2021, 15:00:46",0.861072610346076,"35","Male","right",0,1,0,0,TRUE,"P_F_esther_mcvey.jpg P_M_george_Wbush.jpg"
2812,"E_M_tom_hankes.jpg","P_M_donald_trump.jpg","FALSE","pictures/stimuli/E","pictures/stimuli/P","M","M","5","5b91b40257131100016a3b87","11/30/2021, 15:00:46",0.173483916580782,"35","Male","right",1,1,0,0,FALSE,"E_M_tom_hankes.jpg P_M_donald_trump.jpg"
4383,"E_F_Kate_Winslet.jpg","E_F_keira_knightley.jpg","TRUE","pictures/stimuli/E","pictures/stimuli/E","F","F","2","5b91b40257131100016a3b87","11/30/2021, 15:00:46",-1.8892821647151,"35","Male","right",1,1,0,0,FALSE,"E_F_Kate_Winslet.jpg E_F_keira_knightley.jpg"
3078,"E_M_Hugh_Grant.jpg","E_M_liam_neeson.jpg","TRUE","pictures/stimuli/E","pictures/stimuli/E","M","M","4","5b91b40257131100016a3b87","11/30/2021, 15:00:46",-0.514104777184512,"35","Male","right",1,1,0,0,FALSE,"E_M_Hugh_Grant.jpg E_M_liam_neeson.jpg"
3655,"E_F_angelina_jolie.jpg","E_F_Kate_Winslet.jpg","TRUE","pictures/stimuli/E","pictures/stimuli/E","F","F","4","5b91b40257131100016a3b87","11/30/2021, 15:00:46",-0.514104777184512,"35","Male","right",1,1,0,0,FALSE,"E_F_angelina_jolie.jpg E_F_Kate_Winslet.jpg"
3869,"E_M_liam_neeson.jpg","E_M_michael_caine.jpg","TRUE","pictures/stimuli/E","pictures/stimuli/E","M","M","5","5b91b40257131100016a3b87","11/30/2021, 15:00:46",0.173483916580782,"35","Male","right",1,1,0,0,FALSE,"E_M_liam_neeson.jpg E_M_michael_caine.jpg"
4198,"E_F_jennifer_aniston.jpg","E_M_tom_hankes.jpg","TRUE","pictures/stimuli/E","pictures/stimuli/E","F","M","6","5b91b40257131100016a3b87","11/30/2021, 15:00:46",0.861072610346076,"35","Male","right",1,1,0,0,FALSE,"E_F_jennifer_aniston.jpg E_M_tom_hankes.jpg"
4331,"E_F_Judi_Dench.jpg","P_F_esther_mcvey.jpg","FALSE","pictures/stimuli/E","pictures/stimuli/P","F","F","6","5b91b40257131100016a3b87","11/30/2021, 15:00:46",0.861072610346076,"35","Male","right",1,0,0,0,TRUE,"E_F_Judi_Dench.jpg P_F_esther_mcvey.jpg"
6687,"E_F_Kate_Winslet.jpg","P_M_george_Wbush.jpg","FALSE","pictures/stimuli/E","pictures/stimuli/P","F","M","6","5b91b40257131100016a3b87","11/30/2021, 15:00:46",0.861072610346076,"35","Male","right",1,1,0,0,FALSE,"E_F_Kate_Winslet.jpg P_M_george_Wbush.jpg"
3333,"E_M_robert_de_niro.jpg","P_M_david_cameron.jpg","FALSE","pictures/stimuli/E","pictures/stimuli/P","M","M","5","5b91b40257131100016a3b87","11/30/2021, 15:00:46",0.173483916580782,"35","Male","right",1,1,0,0,FALSE,"E_M_robert_de_niro.jpg P_M_david_cameron.jpg"
3192,"E_M_michael_caine.jpg","P_F_tehresy_may.jpg","FALSE","pictures/stimuli/E","pictures/stimuli/P","M","F","4","5b91b40257131100016a3b87","11/30/2021, 15:00:46",-0.514104777184512,"35","Male","right",1,1,0,0,FALSE,"E_M_michael_caine.jpg P_F_tehresy_may.jpg"
9839,"E_F_sandra_bullock.jpg","E_M_liam_neeson.jpg","TRUE","pictures/stimuli/E","pictures/stimuli/E","F","M","5","5b91b40257131100016a3b87","11/30/2021, 15:00:46",0.173483916580782,"35","Male","right",1,1,0,0,FALSE,"E_F_sandra_bullock.jpg E_M_liam_neeson.jpg"
8214,"E_F_Judi_Dench.jpg","P_M_bill_clinton.jpg","FALSE","pictures/stimuli/E","pictures/stimuli/P","F","M","4","5b91b40257131100016a3b87","11/30/2021, 15:00:46",-0.514104777184512,"35","Male","right",1,1,0,0,FALSE,"E_F_Judi_Dench.jpg P_M_bill_clinton.jpg"
14080,"E_M_nicolas_cage.jpg","P_F_esther_mcvey.jpg","FALSE","pictures/stimuli/E","pictures/stimuli/P","M","F","4","5b91b40257131100016a3b87","11/30/2021, 15:00:46",-0.514104777184512,"35","Male","right",1,0,0,0,TRUE,"E_M_nicolas_cage.jpg P_F_esther_mcvey.jpg"
5038,"E_M_Hugh_Grant.jpg","P_M_boris_johnson.jpg","FALSE","pictures/stimuli/E","pictures/stimuli/P","M","M","4","5b91b40257131100016a3b87","11/30/2021, 15:00:46",-0.514104777184512,"35","Male","right",1,1,0,0,FALSE,"E_M_Hugh_Grant.jpg P_M_boris_johnson.jpg"
4032,"E_F_keira_knightley.jpg","E_F_sandra_bullock.jpg","TRUE","pictures/stimuli/E","pictures/stimuli/E","F","F","2","5b91b40257131100016a3b87","11/30/2021, 15:00:46",-1.8892821647151,"35","Male","right",1,1,0,0,FALSE,"E_F_keira_knightley.jpg E_F_sandra_bullock.jpg"
21054,"P_F_esther_mcvey.jpg","P_M_Tony_Blair.jpg","TRUE","pictures/stimuli/P","pictures/stimuli/P","F","M","6","5b91b40257131100016a3b87","11/30/2021, 15:00:46",0.861072610346076,"35","Male","right",0,1,0,0,TRUE,"P_F_esther_mcvey.jpg P_M_Tony_Blair.jpg"
2327,"E_F_keira_knightley.jpg","P_M_donald_trump.jpg","FALSE","pictures/stimuli/E","pictures/stimuli/P","F","M","6","5b91b40257131100016a3b87","11/30/2021, 15:00:46",0.861072610346076,"35","Male","right",1,1,0,0,FALSE,"E_F_keira_knightley.jpg P_M_donald_trump.jpg"
8198,"E_M_Hugh_Grant.jpg","P_F_PRITI_PATEL.jpg","FALSE","pictures/stimuli/E","pictures/stimuli/P","M","F","6","5b91b40257131100016a3b87","11/30/2021, 15:00:46",0.861072610346076,"35","Male","right",1,0,0,0,TRUE,"E_M_Hugh_Grant.jpg P_F_PRITI_PATEL.jpg"
5056,"E_M_anthony_hopkins.jpg","E_M_Hugh_Grant.jpg","TRUE","pictures/stimuli/E","pictures/stimuli/E","M","M","5","5b91b40257131100016a3b87","11/30/2021, 15:00:46",0.173483916580782,"35","Male","right",1,1,0,0,FALSE,"E_M_anthony_hopkins.jpg E_M_Hugh_Grant.jpg"
4070,"E_M_liam_neeson.jpg","E_M_robert_de_niro.jpg","TRUE","pictures/stimuli/E","pictures/stimuli/E","M","M","3","5b91b40257131100016a3b87","11/30/2021, 15:00:46",-1.20169347094981,"35","Male","right",1,1,0,0,FALSE,"E_M_liam_neeson.jpg E_M_robert_de_niro.jpg"
4301,"P_F_tehresy_may.jpg","P_M_david_cameron.jpg","TRUE","pictures/stimuli/P","pictures/stimuli/P","F","M","5","5b91b40257131100016a3b87","11/30/2021, 15:00:46",0.173483916580782,"35","Male","right",1,1,0,0,FALSE,"P_F_tehresy_may.jpg P_M_david_cameron.jpg"
7535,"P_F_tehresy_may.jpg","P_M_bill_clinton.jpg","TRUE","pictures/stimuli/P","pictures/stimuli/P","F","M","5","5b91b40257131100016a3b87","11/30/2021, 15:00:46",0.173483916580782,"35","Male","right",1,1,0,0,FALSE,"P_F_tehresy_may.jpg P_M_bill_clinton.jpg"
6023,"E_F_keira_knightley.jpg","E_M_tom_hankes.jpg","TRUE","pictures/stimuli/E","pictures/stimuli/E","F","M","6","5b91b40257131100016a3b87","11/30/2021, 15:00:46",0.861072610346076,"35","Male","right",1,1,0,0,FALSE,"E_F_keira_knightley.jpg E_M_tom_hankes.jpg"
4749,"E_F_Kate_Winslet.jpg","E_M_liam_neeson.jpg","TRUE","pictures/stimuli/E","pictures/stimuli/E","F","M","6","5b91b40257131100016a3b87","11/30/2021, 15:00:46",0.861072610346076,"35","Male","right",1,1,0,0,FALSE,"E_F_Kate_Winslet.jpg E_M_liam_neeson.jpg"
19072,"E_M_liam_neeson.jpg","P_F_esther_mcvey.jpg","FALSE","pictures/stimuli/E","pictures/stimuli/P","M","F","6","5b91b40257131100016a3b87","11/30/2021, 15:00:46",0.861072610346076,"35","Male","right",1,0,0,0,TRUE,"E_M_liam_neeson.jpg P_F_esther_mcvey.jpg"
2549,"E_M_robert_de_niro.jpg","P_M_donald_trump.jpg","FALSE","pictures/stimuli/E","pictures/stimuli/P","M","M","5","5b91b40257131100016a3b87","11/30/2021, 15:00:46",0.173483916580782,"35","Male","right",1,1,0,0,FALSE,"E_M_robert_de_niro.jpg P_M_donald_trump.jpg"
3468,"E_M_robert_de_niro.jpg","P_F_PRITI_PATEL.jpg","FALSE","pictures/stimuli/E","pictures/stimuli/P","M","F","6","5b91b40257131100016a3b87","11/30/2021, 15:00:46",0.861072610346076,"35","Male","right",1,0,0,0,TRUE,"E_M_robert_de_niro.jpg P_F_PRITI_PATEL.jpg"
2828,"E_F_Kate_Winslet.jpg","P_M_bill_clinton.jpg","FALSE","pictures/stimuli/E","pictures/stimuli/P","F","M","6","5b91b40257131100016a3b87","11/30/2021, 15:00:46",0.861072610346076,"35","Male","right",1,1,0,0,FALSE,"E_F_Kate_Winslet.jpg P_M_bill_clinton.jpg"
6678,"E_M_Hugh_Grant.jpg","E_M_nicolas_cage.jpg","TRUE","pictures/stimuli/E","pictures/stimuli/E","M","M","5","5b91b40257131100016a3b87","11/30/2021, 15:00:46",0.173483916580782,"35","Male","right",1,1,0,0,FALSE,"E_M_Hugh_Grant.jpg E_M_nicolas_cage.jpg"
4433,"P_M_boris_johnson.jpg","P_M_donald_trump.jpg","TRUE","pictures/stimuli/P","pictures/stimuli/P","M","M","1","5b91b40257131100016a3b87","11/30/2021, 15:00:46",-2.57687085848039,"35","Male","right",1,1,0,0,FALSE,"P_M_boris_johnson.jpg P_M_donald_trump.jpg"
4244,"E_F_jennifer_aniston.jpg","P_F_PRITI_PATEL.jpg","FALSE","pictures/stimuli/E","pictures/stimuli/P","F","F","5","5b91b40257131100016a3b87","11/30/2021, 15:00:46",0.173483916580782,"35","Male","right",1,0,0,0,TRUE,"E_F_jennifer_aniston.jpg P_F_PRITI_PATEL.jpg"
4925,"P_F_nicola_sturgeon.jpg","P_M_boris_johnson.jpg","TRUE","pictures/stimuli/P","pictures/stimuli/P","F","M","6","5b91b40257131100016a3b87","11/30/2021, 15:00:46",0.861072610346076,"35","Male","right",1,1,0,0,FALSE,"P_F_nicola_sturgeon.jpg P_M_boris_johnson.jpg"
3821,"E_M_nicolas_cage.jpg","P_M_bill_clinton.jpg","FALSE","pictures/stimuli/E","pictures/stimuli/P","M","M","5","5b91b40257131100016a3b87","11/30/2021, 15:00:46",0.173483916580782,"35","Male","right",1,1,0,0,FALSE,"E_M_nicolas_cage.jpg P_M_bill_clinton.jpg"
2271,"E_M_Martin_Freeman.jpg","E_M_nicolas_cage.jpg","TRUE","pictures/stimuli/E","pictures/stimuli/E","M","M","6","5b91b40257131100016a3b87","11/30/2021, 15:00:46",0.861072610346076,"35","Male","right",1,1,0,0,FALSE,"E_M_Martin_Freeman.jpg E_M_nicolas_cage.jpg"
7273,"P_F_nicola_sturgeon.jpg","P_M_bill_clinton.jpg","TRUE","pictures/stimuli/P","pictures/stimuli/P","F","M","5","5b91b40257131100016a3b87","11/30/2021, 15:00:46",0.173483916580782,"35","Male","right",1,1,0,0,FALSE,"P_F_nicola_sturgeon.jpg P_M_bill_clinton.jpg"
2712,"P_F_PRITI_PATEL.jpg","P_F_tehresy_may.jpg","TRUE","pictures/stimuli/P","pictures/stimuli/P","F","F","6","5b91b40257131100016a3b87","11/30/2021, 15:00:46",0.861072610346076,"35","Male","right",0,1,0,0,TRUE,"P_F_PRITI_PATEL.jpg P_F_tehresy_may.jpg"
17829,"E_F_Kate_Winslet.jpg","P_M_donald_trump.jpg","FALSE","pictures/stimuli/E","pictures/stimuli/P","F","M","6","5b91b40257131100016a3b87","11/30/2021, 15:00:46",0.861072610346076,"35","Male","right",1,1,0,0,FALSE,"E_F_Kate_Winslet.jpg P_M_donald_trump.jpg"
8867,"E_M_anthony_hopkins.jpg","P_M_Tony_Blair.jpg","FALSE","pictures/stimuli/E","pictures/stimuli/P","M","M","2","5b91b40257131100016a3b87","11/30/2021, 15:00:46",-1.8892821647151,"35","Male","right",1,1,0,0,FALSE,"E_M_anthony_hopkins.jpg P_M_Tony_Blair.jpg"
10844,"E_F_Kate_Winslet.jpg","P_F_esther_mcvey.jpg","FALSE","pictures/stimuli/E","pictures/stimuli/P","F","F","6","5b91b40257131100016a3b87","11/30/2021, 15:00:46",0.861072610346076,"35","Male","right",1,0,0,0,TRUE,"E_F_Kate_Winslet.jpg P_F_esther_mcvey.jpg"
4127,"E_F_angelina_jolie.jpg","E_F_Judi_Dench.jpg","TRUE","pictures/stimuli/E","pictures/stimuli/E","F","F","2","5b91b40257131100016a3b87","11/30/2021, 15:00:46",-1.8892821647151,"35","Male","right",1,1,0,0,FALSE,"E_F_angelina_jolie.jpg E_F_Judi_Dench.jpg"
3192,"E_M_Hugh_Grant.jpg","P_M_george_Wbush.jpg","FALSE","pictures/stimuli/E","pictures/stimuli/P","M","M","5","5b91b40257131100016a3b87","11/30/2021, 15:00:46",0.173483916580782,"35","Male","right",1,1,0,0,FALSE,"E_M_Hugh_Grant.jpg P_M_george_Wbush.jpg"
9749,"E_F_sandra_bullock.jpg","P_M_david_cameron.jpg","FALSE","pictures/stimuli/E","pictures/stimuli/P","F","M","6","5b91b40257131100016a3b87","11/30/2021, 15:00:46",0.861072610346076,"35","Male","right",1,1,0,0,FALSE,"E_F_sandra_bullock.jpg P_M_david_cameron.jpg"
4391,"E_M_Hugh_Grant.jpg","P_F_esther_mcvey.jpg","FALSE","pictures/stimuli/E","pictures/stimuli/P","M","F","6","5b91b40257131100016a3b87","11/30/2021, 15:00:46",0.861072610346076,"35","Male","right",1,0,0,0,TRUE,"E_M_Hugh_Grant.jpg P_F_esther_mcvey.jpg"
7561,"E_M_nicolas_cage.jpg","P_F_angela_rayner.jpg","FALSE","pictures/stimuli/E","pictures/stimuli/P","M","F","5","5b91b40257131100016a3b87","11/30/2021, 15:00:46",0.173483916580782,"35","Male","right",1,0,0,0,TRUE,"E_M_nicolas_cage.jpg P_F_angela_rayner.jpg"
2131,"E_M_anthony_hopkins.jpg","P_F_PRITI_PATEL.jpg","FALSE","pictures/stimuli/E","pictures/stimuli/P","M","F","6","5b91b40257131100016a3b87","11/30/2021, 15:00:46",0.861072610346076,"35","Male","right",1,0,0,0,TRUE,"E_M_anthony_hopkins.jpg P_F_PRITI_PATEL.jpg"
7815,"E_M_tom_hankes.jpg","P_M_david_cameron.jpg","FALSE","pictures/stimuli/E","pictures/stimuli/P","M","M","2","5b91b40257131100016a3b87","11/30/2021, 15:00:46",-1.8892821647151,"35","Male","right",1,1,0,0,FALSE,"E_M_tom_hankes.jpg P_M_david_cameron.jpg"
4419,"P_F_angela_rayner.jpg","P_M_boris_johnson.jpg","TRUE","pictures/stimuli/P","pictures/stimuli/P","F","M","6","5b91b40257131100016a3b87","11/30/2021, 15:00:46",0.861072610346076,"35","Male","right",0,1,0,0,TRUE,"P_F_angela_rayner.jpg P_M_boris_johnson.jpg"
3787,"E_M_anthony_hopkins.jpg","E_M_Martin_Freeman.jpg","TRUE","pictures/stimuli/E","pictures/stimuli/E","M","M","2","5b91b40257131100016a3b87","11/30/2021, 15:00:46",-1.8892821647151,"35","Male","right",1,1,0,0,FALSE,"E_M_anthony_hopkins.jpg E_M_Martin_Freeman.jpg"
2221,"E_F_jennifer_aniston.jpg","P_M_donald_trump.jpg","FALSE","pictures/stimuli/E","pictures/stimuli/P","F","M","6","5b91b40257131100016a3b87","11/30/2021, 15:00:46",0.861072610346076,"35","Male","right",1,1,0,0,FALSE,"E_F_jennifer_aniston.jpg P_M_donald_trump.jpg"
2833,"E_M_nicolas_cage.jpg","P_M_Tony_Blair.jpg","FALSE","pictures/stimuli/E","pictures/stimuli/P","M","M","2","5b91b40257131100016a3b87","11/30/2021, 15:00:46",-1.8892821647151,"35","Male","right",1,1,0,0,FALSE,"E_M_nicolas_cage.jpg P_M_Tony_Blair.jpg"
2789,"E_M_Hugh_Grant.jpg","P_F_tehresy_may.jpg","FALSE","pictures/stimuli/E","pictures/stimuli/P","M","F","2","5b91b40257131100016a3b87","11/30/2021, 15:00:46",-1.8892821647151,"35","Male","right",1,1,0,0,FALSE,"E_M_Hugh_Grant.jpg P_F_tehresy_may.jpg"
7289,"E_F_jennifer_aniston.jpg","P_F_hillary_clinton.jpg","FALSE","pictures/stimuli/E","pictures/stimuli/P","F","F","4","5b91b40257131100016a3b87","11/30/2021, 15:00:46",-0.514104777184512,"35","Male","right",1,1,0,0,FALSE,"E_F_jennifer_aniston.jpg P_F_hillary_clinton.jpg"
3526,"E_M_tom_hankes.jpg","P_M_bill_clinton.jpg","FALSE","pictures/stimuli/E","pictures/stimuli/P","M","M","2","5b91b40257131100016a3b87","11/30/2021, 15:00:46",-1.8892821647151,"35","Male","right",1,1,0,0,FALSE,"E_M_tom_hankes.jpg P_M_bill_clinton.jpg"
16281,"E_M_anthony_hopkins.jpg","P_M_david_cameron.jpg","FALSE","pictures/stimuli/E","pictures/stimuli/P","M","M","3","5b91b40257131100016a3b87","11/30/2021, 15:00:46",-1.20169347094981,"35","Male","right",1,1,0,0,FALSE,"E_M_anthony_hopkins.jpg P_M_david_cameron.jpg"
12539,"E_F_jennifer_aniston.jpg","E_M_liam_neeson.jpg","TRUE","pictures/stimuli/E","pictures/stimuli/E","F","M","6","5b91b40257131100016a3b87","11/30/2021, 15:00:46",0.861072610346076,"35","Male","right",1,1,0,0,FALSE,"E_F_jennifer_aniston.jpg E_M_liam_neeson.jpg"
11260,"E_F_angelina_jolie.jpg","P_M_bill_clinton.jpg","FALSE","pictures/stimuli/E","pictures/stimuli/P","F","M","6","5b91b40257131100016a3b87","11/30/2021, 15:00:46",0.861072610346076,"35","Male","right",1,1,0,0,FALSE,"E_F_angelina_jolie.jpg P_M_bill_clinton.jpg"
5405,"E_F_keira_knightley.jpg","P_M_boris_johnson.jpg","FALSE","pictures/stimuli/E","pictures/stimuli/P","F","M","6","5b91b40257131100016a3b87","11/30/2021, 15:00:46",0.861072610346076,"35","Male","right",1,1,0,0,FALSE,"E_F_keira_knightley.jpg P_M_boris_johnson.jpg"
2323,"E_M_liam_neeson.jpg","P_M_bill_clinton.jpg","FALSE","pictures/stimuli/E","pictures/stimuli/P","M","M","2","5b91b40257131100016a3b87","11/30/2021, 15:00:46",-1.8892821647151,"35","Male","right",1,1,0,0,FALSE,"E_M_liam_neeson.jpg P_M_bill_clinton.jpg"
3270,"E_M_anthony_hopkins.jpg","P_F_nicola_sturgeon.jpg","FALSE","pictures/stimuli/E","pictures/stimuli/P","M","F","6","5b91b40257131100016a3b87","11/30/2021, 15:00:46",0.861072610346076,"35","Male","right",1,1,0,0,FALSE,"E_M_anthony_hopkins.jpg P_F_nicola_sturgeon.jpg"
2753,"E_F_angelina_jolie.jpg","P_F_esther_mcvey.jpg","FALSE","pictures/stimuli/E","pictures/stimuli/P","F","F","6","5b91b40257131100016a3b87","11/30/2021, 15:00:46",0.861072610346076,"35","Male","right",1,0,0,0,TRUE,"E_F_angelina_jolie.jpg P_F_esther_mcvey.jpg"
6728,"E_M_michael_caine.jpg","P_F_hillary_clinton.jpg","FALSE","pictures/stimuli/E","pictures/stimuli/P","M","F","2","5b91b40257131100016a3b87","11/30/2021, 15:00:46",-1.8892821647151,"35","Male","right",1,1,0,0,FALSE,"E_M_michael_caine.jpg P_F_hillary_clinton.jpg"
2972,"E_M_anthony_hopkins.jpg","E_M_liam_neeson.jpg","TRUE","pictures/stimuli/E","pictures/stimuli/E","M","M","5","5b91b40257131100016a3b87","11/30/2021, 15:00:46",0.173483916580782,"35","Male","right",1,1,0,0,FALSE,"E_M_anthony_hopkins.jpg E_M_liam_neeson.jpg"
1829,"E_F_keira_knightley.jpg","P_M_george_Wbush.jpg","FALSE","pictures/stimuli/E","pictures/stimuli/P","F","M","6","5b91b40257131100016a3b87","11/30/2021, 15:00:46",0.861072610346076,"35","Male","right",1,1,0,0,FALSE,"E_F_keira_knightley.jpg P_M_george_Wbush.jpg"
7246,"E_F_jennifer_aniston.jpg","P_M_boris_johnson.jpg","FALSE","pictures/stimuli/E","pictures/stimuli/P","F","M","6","5b91b40257131100016a3b87","11/30/2021, 15:00:46",0.861072610346076,"35","Male","right",1,1,0,0,FALSE,"E_F_jennifer_aniston.jpg P_M_boris_johnson.jpg"
5099,"E_F_angelina_jolie.jpg","P_M_david_cameron.jpg","FALSE","pictures/stimuli/E","pictures/stimuli/P","F","M","5","5b91b40257131100016a3b87","11/30/2021, 15:00:46",0.173483916580782,"35","Male","right",1,1,0,0,FALSE,"E_F_angelina_jolie.jpg P_M_david_cameron.jpg"
5380,"E_M_Hugh_Grant.jpg","E_M_Martin_Freeman.jpg","TRUE","pictures/stimuli/E","pictures/stimuli/E","M","M","5","5b91b40257131100016a3b87","11/30/2021, 15:00:46",0.173483916580782,"35","Male","right",1,1,0,0,FALSE,"E_M_Hugh_Grant.jpg E_M_Martin_Freeman.jpg"
2964,"E_F_angelina_jolie.jpg","E_M_liam_neeson.jpg","TRUE","pictures/stimuli/E","pictures/stimuli/E","F","M","4","5b91b40257131100016a3b87","11/30/2021, 15:00:46",-0.514104777184512,"35","Male","right",1,1,0,0,FALSE,"E_F_angelina_jolie.jpg E_M_liam_neeson.jpg"
1950,"E_F_sandra_bullock.jpg","P_M_donald_trump.jpg","FALSE","pictures/stimuli/E","pictures/stimuli/P","F","M","6","5b91b40257131100016a3b87","11/30/2021, 15:00:46",0.861072610346076,"35","Male","right",1,1,0,0,FALSE,"E_F_sandra_bullock.jpg P_M_donald_trump.jpg"
3059,"P_F_hillary_clinton.jpg","P_F_nicola_sturgeon.jpg","TRUE","pictures/stimuli/P","pictures/stimuli/P","F","F","1","5b91b40257131100016a3b87","11/30/2021, 15:00:46",-2.57687085848039,"35","Male","right",1,1,0,0,FALSE,"P_F_hillary_clinton.jpg P_F_nicola_sturgeon.jpg"
2229,"E_F_jennifer_aniston.jpg","P_M_bill_clinton.jpg","FALSE","pictures/stimuli/E","pictures/stimuli/P","F","M","6","5b91b40257131100016a3b87","11/30/2021, 15:00:46",0.861072610346076,"35","Male","right",1,1,0,0,FALSE,"E_F_jennifer_aniston.jpg P_M_bill_clinton.jpg"
3060,"P_F_angela_rayner.jpg","P_F_tehresy_may.jpg","TRUE","pictures/stimuli/P","pictures/stimuli/P","F","F","6","5b91b40257131100016a3b87","11/30/2021, 15:00:46",0.861072610346076,"35","Male","right",0,1,0,0,TRUE,"P_F_angela_rayner.jpg P_F_tehresy_may.jpg"
2870,"E_M_robert_de_niro.jpg","P_M_george_Wbush.jpg","FALSE","pictures/stimuli/E","pictures/stimuli/P","M","M","1","5b91b40257131100016a3b87","11/30/2021, 15:00:46",-2.57687085848039,"35","Male","right",1,1,0,0,FALSE,"E_M_robert_de_niro.jpg P_M_george_Wbush.jpg"
2472,"E_M_michael_caine.jpg","E_M_tom_hankes.jpg","TRUE","pictures/stimuli/E","pictures/stimuli/E","M","M","1","5b91b40257131100016a3b87","11/30/2021, 15:00:46",-2.57687085848039,"35","Male","right",1,1,0,0,FALSE,"E_M_michael_caine.jpg E_M_tom_hankes.jpg"
4594,"E_F_sandra_bullock.jpg","E_M_Hugh_Grant.jpg","TRUE","pictures/stimuli/E","pictures/stimuli/E","F","M","4","5b91b40257131100016a3b87","11/30/2021, 15:00:46",-0.514104777184512,"35","Male","right",1,1,0,0,FALSE,"E_F_sandra_bullock.jpg E_M_Hugh_Grant.jpg"
4314,"E_M_robert_de_niro.jpg","E_M_tom_hankes.jpg","TRUE","pictures/stimuli/E","pictures/stimuli/E","M","M","3","5b91b40257131100016a3b87","11/30/2021, 15:00:46",-1.20169347094981,"35","Male","right",1,1,0,0,FALSE,"E_M_robert_de_niro.jpg E_M_tom_hankes.jpg"
4818,"E_F_angelina_jolie.jpg","E_F_keira_knightley.jpg","TRUE","pictures/stimuli/E","pictures/stimuli/E","F","F","2","5b91b40257131100016a3b87","11/30/2021, 15:00:46",-1.8892821647151,"35","Male","right",1,1,0,0,FALSE,"E_F_angelina_jolie.jpg E_F_keira_knightley.jpg"
6358,"P_F_hillary_clinton.jpg","P_M_bill_clinton.jpg","TRUE","pictures/stimuli/P","pictures/stimuli/P","F","M","2","5b91b40257131100016a3b87","11/30/2021, 15:00:46",-1.8892821647151,"35","Male","right",1,1,0,0,FALSE,"P_F_hillary_clinton.jpg P_M_bill_clinton.jpg"
7052,"E_M_anthony_hopkins.jpg","P_M_donald_trump.jpg","FALSE","pictures/stimuli/E","pictures/stimuli/P","M","M","2","5b91b40257131100016a3b87","11/30/2021, 15:00:46",-1.8892821647151,"35","Male","right",1,1,0,0,FALSE,"E_M_anthony_hopkins.jpg P_M_donald_trump.jpg"
7494,"E_M_tom_hankes.jpg","P_F_hillary_clinton.jpg","FALSE","pictures/stimuli/E","pictures/stimuli/P","M","F","5","5b91b40257131100016a3b87","11/30/2021, 15:00:46",0.173483916580782,"35","Male","right",1,1,0,0,FALSE,"E_M_tom_hankes.jpg P_F_hillary_clinton.jpg"
1962,"E_M_robert_de_niro.jpg","P_M_Tony_Blair.jpg","FALSE","pictures/stimuli/E","pictures/stimuli/P","M","M","1","5b91b40257131100016a3b87","11/30/2021, 15:00:46",-2.57687085848039,"35","Male","right",1,1,0,0,FALSE,"E_M_robert_de_niro.jpg P_M_Tony_Blair.jpg"
1870,"P_M_george_Wbush.jpg","P_M_Tony_Blair.jpg","TRUE","pictures/stimuli/P","pictures/stimuli/P","M","M","1","5b91b40257131100016a3b87","11/30/2021, 15:00:46",-2.57687085848039,"35","Male","right",1,1,0,0,FALSE,"P_M_george_Wbush.jpg P_M_Tony_Blair.jpg"
3607,"P_F_esther_mcvey.jpg","P_F_hillary_clinton.jpg","TRUE","pictures/stimuli/P","pictures/stimuli/P","F","F","5","5b91b40257131100016a3b87","11/30/2021, 15:00:46",0.173483916580782,"35","Male","right",0,1,0,0,TRUE,"P_F_esther_mcvey.jpg P_F_hillary_clinton.jpg"
6811,"E_M_robert_de_niro.jpg","P_M_boris_johnson.jpg","FALSE","pictures/stimuli/E","pictures/stimuli/P","M","M","5","5b91b40257131100016a3b87","11/30/2021, 15:00:46",0.173483916580782,"35","Male","right",1,1,0,0,FALSE,"E_M_robert_de_niro.jpg P_M_boris_johnson.jpg"
16979,"E_M_robert_de_niro.jpg","P_F_esther_mcvey.jpg","FALSE","pictures/stimuli/E","pictures/stimuli/P","M","F","5","5b91b40257131100016a3b87","11/30/2021, 15:00:46",0.173483916580782,"35","Male","right",1,0,0,0,TRUE,"E_M_robert_de_niro.jpg P_F_esther_mcvey.jpg"
2528,"E_F_Kate_Winslet.jpg","E_M_robert_de_niro.jpg","TRUE","pictures/stimuli/E","pictures/stimuli/E","F","M","6","5b91b40257131100016a3b87","11/30/2021, 15:00:46",0.861072610346076,"35","Male","right",1,1,0,0,FALSE,"E_F_Kate_Winslet.jpg E_M_robert_de_niro.jpg"
1442,"E_F_jennifer_aniston.jpg","E_M_anthony_hopkins.jpg","TRUE","pictures/stimuli/E","pictures/stimuli/E","F","M","6","5b91b40257131100016a3b87","11/30/2021, 15:00:46",0.861072610346076,"35","Male","right",1,1,0,0,FALSE,"E_F_jennifer_aniston.jpg E_M_anthony_hopkins.jpg"
3901,"P_F_hillary_clinton.jpg","P_F_tehresy_may.jpg","TRUE","pictures/stimuli/P","pictures/stimuli/P","F","F","4","5b91b40257131100016a3b87","11/30/2021, 15:00:46",-0.514104777184512,"35","Male","right",1,1,0,0,FALSE,"P_F_hillary_clinton.jpg P_F_tehresy_may.jpg"
2659,"E_F_keira_knightley.jpg","P_F_angela_rayner.jpg","FALSE","pictures/stimuli/E","pictures/stimuli/P","F","F","5","5b91b40257131100016a3b87","11/30/2021, 15:00:46",0.173483916580782,"35","Male","right",1,0,0,0,TRUE,"E_F_keira_knightley.jpg P_F_angela_rayner.jpg"
7546,"E_M_anthony_hopkins.jpg","P_F_hillary_clinton.jpg","FALSE","pictures/stimuli/E","pictures/stimuli/P","M","F","5","5b91b40257131100016a3b87","11/30/2021, 15:00:46",0.173483916580782,"35","Male","right",1,1,0,0,FALSE,"E_M_anthony_hopkins.jpg P_F_hillary_clinton.jpg"
5205,"E_M_anthony_hopkins.jpg","E_M_michael_caine.jpg","TRUE","pictures/stimuli/E","pictures/stimuli/E","M","M","4","5b91b40257131100016a3b87","11/30/2021, 15:00:46",-0.514104777184512,"35","Male","right",1,1,0,0,FALSE,"E_M_anthony_hopkins.jpg E_M_michael_caine.jpg"
10343,"E_M_anthony_hopkins.jpg","P_F_tehresy_may.jpg","FALSE","pictures/stimuli/E","pictures/stimuli/P","M","F","4","5b91b40257131100016a3b87","11/30/2021, 15:00:46",-0.514104777184512,"35","Male","right",1,1,0,0,FALSE,"E_M_anthony_hopkins.jpg P_F_tehresy_may.jpg"
6227,"P_F_PRITI_PATEL.jpg","P_M_donald_trump.jpg","TRUE","pictures/stimuli/P","pictures/stimuli/P","F","M","6","5b91b40257131100016a3b87","11/30/2021, 15:00:46",0.861072610346076,"35","Male","right",0,1,0,0,TRUE,"P_F_PRITI_PATEL.jpg P_M_donald_trump.jpg"
6130,"E_F_jennifer_aniston.jpg","E_F_Kate_Winslet.jpg","TRUE","pictures/stimuli/E","pictures/stimuli/E","F","F","2","5b91b40257131100016a3b87","11/30/2021, 15:00:46",-1.8892821647151,"35","Male","right",1,1,0,0,FALSE,"E_F_jennifer_aniston.jpg E_F_Kate_Winslet.jpg"
7710,"E_M_Martin_Freeman.jpg","P_F_nicola_sturgeon.jpg","FALSE","pictures/stimuli/E","pictures/stimuli/P","M","F","4","5b91b40257131100016a3b87","11/30/2021, 15:00:46",-0.514104777184512,"35","Male","right",1,1,0,0,FALSE,"E_M_Martin_Freeman.jpg P_F_nicola_sturgeon.jpg"
10312,"E_F_jennifer_aniston.jpg","E_F_Judi_Dench.jpg","TRUE","pictures/stimuli/E","pictures/stimuli/E","F","F","6","5b91b40257131100016a3b87","11/30/2021, 15:00:46",0.861072610346076,"35","Male","right",1,1,0,0,FALSE,"E_F_jennifer_aniston.jpg E_F_Judi_Dench.jpg"
2792,"E_M_tom_hankes.jpg","P_F_nicola_sturgeon.jpg","FALSE","pictures/stimuli/E","pictures/stimuli/P","M","F","6","5b91b40257131100016a3b87","11/30/2021, 15:00:46",0.861072610346076,"35","Male","right",1,1,0,0,FALSE,"E_M_tom_hankes.jpg P_F_nicola_sturgeon.jpg"
3607,"E_F_keira_knightley.jpg","E_M_michael_caine.jpg","TRUE","pictures/stimuli/E","pictures/stimuli/E","F","M","5","5b91b40257131100016a3b87","11/30/2021, 15:00:46",0.173483916580782,"35","Male","right",1,1,0,0,FALSE,"E_F_keira_knightley.jpg E_M_michael_caine.jpg"
2567,"E_F_sandra_bullock.jpg","P_M_george_Wbush.jpg","FALSE","pictures/stimuli/E","pictures/stimuli/P","F","M","6","5b91b40257131100016a3b87","11/30/2021, 15:00:46",0.861072610346076,"35","Male","right",1,1,0,0,FALSE,"E_F_sandra_bullock.jpg P_M_george_Wbush.jpg"
3192,"E_F_Judi_Dench.jpg","E_M_tom_hankes.jpg","TRUE","pictures/stimuli/E","pictures/stimuli/E","F","M","5","5b91b40257131100016a3b87","11/30/2021, 15:00:46",0.173483916580782,"35","Male","right",1,1,0,0,FALSE,"E_F_Judi_Dench.jpg E_M_tom_hankes.jpg"
3999,"E_M_robert_de_niro.jpg","P_M_bill_clinton.jpg","FALSE","pictures/stimuli/E","pictures/stimuli/P","M","M","3","5b91b40257131100016a3b87","11/30/2021, 15:00:46",-1.20169347094981,"35","Male","right",1,1,0,0,FALSE,"E_M_robert_de_niro.jpg P_M_bill_clinton.jpg"
2081,"E_F_angelina_jolie.jpg","P_M_george_Wbush.jpg","FALSE","pictures/stimuli/E","pictures/stimuli/P","F","M","6","5b91b40257131100016a3b87","11/30/2021, 15:00:46",0.861072610346076,"35","Male","right",1,1,0,0,FALSE,"E_F_angelina_jolie.jpg P_M_george_Wbush.jpg"
4354,"E_F_Judi_Dench.jpg","P_M_david_cameron.jpg","FALSE","pictures/stimuli/E","pictures/stimuli/P","F","M","6","5b91b40257131100016a3b87","11/30/2021, 15:00:46",0.861072610346076,"35","Male","right",1,1,0,0,FALSE,"E_F_Judi_Dench.jpg P_M_david_cameron.jpg"
4314,"E_F_Kate_Winslet.jpg","P_F_hillary_clinton.jpg","FALSE","pictures/stimuli/E","pictures/stimuli/P","F","F","5","5b91b40257131100016a3b87","11/30/2021, 15:00:46",0.173483916580782,"35","Male","right",1,1,0,0,FALSE,"E_F_Kate_Winslet.jpg P_F_hillary_clinton.jpg"
3960,"E_M_Martin_Freeman.jpg","E_M_michael_caine.jpg","TRUE","pictures/stimuli/E","pictures/stimuli/E","M","M","4","5b91b40257131100016a3b87","11/30/2021, 15:00:46",-0.514104777184512,"35","Male","right",1,1,0,0,FALSE,"E_M_Martin_Freeman.jpg E_M_michael_caine.jpg"
2224,"P_F_esther_mcvey.jpg","P_F_PRITI_PATEL.jpg","TRUE","pictures/stimuli/P","pictures/stimuli/P","F","F","6","5b91b40257131100016a3b87","11/30/2021, 15:00:46",0.861072610346076,"35","Male","right",0,0,0,0,TRUE,"P_F_esther_mcvey.jpg P_F_PRITI_PATEL.jpg"
1817,"E_F_Judi_Dench.jpg","P_F_PRITI_PATEL.jpg","FALSE","pictures/stimuli/E","pictures/stimuli/P","F","F","6","5b91b40257131100016a3b87","11/30/2021, 15:00:46",0.861072610346076,"35","Male","right",1,0,0,0,TRUE,"E_F_Judi_Dench.jpg P_F_PRITI_PATEL.jpg"
1456,"P_F_PRITI_PATEL.jpg","P_M_george_Wbush.jpg","TRUE","pictures/stimuli/P","pictures/stimuli/P","F","M","6","5b91b40257131100016a3b87","11/30/2021, 15:00:46",0.861072610346076,"35","Male","right",0,1,0,0,TRUE,"P_F_PRITI_PATEL.jpg P_M_george_Wbush.jpg"
6694,"E_M_michael_caine.jpg","P_M_boris_johnson.jpg","FALSE","pictures/stimuli/E","pictures/stimuli/P","M","M","6","5b91b40257131100016a3b87","11/30/2021, 15:00:46",0.861072610346076,"35","Male","right",1,1,0,0,FALSE,"E_M_michael_caine.jpg P_M_boris_johnson.jpg"
17155,"P_M_bill_clinton.jpg","P_M_donald_trump.jpg","TRUE","pictures/stimuli/P","pictures/stimuli/P","M","M","5","5b91b40257131100016a3b87","11/30/2021, 15:00:46",0.173483916580782,"35","Male","right",1,1,0,0,FALSE,"P_M_bill_clinton.jpg P_M_donald_trump.jpg"
1926,"E_F_sandra_bullock.jpg","E_M_tom_hankes.jpg","TRUE","pictures/stimuli/E","pictures/stimuli/E","F","M","6","5b91b40257131100016a3b87","11/30/2021, 15:00:46",0.861072610346076,"35","Male","right",1,1,0,0,FALSE,"E_F_sandra_bullock.jpg E_M_tom_hankes.jpg"
5194,"E_F_sandra_bullock.jpg","P_F_angela_rayner.jpg","FALSE","pictures/stimuli/E","pictures/stimuli/P","F","F","5","5b91b40257131100016a3b87","11/30/2021, 15:00:46",0.173483916580782,"35","Male","right",1,0,0,0,TRUE,"E_F_sandra_bullock.jpg P_F_angela_rayner.jpg"
14323,"E_F_Judi_Dench.jpg","P_M_boris_johnson.jpg","FALSE","pictures/stimuli/E","pictures/stimuli/P","F","M","6","5b91b40257131100016a3b87","11/30/2021, 15:00:46",0.861072610346076,"35","Male","right",1,1,0,0,FALSE,"E_F_Judi_Dench.jpg P_M_boris_johnson.jpg"
2416,"E_F_sandra_bullock.jpg","P_M_Tony_Blair.jpg","FALSE","pictures/stimuli/E","pictures/stimuli/P","F","M","6","5b91b40257131100016a3b87","11/30/2021, 15:00:46",0.861072610346076,"35","Male","right",1,1,0,0,FALSE,"E_F_sandra_bullock.jpg P_M_Tony_Blair.jpg"
2059,"E_F_angelina_jolie.jpg","P_F_PRITI_PATEL.jpg","FALSE","pictures/stimuli/E","pictures/stimuli/P","F","F","3","5b91b40257131100016a3b87","11/30/2021, 15:00:46",-1.20169347094981,"35","Male","right",1,0,0,0,TRUE,"E_F_angelina_jolie.jpg P_F_PRITI_PATEL.jpg"
1880,"E_F_Judi_Dench.jpg","E_F_sandra_bullock.jpg","TRUE","pictures/stimuli/E","pictures/stimuli/E","F","F","6","5b91b40257131100016a3b87","11/30/2021, 15:00:46",0.861072610346076,"35","Male","right",1,1,0,0,FALSE,"E_F_Judi_Dench.jpg E_F_sandra_bullock.jpg"
3848,"E_F_jennifer_aniston.jpg","E_M_robert_de_niro.jpg","TRUE","pictures/stimuli/E","pictures/stimuli/E","F","M","6","5b91b40257131100016a3b87","11/30/2021, 15:00:46",0.861072610346076,"35","Male","right",1,1,0,0,FALSE,"E_F_jennifer_aniston.jpg E_M_robert_de_niro.jpg"
6707,"E_M_Hugh_Grant.jpg","E_M_robert_de_niro.jpg","TRUE","pictures/stimuli/E","pictures/stimuli/E","M","M","3","5b91b40257131100016a3b87","11/30/2021, 15:00:46",-1.20169347094981,"35","Male","right",1,1,0,0,FALSE,"E_M_Hugh_Grant.jpg E_M_robert_de_niro.jpg"
11798,"E_M_liam_neeson.jpg","E_M_Martin_Freeman.jpg","TRUE","pictures/stimuli/E","pictures/stimuli/E","M","M","4","5b91b40257131100016a3b87","11/30/2021, 15:00:46",-0.514104777184512,"35","Male","right",1,1,0,0,FALSE,"E_M_liam_neeson.jpg E_M_Martin_Freeman.jpg"
1737,"E_F_Kate_Winslet.jpg","P_M_boris_johnson.jpg","FALSE","pictures/stimuli/E","pictures/stimuli/P","F","M","6","5b91b40257131100016a3b87","11/30/2021, 15:00:46",0.861072610346076,"35","Male","right",1,1,0,0,FALSE,"E_F_Kate_Winslet.jpg P_M_boris_johnson.jpg"
3538,"E_M_liam_neeson.jpg","P_F_tehresy_may.jpg","FALSE","pictures/stimuli/E","pictures/stimuli/P","M","F","3","5b91b40257131100016a3b87","11/30/2021, 15:00:46",-1.20169347094981,"35","Male","right",1,1,0,0,FALSE,"E_M_liam_neeson.jpg P_F_tehresy_may.jpg"
1686,"E_M_Martin_Freeman.jpg","P_F_PRITI_PATEL.jpg","FALSE","pictures/stimuli/E","pictures/stimuli/P","M","F","6","5b91b40257131100016a3b87","11/30/2021, 15:00:46",0.861072610346076,"35","Male","right",1,0,0,0,TRUE,"E_M_Martin_Freeman.jpg P_F_PRITI_PATEL.jpg"
15218,"E_F_keira_knightley.jpg","P_M_david_cameron.jpg","FALSE","pictures/stimuli/E","pictures/stimuli/P","F","M","6","5b91b40257131100016a3b87","11/30/2021, 15:00:46",0.861072610346076,"35","Male","right",1,1,0,0,FALSE,"E_F_keira_knightley.jpg P_M_david_cameron.jpg"
2713,"E_M_anthony_hopkins.jpg","P_M_boris_johnson.jpg","FALSE","pictures/stimuli/E","pictures/stimuli/P","M","M","5","5b91b40257131100016a3b87","11/30/2021, 15:00:46",0.173483916580782,"35","Male","right",1,1,0,0,FALSE,"E_M_anthony_hopkins.jpg P_M_boris_johnson.jpg"
4412,"E_F_angelina_jolie.jpg","E_M_tom_hankes.jpg","TRUE","pictures/stimuli/E","pictures/stimuli/E","F","M","5","5b91b40257131100016a3b87","11/30/2021, 15:00:46",0.173483916580782,"35","Male","right",1,1,0,0,FALSE,"E_F_angelina_jolie.jpg E_M_tom_hankes.jpg"
6944,"E_F_jennifer_aniston.jpg","E_F_sandra_bullock.jpg","TRUE","pictures/stimuli/E","pictures/stimuli/E","F","F","5","5b91b40257131100016a3b87","11/30/2021, 15:00:46",0.173483916580782,"35","Male","right",1,1,0,0,FALSE,"E_F_jennifer_aniston.jpg E_F_sandra_bullock.jpg"
3969,"P_M_boris_johnson.jpg","P_M_Tony_Blair.jpg","TRUE","pictures/stimuli/P","pictures/stimuli/P","M","M","5","5b91b40257131100016a3b87","11/30/2021, 15:00:46",0.173483916580782,"35","Male","right",1,1,0,0,FALSE,"P_M_boris_johnson.jpg P_M_Tony_Blair.jpg"
7132,"P_F_esther_mcvey.jpg","P_M_donald_trump.jpg","TRUE","pictures/stimuli/P","pictures/stimuli/P","F","M","6","5b91b40257131100016a3b87","11/30/2021, 15:00:46",0.861072610346076,"35","Male","right",0,1,0,0,TRUE,"P_F_esther_mcvey.jpg P_M_donald_trump.jpg"
3676,"E_M_Hugh_Grant.jpg","E_M_tom_hankes.jpg","TRUE","pictures/stimuli/E","pictures/stimuli/E","M","M","5","5b91b40257131100016a3b87","11/30/2021, 15:00:46",0.173483916580782,"35","Male","right",1,1,0,0,FALSE,"E_M_Hugh_Grant.jpg E_M_tom_hankes.jpg"
5277,"E_M_anthony_hopkins.jpg","P_F_angela_rayner.jpg","FALSE","pictures/stimuli/E","pictures/stimuli/P","M","F","6","5b91b40257131100016a3b87","11/30/2021, 15:00:46",0.861072610346076,"35","Male","right",1,0,0,0,TRUE,"E_M_anthony_hopkins.jpg P_F_angela_rayner.jpg"
4155,"P_F_tehresy_may.jpg","P_M_boris_johnson.jpg","TRUE","pictures/stimuli/P","pictures/stimuli/P","F","M","5","5b91b40257131100016a3b87","11/30/2021, 15:00:46",0.173483916580782,"35","Male","right",1,1,0,0,FALSE,"P_F_tehresy_may.jpg P_M_boris_johnson.jpg"
25548,"E_M_nicolas_cage.jpg","P_M_david_cameron.jpg","FALSE","pictures/stimuli/E","pictures/stimuli/P","M","M","3","5b91b40257131100016a3b87","11/30/2021, 15:00:46",-1.20169347094981,"35","Male","right",1,1,0,0,FALSE,"E_M_nicolas_cage.jpg P_M_david_cameron.jpg"
1697,"E_F_keira_knightley.jpg","P_M_Tony_Blair.jpg","FALSE","pictures/stimuli/E","pictures/stimuli/P","F","M","6","5b91b40257131100016a3b87","11/30/2021, 15:00:46",0.861072610346076,"35","Male","right",1,1,0,0,FALSE,"E_F_keira_knightley.jpg P_M_Tony_Blair.jpg"
3366,"P_F_hillary_clinton.jpg","P_F_PRITI_PATEL.jpg","TRUE","pictures/stimuli/P","pictures/stimuli/P","F","F","6","5b91b40257131100016a3b87","11/30/2021, 15:00:46",0.861072610346076,"35","Male","right",1,0,0,0,TRUE,"P_F_hillary_clinton.jpg P_F_PRITI_PATEL.jpg"
1989,"E_F_Judi_Dench.jpg","P_F_nicola_sturgeon.jpg","FALSE","pictures/stimuli/E","pictures/stimuli/P","F","F","2","5b91b40257131100016a3b87","11/30/2021, 15:00:46",-1.8892821647151,"35","Male","right",1,1,0,0,FALSE,"E_F_Judi_Dench.jpg P_F_nicola_sturgeon.jpg"
4290,"E_M_tom_hankes.jpg","P_M_george_Wbush.jpg","FALSE","pictures/stimuli/E","pictures/stimuli/P","M","M","1","5b91b40257131100016a3b87","11/30/2021, 15:00:46",-2.57687085848039,"35","Male","right",1,1,0,0,FALSE,"E_M_tom_hankes.jpg P_M_george_Wbush.jpg"
7524,"E_F_Judi_Dench.jpg","P_F_tehresy_may.jpg","FALSE","pictures/stimuli/E","pictures/stimuli/P","F","F","5","5b91b40257131100016a3b87","11/30/2021, 15:00:46",0.173483916580782,"35","Male","right",1,1,0,0,FALSE,"E_F_Judi_Dench.jpg P_F_tehresy_may.jpg"
2662,"E_F_jennifer_aniston.jpg","P_F_esther_mcvey.jpg","FALSE","pictures/stimuli/E","pictures/stimuli/P","F","F","5","5b91b40257131100016a3b87","11/30/2021, 15:00:46",0.173483916580782,"35","Male","right",1,0,0,0,TRUE,"E_F_jennifer_aniston.jpg P_F_esther_mcvey.jpg"
2058,"E_F_Judi_Dench.jpg","E_M_robert_de_niro.jpg","TRUE","pictures/stimuli/E","pictures/stimuli/E","F","M","6","5b91b40257131100016a3b87","11/30/2021, 15:00:46",0.861072610346076,"35","Male","right",1,1,0,0,FALSE,"E_F_Judi_Dench.jpg E_M_robert_de_niro.jpg"
2030,"P_F_angela_rayner.jpg","P_F_esther_mcvey.jpg","TRUE","pictures/stimuli/P","pictures/stimuli/P","F","F","5","5b91b40257131100016a3b87","11/30/2021, 15:00:46",0.173483916580782,"35","Male","right",0,0,0,0,TRUE,"P_F_angela_rayner.jpg P_F_esther_mcvey.jpg"
2510,"P_M_bill_clinton.jpg","P_M_david_cameron.jpg","TRUE","pictures/stimuli/P","pictures/stimuli/P","M","M","3","5b91b40257131100016a3b87","11/30/2021, 15:00:46",-1.20169347094981,"35","Male","right",1,1,0,0,FALSE,"P_M_bill_clinton.jpg P_M_david_cameron.jpg"
1537,"E_F_Kate_Winslet.jpg","E_M_anthony_hopkins.jpg","TRUE","pictures/stimuli/E","pictures/stimuli/E","F","M","6","5b91b40257131100016a3b87","11/30/2021, 15:00:46",0.861072610346076,"35","Male","right",1,1,0,0,FALSE,"E_F_Kate_Winslet.jpg E_M_anthony_hopkins.jpg"
1955,"P_M_bill_clinton.jpg","P_M_george_Wbush.jpg","TRUE","pictures/stimuli/P","pictures/stimuli/P","M","M","3","5b91b40257131100016a3b87","11/30/2021, 15:00:46",-1.20169347094981,"35","Male","right",1,1,0,0,FALSE,"P_M_bill_clinton.jpg P_M_george_Wbush.jpg"
1680,"E_M_Martin_Freeman.jpg","P_M_bill_clinton.jpg","FALSE","pictures/stimuli/E","pictures/stimuli/P","M","M","2","5b91b40257131100016a3b87","11/30/2021, 15:00:46",-1.8892821647151,"35","Male","right",1,1,0,0,FALSE,"E_M_Martin_Freeman.jpg P_M_bill_clinton.jpg"
2177,"E_M_Hugh_Grant.jpg","P_F_angela_rayner.jpg","FALSE","pictures/stimuli/E","pictures/stimuli/P","M","F","5","5b91b40257131100016a3b87","11/30/2021, 15:00:46",0.173483916580782,"35","Male","right",1,0,0,0,TRUE,"E_M_Hugh_Grant.jpg P_F_angela_rayner.jpg"
18989,"P_F_esther_mcvey.jpg","P_F_nicola_sturgeon.jpg","TRUE","pictures/stimuli/P","pictures/stimuli/P","F","F","5","5b91b40257131100016a3b87","11/30/2021, 15:00:46",0.173483916580782,"35","Male","right",0,1,0,0,TRUE,"P_F_esther_mcvey.jpg P_F_nicola_sturgeon.jpg"
2431,"E_F_keira_knightley.jpg","E_M_Martin_Freeman.jpg","TRUE","pictures/stimuli/E","pictures/stimuli/E","F","M","6","5b91b40257131100016a3b87","11/30/2021, 15:00:46",0.861072610346076,"35","Male","right",1,1,0,0,FALSE,"E_F_keira_knightley.jpg E_M_Martin_Freeman.jpg"
7326,"E_M_liam_neeson.jpg","P_M_george_Wbush.jpg","FALSE","pictures/stimuli/E","pictures/stimuli/P","M","M","6","5b91b40257131100016a3b87","11/30/2021, 15:00:46",0.861072610346076,"35","Male","right",1,1,0,0,FALSE,"E_M_liam_neeson.jpg P_M_george_Wbush.jpg"
2107,"P_F_esther_mcvey.jpg","P_M_david_cameron.jpg","TRUE","pictures/stimuli/P","pictures/stimuli/P","F","M","6","5b91b40257131100016a3b87","11/30/2021, 15:00:46",0.861072610346076,"35","Male","right",0,1,0,0,TRUE,"P_F_esther_mcvey.jpg P_M_david_cameron.jpg"
2287,"E_M_liam_neeson.jpg","P_F_hillary_clinton.jpg","FALSE","pictures/stimuli/E","pictures/stimuli/P","M","F","6","5b91b40257131100016a3b87","11/30/2021, 15:00:46",0.861072610346076,"35","Male","right",1,1,0,0,FALSE,"E_M_liam_neeson.jpg P_F_hillary_clinton.jpg"
4317,"E_M_Hugh_Grant.jpg","P_M_david_cameron.jpg","FALSE","pictures/stimuli/E","pictures/stimuli/P","M","M","3","5b91b40257131100016a3b87","11/30/2021, 15:00:46",-1.20169347094981,"35","Male","right",1,1,0,0,FALSE,"E_M_Hugh_Grant.jpg P_M_david_cameron.jpg"
4474,"E_F_jennifer_aniston.jpg","E_M_Martin_Freeman.jpg","TRUE","pictures/stimuli/E","pictures/stimuli/E","F","M","6","5b91b40257131100016a3b87","11/30/2021, 15:00:46",0.861072610346076,"35","Male","right",1,1,0,0,FALSE,"E_F_jennifer_aniston.jpg E_M_Martin_Freeman.jpg"
3006,"E_M_Martin_Freeman.jpg","P_F_esther_mcvey.jpg","FALSE","pictures/stimuli/E","pictures/stimuli/P","M","F","6","5b91b40257131100016a3b87","11/30/2021, 15:00:46",0.861072610346076,"35","Male","right",1,0,0,0,TRUE,"E_M_Martin_Freeman.jpg P_F_esther_mcvey.jpg"
1724,"E_F_jennifer_aniston.jpg","E_M_nicolas_cage.jpg","TRUE","pictures/stimuli/E","pictures/stimuli/E","F","M","6","5b91b40257131100016a3b87","11/30/2021, 15:00:46",0.861072610346076,"35","Male","right",1,1,0,0,FALSE,"E_F_jennifer_aniston.jpg E_M_nicolas_cage.jpg"
4318,"E_F_Kate_Winslet.jpg","E_F_sandra_bullock.jpg","TRUE","pictures/stimuli/E","pictures/stimuli/E","F","F","3","5b91b40257131100016a3b87","11/30/2021, 15:00:46",-1.20169347094981,"35","Male","right",1,1,0,0,FALSE,"E_F_Kate_Winslet.jpg E_F_sandra_bullock.jpg"
1708,"E_F_angelina_jolie.jpg","P_M_boris_johnson.jpg","FALSE","pictures/stimuli/E","pictures/stimuli/P","F","M","6","5b91b40257131100016a3b87","11/30/2021, 15:00:46",0.861072610346076,"35","Male","right",1,1,0,0,FALSE,"E_F_angelina_jolie.jpg P_M_boris_johnson.jpg"
1374,"E_M_nicolas_cage.jpg","P_M_donald_trump.jpg","FALSE","pictures/stimuli/E","pictures/stimuli/P","M","M","6","5b91b40257131100016a3b87","11/30/2021, 15:00:46",0.861072610346076,"35","Male","right",1,1,0,0,FALSE,"E_M_nicolas_cage.jpg P_M_donald_trump.jpg"
4866,"E_M_nicolas_cage.jpg","E_M_robert_de_niro.jpg","TRUE","pictures/stimuli/E","pictures/stimuli/E","M","M","1","5b91b40257131100016a3b87","11/30/2021, 15:00:46",-2.57687085848039,"35","Male","right",1,1,0,0,FALSE,"E_M_nicolas_cage.jpg E_M_robert_de_niro.jpg"
5504,"E_M_liam_neeson.jpg","P_F_PRITI_PATEL.jpg","FALSE","pictures/stimuli/E","pictures/stimuli/P","M","F","4","5b91b40257131100016a3b87","11/30/2021, 15:00:46",-0.514104777184512,"35","Male","right",1,0,0,0,TRUE,"E_M_liam_neeson.jpg P_F_PRITI_PATEL.jpg"
5629,"E_F_angelina_jolie.jpg","E_M_michael_caine.jpg","TRUE","pictures/stimuli/E","pictures/stimuli/E","F","M","5","5b91b40257131100016a3b87","11/30/2021, 15:00:46",0.173483916580782,"35","Male","right",1,1,0,0,FALSE,"E_F_angelina_jolie.jpg E_M_michael_caine.jpg"
3927,"E_F_Kate_Winslet.jpg","E_M_Hugh_Grant.jpg","TRUE","pictures/stimuli/E","pictures/stimuli/E","F","M","5","5b91b40257131100016a3b87","11/30/2021, 15:00:46",0.173483916580782,"35","Male","right",1,1,0,0,FALSE,"E_F_Kate_Winslet.jpg E_M_Hugh_Grant.jpg"
12105,"E_F_keira_knightley.jpg","E_M_nicolas_cage.jpg","TRUE","pictures/stimuli/E","pictures/stimuli/E","F","M","5","5b91b40257131100016a3b87","11/30/2021, 15:00:46",0.173483916580782,"35","Male","right",1,1,0,0,FALSE,"E_F_keira_knightley.jpg E_M_nicolas_cage.jpg"
2756,"E_F_Judi_Dench.jpg","E_M_anthony_hopkins.jpg","TRUE","pictures/stimuli/E","pictures/stimuli/E","F","M","3","5b91b40257131100016a3b87","11/30/2021, 15:00:46",-1.20169347094981,"35","Male","right",1,1,0,0,FALSE,"E_F_Judi_Dench.jpg E_M_anthony_hopkins.jpg"
12548,"P_F_hillary_clinton.jpg","P_M_Tony_Blair.jpg","TRUE","pictures/stimuli/P","pictures/stimuli/P","F","M","5","5b91b40257131100016a3b87","11/30/2021, 15:00:46",0.173483916580782,"35","Male","right",1,1,0,0,FALSE,"P_F_hillary_clinton.jpg P_M_Tony_Blair.jpg"
2406,"E_M_liam_neeson.jpg","P_M_donald_trump.jpg","FALSE","pictures/stimuli/E","pictures/stimuli/P","M","M","5","5b91b40257131100016a3b87","11/30/2021, 15:00:46",0.173483916580782,"35","Male","right",1,1,0,0,FALSE,"E_M_liam_neeson.jpg P_M_donald_trump.jpg"
2244,"E_F_angelina_jolie.jpg","P_F_tehresy_may.jpg","FALSE","pictures/stimuli/E","pictures/stimuli/P","F","F","6","5b91b40257131100016a3b87","11/30/2021, 15:00:46",0.861072610346076,"35","Male","right",1,1,0,0,FALSE,"E_F_angelina_jolie.jpg P_F_tehresy_may.jpg"
1911,"E_F_Judi_Dench.jpg","P_M_Tony_Blair.jpg","FALSE","pictures/stimuli/E","pictures/stimuli/P","F","M","5","5b91b40257131100016a3b87","11/30/2021, 15:00:46",0.173483916580782,"35","Male","right",1,1,0,0,FALSE,"E_F_Judi_Dench.jpg P_M_Tony_Blair.jpg"
2753,"E_M_Martin_Freeman.jpg","E_M_tom_hankes.jpg","TRUE","pictures/stimuli/E","pictures/stimuli/E","M","M","5","5b91b40257131100016a3b87","11/30/2021, 15:00:46",0.173483916580782,"35","Male","right",1,1,0,0,FALSE,"E_M_Martin_Freeman.jpg E_M_tom_hankes.jpg"
9233,"E_F_Judi_Dench.jpg","P_M_george_Wbush.jpg","FALSE","pictures/stimuli/E","pictures/stimuli/P","F","M","5","5b91b40257131100016a3b87","11/30/2021, 15:00:46",0.173483916580782,"35","Male","right",1,1,0,0,FALSE,"E_F_Judi_Dench.jpg P_M_george_Wbush.jpg"
2553,"E_M_Hugh_Grant.jpg","E_M_michael_caine.jpg","TRUE","pictures/stimuli/E","pictures/stimuli/E","M","M","3","5b91b40257131100016a3b87","11/30/2021, 15:00:46",-1.20169347094981,"35","Male","right",1,1,0,0,FALSE,"E_M_Hugh_Grant.jpg E_M_michael_caine.jpg"
3476,"P_F_PRITI_PATEL.jpg","P_M_boris_johnson.jpg","TRUE","pictures/stimuli/P","pictures/stimuli/P","F","M","6","5b91b40257131100016a3b87","11/30/2021, 15:00:46",0.861072610346076,"35","Male","right",0,1,0,0,TRUE,"P_F_PRITI_PATEL.jpg P_M_boris_johnson.jpg"
3245,"E_M_anthony_hopkins.jpg","P_F_esther_mcvey.jpg","FALSE","pictures/stimuli/E","pictures/stimuli/P","M","F","4","5b91b40257131100016a3b87","11/30/2021, 15:00:46",-0.514104777184512,"35","Male","right",1,0,0,0,TRUE,"E_M_anthony_hopkins.jpg P_F_esther_mcvey.jpg"
7697,"E_F_sandra_bullock.jpg","P_F_PRITI_PATEL.jpg","FALSE","pictures/stimuli/E","pictures/stimuli/P","F","F","1","5b91b40257131100016a3b87","11/30/2021, 15:00:46",-2.57687085848039,"35","Male","right",1,0,0,0,TRUE,"E_F_sandra_bullock.jpg P_F_PRITI_PATEL.jpg"
3849,"E_F_keira_knightley.jpg","P_F_nicola_sturgeon.jpg","FALSE","pictures/stimuli/E","pictures/stimuli/P","F","F","5","5b91b40257131100016a3b87","11/30/2021, 15:00:46",0.173483916580782,"35","Male","right",1,1,0,0,FALSE,"E_F_keira_knightley.jpg P_F_nicola_sturgeon.jpg"
3114,"E_M_Martin_Freeman.jpg","P_M_george_Wbush.jpg","FALSE","pictures/stimuli/E","pictures/stimuli/P","M","M","1","5b91b40257131100016a3b87","11/30/2021, 15:00:46",-2.57687085848039,"35","Male","right",1,1,0,0,FALSE,"E_M_Martin_Freeman.jpg P_M_george_Wbush.jpg"
6949,"E_M_michael_caine.jpg","P_M_bill_clinton.jpg","FALSE","pictures/stimuli/E","pictures/stimuli/P","M","M","3","5b91b40257131100016a3b87","11/30/2021, 15:00:46",-1.20169347094981,"35","Male","right",1,1,0,0,FALSE,"E_M_michael_caine.jpg P_M_bill_clinton.jpg"
3062,"E_F_angelina_jolie.jpg","P_M_donald_trump.jpg","FALSE","pictures/stimuli/E","pictures/stimuli/P","F","M","6","5b91b40257131100016a3b87","11/30/2021, 15:00:46",0.861072610346076,"35","Male","right",1,1,0,0,FALSE,"E_F_angelina_jolie.jpg P_M_donald_trump.jpg"
20540,"P_M_bill_clinton.jpg","P_M_Tony_Blair.jpg","TRUE","pictures/stimuli/P","pictures/stimuli/P","M","M","4","5b91b40257131100016a3b87","11/30/2021, 15:00:46",-0.514104777184512,"35","Male","right",1,1,0,0,FALSE,"P_M_bill_clinton.jpg P_M_Tony_Blair.jpg"
1924,"P_F_nicola_sturgeon.jpg","P_F_tehresy_may.jpg","TRUE","pictures/stimuli/P","pictures/stimuli/P","F","F","2","5b91b40257131100016a3b87","11/30/2021, 15:00:46",-1.8892821647151,"35","Male","right",1,1,0,0,FALSE,"P_F_nicola_sturgeon.jpg P_F_tehresy_may.jpg"
2980,"E_F_angelina_jolie.jpg","P_F_angela_rayner.jpg","FALSE","pictures/stimuli/E","pictures/stimuli/P","F","F","5","5b91b40257131100016a3b87","11/30/2021, 15:00:46",0.173483916580782,"35","Male","right",1,0,0,0,TRUE,"E_F_angelina_jolie.jpg P_F_angela_rayner.jpg"
5025,"P_F_PRITI_PATEL.jpg","P_M_david_cameron.jpg","TRUE","pictures/stimuli/P","pictures/stimuli/P","F","M","6","5b91b40257131100016a3b87","11/30/2021, 15:00:46",0.861072610346076,"35","Male","right",0,1,0,0,TRUE,"P_F_PRITI_PATEL.jpg P_M_david_cameron.jpg"
2297,"E_F_Kate_Winslet.jpg","E_M_tom_hankes.jpg","TRUE","pictures/stimuli/E","pictures/stimuli/E","F","M","6","5b91b40257131100016a3b87","11/30/2021, 15:00:46",0.861072610346076,"35","Male","right",1,1,0,0,FALSE,"E_F_Kate_Winslet.jpg E_M_tom_hankes.jpg"
1589,"E_M_tom_hankes.jpg","P_F_esther_mcvey.jpg","FALSE","pictures/stimuli/E","pictures/stimuli/P","M","F","6","5b91b40257131100016a3b87","11/30/2021, 15:00:46",0.861072610346076,"35","Male","right",1,0,0,0,TRUE,"E_M_tom_hankes.jpg P_F_esther_mcvey.jpg"
3183,"E_M_nicolas_cage.jpg","P_F_PRITI_PATEL.jpg","FALSE","pictures/stimuli/E","pictures/stimuli/P","M","F","4","5b91b40257131100016a3b87","11/30/2021, 15:00:46",-0.514104777184512,"35","Male","right",1,0,0,0,TRUE,"E_M_nicolas_cage.jpg P_F_PRITI_PATEL.jpg"
7122,"E_F_angelina_jolie.jpg","E_F_sandra_bullock.jpg","TRUE","pictures/stimuli/E","pictures/stimuli/E","F","F","3","5b91b40257131100016a3b87","11/30/2021, 15:00:46",-1.20169347094981,"35","Male","right",1,1,0,0,FALSE,"E_F_angelina_jolie.jpg E_F_sandra_bullock.jpg"
5200,"E_M_Martin_Freeman.jpg","P_M_boris_johnson.jpg","FALSE","pictures/stimuli/E","pictures/stimuli/P","M","M","4","5b91b40257131100016a3b87","11/30/2021, 15:00:46",-0.514104777184512,"35","Male","right",1,1,0,0,FALSE,"E_M_Martin_Freeman.jpg P_M_boris_johnson.jpg"
4248,"P_F_angela_rayner.jpg","P_M_david_cameron.jpg","TRUE","pictures/stimuli/P","pictures/stimuli/P","F","M","6","5b91b40257131100016a3b87","11/30/2021, 15:00:46",0.861072610346076,"35","Male","right",0,1,0,0,TRUE,"P_F_angela_rayner.jpg P_M_david_cameron.jpg"
2926,"E_F_Kate_Winslet.jpg","P_F_PRITI_PATEL.jpg","FALSE","pictures/stimuli/E","pictures/stimuli/P","F","F","4","5b91b40257131100016a3b87","11/30/2021, 15:00:46",-0.514104777184512,"35","Male","right",1,0,0,0,TRUE,"E_F_Kate_Winslet.jpg P_F_PRITI_PATEL.jpg"
2714,"E_M_Martin_Freeman.jpg","P_F_angela_rayner.jpg","FALSE","pictures/stimuli/E","pictures/stimuli/P","M","F","6","5b91b40257131100016a3b87","11/30/2021, 15:00:46",0.861072610346076,"35","Male","right",1,0,0,0,TRUE,"E_M_Martin_Freeman.jpg P_F_angela_rayner.jpg"
4009,"P_F_angela_rayner.jpg","P_F_nicola_sturgeon.jpg","TRUE","pictures/stimuli/P","pictures/stimuli/P","F","F","6","5b91b40257131100016a3b87","11/30/2021, 15:00:46",0.861072610346076,"35","Male","right",0,1,0,0,TRUE,"P_F_angela_rayner.jpg P_F_nicola_sturgeon.jpg"
3154,"P_F_hillary_clinton.jpg","P_M_donald_trump.jpg","TRUE","pictures/stimuli/P","pictures/stimuli/P","F","M","6","5b91b40257131100016a3b87","11/30/2021, 15:00:46",0.861072610346076,"35","Male","right",1,1,0,0,FALSE,"P_F_hillary_clinton.jpg P_M_donald_trump.jpg"
1993,"E_M_Martin_Freeman.jpg","P_M_donald_trump.jpg","FALSE","pictures/stimuli/E","pictures/stimuli/P","M","M","5","5b91b40257131100016a3b87","11/30/2021, 15:00:46",0.173483916580782,"35","Male","right",1,1,0,0,FALSE,"E_M_Martin_Freeman.jpg P_M_donald_trump.jpg"
5399,"E_M_liam_neeson.jpg","P_M_Tony_Blair.jpg","FALSE","pictures/stimuli/E","pictures/stimuli/P","M","M","2","5b91b40257131100016a3b87","11/30/2021, 15:00:46",-1.8892821647151,"35","Male","right",1,1,0,0,FALSE,"E_M_liam_neeson.jpg P_M_Tony_Blair.jpg"
3702,"E_M_tom_hankes.jpg","P_M_Tony_Blair.jpg","FALSE","pictures/stimuli/E","pictures/stimuli/P","M","M","5","5b91b40257131100016a3b87","11/30/2021, 15:00:46",0.173483916580782,"35","Male","right",1,1,0,0,FALSE,"E_M_tom_hankes.jpg P_M_Tony_Blair.jpg"
2098,"E_F_sandra_bullock.jpg","P_M_boris_johnson.jpg","FALSE","pictures/stimuli/E","pictures/stimuli/P","F","M","6","5b91b40257131100016a3b87","11/30/2021, 15:00:46",0.861072610346076,"35","Male","right",1,1,0,0,FALSE,"E_F_sandra_bullock.jpg P_M_boris_johnson.jpg"
6453,"P_F_hillary_clinton.jpg","P_M_george_Wbush.jpg","TRUE","pictures/stimuli/P","pictures/stimuli/P","F","M","5","5b91b40257131100016a3b87","11/30/2021, 15:00:46",0.173483916580782,"35","Male","right",1,1,0,0,FALSE,"P_F_hillary_clinton.jpg P_M_george_Wbush.jpg"
5641,"E_F_jennifer_aniston.jpg","P_M_david_cameron.jpg","FALSE","pictures/stimuli/E","pictures/stimuli/P","F","M","6","5b91b40257131100016a3b87","11/30/2021, 15:00:46",0.861072610346076,"35","Male","right",1,1,0,0,FALSE,"E_F_jennifer_aniston.jpg P_M_david_cameron.jpg"
2915,"E_M_michael_caine.jpg","P_M_david_cameron.jpg","FALSE","pictures/stimuli/E","pictures/stimuli/P","M","M","4","5b91b40257131100016a3b87","11/30/2021, 15:00:46",-0.514104777184512,"35","Male","right",1,1,0,0,FALSE,"E_M_michael_caine.jpg P_M_david_cameron.jpg"
2699,"P_F_angela_rayner.jpg","P_F_PRITI_PATEL.jpg","TRUE","pictures/stimuli/P","pictures/stimuli/P","F","F","6","5b91b40257131100016a3b87","11/30/2021, 15:00:46",0.861072610346076,"35","Male","right",0,0,0,0,TRUE,"P_F_angela_rayner.jpg P_F_PRITI_PATEL.jpg"
3394,"E_M_robert_de_niro.jpg","P_F_hillary_clinton.jpg","FALSE","pictures/stimuli/E","pictures/stimuli/P","M","F","6","5b91b40257131100016a3b87","11/30/2021, 15:00:46",0.861072610346076,"35","Male","right",1,1,0,0,FALSE,"E_M_robert_de_niro.jpg P_F_hillary_clinton.jpg"
1605,"E_F_Judi_Dench.jpg","E_F_Kate_Winslet.jpg","TRUE","pictures/stimuli/E","pictures/stimuli/E","F","F","6","5b91b40257131100016a3b87","11/30/2021, 15:00:46",0.861072610346076,"35","Male","right",1,1,0,0,FALSE,"E_F_Judi_Dench.jpg E_F_Kate_Winslet.jpg"
1469,"E_M_michael_caine.jpg","P_F_esther_mcvey.jpg","FALSE","pictures/stimuli/E","pictures/stimuli/P","M","F","6","5b91b40257131100016a3b87","11/30/2021, 15:00:46",0.861072610346076,"35","Male","right",1,0,0,0,TRUE,"E_M_michael_caine.jpg P_F_esther_mcvey.jpg"
1883,"E_M_Hugh_Grant.jpg","P_M_bill_clinton.jpg","FALSE","pictures/stimuli/E","pictures/stimuli/P","M","M","1","5b91b40257131100016a3b87","11/30/2021, 15:00:46",-2.57687085848039,"35","Male","right",1,1,0,0,FALSE,"E_M_Hugh_Grant.jpg P_M_bill_clinton.jpg"
5401,"E_M_liam_neeson.jpg","P_F_angela_rayner.jpg","FALSE","pictures/stimuli/E","pictures/stimuli/P","M","F","6","5b91b40257131100016a3b87","11/30/2021, 15:00:46",0.861072610346076,"35","Male","right",1,0,0,0,TRUE,"E_M_liam_neeson.jpg P_F_angela_rayner.jpg"
1929,"E_F_Kate_Winslet.jpg","P_F_tehresy_may.jpg","FALSE","pictures/stimuli/E","pictures/stimuli/P","F","F","6","5b91b40257131100016a3b87","11/30/2021, 15:00:46",0.861072610346076,"35","Male","right",1,1,0,0,FALSE,"E_F_Kate_Winslet.jpg P_F_tehresy_may.jpg"
4927,"E_F_sandra_bullock.jpg","P_F_hillary_clinton.jpg","FALSE","pictures/stimuli/E","pictures/stimuli/P","F","F","6","5b91b40257131100016a3b87","11/30/2021, 15:00:46",0.861072610346076,"35","Male","right",1,1,0,0,FALSE,"E_F_sandra_bullock.jpg P_F_hillary_clinton.jpg"
2793,"E_M_tom_hankes.jpg","P_F_PRITI_PATEL.jpg","FALSE","pictures/stimuli/E","pictures/stimuli/P","M","F","6","5b91b40257131100016a3b87","11/30/2021, 15:00:46",0.861072610346076,"35","Male","right",1,0,0,0,TRUE,"E_M_tom_hankes.jpg P_F_PRITI_PATEL.jpg"
2963,"P_F_hillary_clinton.jpg","P_M_boris_johnson.jpg","TRUE","pictures/stimuli/P","pictures/stimuli/P","F","M","4","5b91b40257131100016a3b87","11/30/2021, 15:00:46",-0.514104777184512,"35","Male","right",1,1,0,0,FALSE,"P_F_hillary_clinton.jpg P_M_boris_johnson.jpg"
6593,"E_M_michael_caine.jpg","P_F_angela_rayner.jpg","FALSE","pictures/stimuli/E","pictures/stimuli/P","M","F","6","5b91b40257131100016a3b87","11/30/2021, 15:00:46",0.861072610346076,"35","Male","right",1,0,0,0,TRUE,"E_M_michael_caine.jpg P_F_angela_rayner.jpg"
6138,"E_M_michael_caine.jpg","E_M_robert_de_niro.jpg","TRUE","pictures/stimuli/E","pictures/stimuli/E","M","M","3","5b91b40257131100016a3b87","11/30/2021, 15:00:46",-1.20169347094981,"35","Male","right",1,1,0,0,FALSE,"E_M_michael_caine.jpg E_M_robert_de_niro.jpg"
4449,"E_M_liam_neeson.jpg","P_F_nicola_sturgeon.jpg","FALSE","pictures/stimuli/E","pictures/stimuli/P","M","F","4","5b91b40257131100016a3b87","11/30/2021, 15:00:46",-0.514104777184512,"35","Male","right",1,1,0,0,FALSE,"E_M_liam_neeson.jpg P_F_nicola_sturgeon.jpg"
6857,"P_F_tehresy_may.jpg","P_M_donald_trump.jpg","TRUE","pictures/stimuli/P","pictures/stimuli/P","F","M","4","5b91b40257131100016a3b87","11/30/2021, 15:00:46",-0.514104777184512,"35","Male","right",1,1,0,0,FALSE,"P_F_tehresy_may.jpg P_M_donald_trump.jpg"
10146,"E_F_Kate_Winslet.jpg","E_M_Martin_Freeman.jpg","TRUE","pictures/stimuli/E","pictures/stimuli/E","F","M","6","5b91b40257131100016a3b87","11/30/2021, 15:00:46",0.861072610346076,"35","Male","right",1,1,0,0,FALSE,"E_F_Kate_Winslet.jpg E_M_Martin_Freeman.jpg"
6147,"E_F_angelina_jolie.jpg","E_M_Hugh_Grant.jpg","TRUE","pictures/stimuli/E","pictures/stimuli/E","F","M","4","5b91b40257131100016a3b87","11/30/2021, 15:00:46",-0.514104777184512,"35","Male","right",1,1,0,0,FALSE,"E_F_angelina_jolie.jpg E_M_Hugh_Grant.jpg"
5401,"E_F_jennifer_aniston.jpg","P_F_nicola_sturgeon.jpg","FALSE","pictures/stimuli/E","pictures/stimuli/P","F","F","6","5b91b40257131100016a3b87","11/30/2021, 15:00:46",0.861072610346076,"35","Male","right",1,1,0,0,FALSE,"E_F_jennifer_aniston.jpg P_F_nicola_sturgeon.jpg"
2825,"E_M_anthony_hopkins.jpg","E_M_nicolas_cage.jpg","TRUE","pictures/stimuli/E","pictures/stimuli/E","M","M","3","5b91b40257131100016a3b87","11/30/2021, 15:00:46",-1.20169347094981,"35","Male","right",1,1,0,0,FALSE,"E_M_anthony_hopkins.jpg E_M_nicolas_cage.jpg"
4529,"P_M_bill_clinton.jpg","P_M_boris_johnson.jpg","TRUE","pictures/stimuli/P","pictures/stimuli/P","M","M","2","5b91b40257131100016a3b87","11/30/2021, 15:00:46",-1.8892821647151,"35","Male","right",1,1,0,0,FALSE,"P_M_bill_clinton.jpg P_M_boris_johnson.jpg"
3675,"E_M_tom_hankes.jpg","P_M_boris_johnson.jpg","FALSE","pictures/stimuli/E","pictures/stimuli/P","M","M","5","5b91b40257131100016a3b87","11/30/2021, 15:00:46",0.173483916580782,"35","Male","right",1,1,0,0,FALSE,"E_M_tom_hankes.jpg P_M_boris_johnson.jpg"
4375,"P_M_david_cameron.jpg","P_M_george_Wbush.jpg","TRUE","pictures/stimuli/P","pictures/stimuli/P","M","M","4","5b91b40257131100016a3b87","11/30/2021, 15:00:46",-0.514104777184512,"35","Male","right",1,1,0,0,FALSE,"P_M_david_cameron.jpg P_M_george_Wbush.jpg"
1452,"P_F_hillary_clinton.jpg","P_M_david_cameron.jpg","TRUE","pictures/stimuli/P","pictures/stimuli/P","F","M","6","5b91b40257131100016a3b87","11/30/2021, 15:00:46",0.861072610346076,"35","Male","right",1,1,0,0,FALSE,"P_F_hillary_clinton.jpg P_M_david_cameron.jpg"
2514,"P_M_donald_trump.jpg","P_M_Tony_Blair.jpg","TRUE","pictures/stimuli/P","pictures/stimuli/P","M","M","5","5b91b40257131100016a3b87","11/30/2021, 15:00:46",0.173483916580782,"35","Male","right",1,1,0,0,FALSE,"P_M_donald_trump.jpg P_M_Tony_Blair.jpg"
3864,"E_M_Hugh_Grant.jpg","P_F_nicola_sturgeon.jpg","FALSE","pictures/stimuli/E","pictures/stimuli/P","M","F","4","5b91b40257131100016a3b87","11/30/2021, 15:00:46",-0.514104777184512,"35","Male","right",1,1,0,0,FALSE,"E_M_Hugh_Grant.jpg P_F_nicola_sturgeon.jpg"
2860,"E_M_Martin_Freeman.jpg","E_M_robert_de_niro.jpg","TRUE","pictures/stimuli/E","pictures/stimuli/E","M","M","3","5b91b40257131100016a3b87","11/30/2021, 15:00:46",-1.20169347094981,"35","Male","right",1,1,0,0,FALSE,"E_M_Martin_Freeman.jpg E_M_robert_de_niro.jpg"
3504,"E_M_michael_caine.jpg","P_M_donald_trump.jpg","FALSE","pictures/stimuli/E","pictures/stimuli/P","M","M","5","5b91b40257131100016a3b87","11/30/2021, 15:00:46",0.173483916580782,"35","Male","right",1,1,0,0,FALSE,"E_M_michael_caine.jpg P_M_donald_trump.jpg"
4451,"E_M_nicolas_cage.jpg","P_F_tehresy_may.jpg","FALSE","pictures/stimuli/E","pictures/stimuli/P","M","F","5","5b91b40257131100016a3b87","11/30/2021, 15:00:46",0.173483916580782,"35","Male","right",1,1,0,0,FALSE,"E_M_nicolas_cage.jpg P_F_tehresy_may.jpg"
3730,"E_F_keira_knightley.jpg","E_M_robert_de_niro.jpg","TRUE","pictures/stimuli/E","pictures/stimuli/E","F","M","5","5b91b40257131100016a3b87","11/30/2021, 15:00:46",0.173483916580782,"35","Male","right",1,1,0,0,FALSE,"E_F_keira_knightley.jpg E_M_robert_de_niro.jpg"
6937,"E_F_jennifer_aniston.jpg","E_M_michael_caine.jpg","TRUE","pictures/stimuli/E","pictures/stimuli/E","F","M","6","5b91b40257131100016a3b87","11/30/2021, 15:00:46",0.861072610346076,"35","Male","right",1,1,0,0,FALSE,"E_F_jennifer_aniston.jpg E_M_michael_caine.jpg"
1655,"E_F_Kate_Winslet.jpg","P_M_Tony_Blair.jpg","FALSE","pictures/stimuli/E","pictures/stimuli/P","F","M","6","5b91b40257131100016a3b87","11/30/2021, 15:00:46",0.861072610346076,"35","Male","right",1,1,0,0,FALSE,"E_F_Kate_Winslet.jpg P_M_Tony_Blair.jpg"
3528,"E_M_Hugh_Grant.jpg","P_M_Tony_Blair.jpg","FALSE","pictures/stimuli/E","pictures/stimuli/P","M","M","5","5b91b40257131100016a3b87","11/30/2021, 15:00:46",0.173483916580782,"35","Male","right",1,1,0,0,FALSE,"E_M_Hugh_Grant.jpg P_M_Tony_Blair.jpg"
2016,"E_M_Martin_Freeman.jpg","P_F_hillary_clinton.jpg","FALSE","pictures/stimuli/E","pictures/stimuli/P","M","F","4","5b91b40257131100016a3b87","11/30/2021, 15:00:46",-0.514104777184512,"35","Male","right",1,1,0,0,FALSE,"E_M_Martin_Freeman.jpg P_F_hillary_clinton.jpg"
2086,"E_M_Martin_Freeman.jpg","P_F_tehresy_may.jpg","FALSE","pictures/stimuli/E","pictures/stimuli/P","M","F","6","5b91b40257131100016a3b87","11/30/2021, 15:00:46",0.861072610346076,"35","Male","right",1,1,0,0,FALSE,"E_M_Martin_Freeman.jpg P_F_tehresy_may.jpg"
2072,"E_F_sandra_bullock.jpg","E_M_nicolas_cage.jpg","TRUE","pictures/stimuli/E","pictures/stimuli/E","F","M","5","5b91b40257131100016a3b87","11/30/2021, 15:00:46",0.173483916580782,"35","Male","right",1,1,0,0,FALSE,"E_F_sandra_bullock.jpg E_M_nicolas_cage.jpg"
13263,"P_F_PRITI_PATEL.jpg","P_M_Tony_Blair.jpg","TRUE","pictures/stimuli/P","pictures/stimuli/P","F","M","6","5b91b40257131100016a3b87","11/30/2021, 15:00:46",0.861072610346076,"35","Male","right",0,1,0,0,TRUE,"P_F_PRITI_PATEL.jpg P_M_Tony_Blair.jpg"
1761,"E_M_Hugh_Grant.jpg","P_F_hillary_clinton.jpg","FALSE","pictures/stimuli/E","pictures/stimuli/P","M","F","6","5b91b40257131100016a3b87","11/30/2021, 15:00:46",0.861072610346076,"35","Male","right",1,1,0,0,FALSE,"E_M_Hugh_Grant.jpg P_F_hillary_clinton.jpg"
6950,"E_F_Judi_Dench.jpg","E_M_liam_neeson.jpg","TRUE","pictures/stimuli/E","pictures/stimuli/E","F","M","5","5b91b40257131100016a3b87","11/30/2021, 15:00:46",0.173483916580782,"35","Male","right",1,1,0,0,FALSE,"E_F_Judi_Dench.jpg E_M_liam_neeson.jpg"
4564,"P_F_angela_rayner.jpg","P_M_bill_clinton.jpg","TRUE","pictures/stimuli/P","pictures/stimuli/P","F","M","6","5b91b40257131100016a3b87","11/30/2021, 15:00:46",0.861072610346076,"35","Male","right",0,1,0,0,TRUE,"P_F_angela_rayner.jpg P_M_bill_clinton.jpg"
7453,"E_M_Martin_Freeman.jpg","P_M_david_cameron.jpg","FALSE","pictures/stimuli/E","pictures/stimuli/P","M","M","4","5b91b40257131100016a3b87","11/30/2021, 15:00:46",-0.514104777184512,"35","Male","right",1,1,0,0,FALSE,"E_M_Martin_Freeman.jpg P_M_david_cameron.jpg"
5173,"E_M_liam_neeson.jpg","P_M_david_cameron.jpg","FALSE","pictures/stimuli/E","pictures/stimuli/P","M","M","3","5b91b40257131100016a3b87","11/30/2021, 15:00:46",-1.20169347094981,"35","Male","right",1,1,0,0,FALSE,"E_M_liam_neeson.jpg P_M_david_cameron.jpg"
2405,"E_M_nicolas_cage.jpg","E_M_tom_hankes.jpg","TRUE","pictures/stimuli/E","pictures/stimuli/E","M","M","3","5b91b40257131100016a3b87","11/30/2021, 15:00:46",-1.20169347094981,"35","Male","right",1,1,0,0,FALSE,"E_M_nicolas_cage.jpg E_M_tom_hankes.jpg"
3958,"P_M_boris_johnson.jpg","P_M_george_Wbush.jpg","TRUE","pictures/stimuli/P","pictures/stimuli/P","M","M","2","5b91b40257131100016a3b87","11/30/2021, 15:00:46",-1.8892821647151,"35","Male","right",1,1,0,0,FALSE,"P_M_boris_johnson.jpg P_M_george_Wbush.jpg"
1870,"P_F_esther_mcvey.jpg","P_F_tehresy_may.jpg","TRUE","pictures/stimuli/P","pictures/stimuli/P","F","F","6","5b91b40257131100016a3b87","11/30/2021, 15:00:46",0.861072610346076,"35","Male","right",0,1,0,0,TRUE,"P_F_esther_mcvey.jpg P_F_tehresy_may.jpg"
3164,"E_F_keira_knightley.jpg","E_M_anthony_hopkins.jpg","TRUE","pictures/stimuli/E","pictures/stimuli/E","F","M","6","5b91b40257131100016a3b87","11/30/2021, 15:00:46",0.861072610346076,"35","Male","right",1,1,0,0,FALSE,"E_F_keira_knightley.jpg E_M_anthony_hopkins.jpg"
5016,"P_F_nicola_sturgeon.jpg","P_M_david_cameron.jpg","TRUE","pictures/stimuli/P","pictures/stimuli/P","F","M","5","5b91b40257131100016a3b87","11/30/2021, 15:00:46",0.173483916580782,"35","Male","right",1,1,0,0,FALSE,"P_F_nicola_sturgeon.jpg P_M_david_cameron.jpg"
13021,"E_M_nicolas_cage.jpg","P_M_george_Wbush.jpg","FALSE","pictures/stimuli/E","pictures/stimuli/P","M","M","4","5b91b40257131100016a3b87","11/30/2021, 15:00:46",-0.514104777184512,"35","Male","right",1,1,0,0,FALSE,"E_M_nicolas_cage.jpg P_M_george_Wbush.jpg"
2781,"P_F_nicola_sturgeon.jpg","P_M_donald_trump.jpg","TRUE","pictures/stimuli/P","pictures/stimuli/P","F","M","4","5b91b40257131100016a3b87","11/30/2021, 15:00:46",-0.514104777184512,"35","Male","right",1,1,0,0,FALSE,"P_F_nicola_sturgeon.jpg P_M_donald_trump.jpg"
1403,"P_F_angela_rayner.jpg","P_M_george_Wbush.jpg","TRUE","pictures/stimuli/P","pictures/stimuli/P","F","M","6","5b91b40257131100016a3b87","11/30/2021, 15:00:46",0.861072610346076,"35","Male","right",0,1,0,0,TRUE,"P_F_angela_rayner.jpg P_M_george_Wbush.jpg"
2794,"E_F_jennifer_aniston.jpg","E_M_Hugh_Grant.jpg","TRUE","pictures/stimuli/E","pictures/stimuli/E","F","M","5","5b91b40257131100016a3b87","11/30/2021, 15:00:46",0.173483916580782,"35","Male","right",1,1,0,0,FALSE,"E_F_jennifer_aniston.jpg E_M_Hugh_Grant.jpg"
1860,"E_F_Judi_Dench.jpg","E_M_nicolas_cage.jpg","TRUE","pictures/stimuli/E","pictures/stimuli/E","F","M","6","5b91b40257131100016a3b87","11/30/2021, 15:00:46",0.861072610346076,"35","Male","right",1,1,0,0,FALSE,"E_F_Judi_Dench.jpg E_M_nicolas_cage.jpg"
1523,"E_M_nicolas_cage.jpg","P_F_nicola_sturgeon.jpg","FALSE","pictures/stimuli/E","pictures/stimuli/P","M","F","6","5b91b40257131100016a3b87","11/30/2021, 15:00:46",0.861072610346076,"35","Male","right",1,1,0,0,FALSE,"E_M_nicolas_cage.jpg P_F_nicola_sturgeon.jpg"
1697,"P_M_donald_trump.jpg","P_M_george_Wbush.jpg","TRUE","pictures/stimuli/P","pictures/stimuli/P","M","M","3","5b91b40257131100016a3b87","11/30/2021, 15:00:46",-1.20169347094981,"35","Male","right",1,1,0,0,FALSE,"P_M_donald_trump.jpg P_M_george_Wbush.jpg"
2044,"E_F_sandra_bullock.jpg","E_M_robert_de_niro.jpg","TRUE","pictures/stimuli/E","pictures/stimuli/E","F","M","5","5b91b40257131100016a3b87","11/30/2021, 15:00:46",0.173483916580782,"35","Male","right",1,1,0,0,FALSE,"E_F_sandra_bullock.jpg E_M_robert_de_niro.jpg"
13502,"E_F_angelina_jolie.jpg","E_F_jennifer_aniston.jpg","TRUE","pictures/stimuli/E","pictures/stimuli/E","F","F","3","5b91b40257131100016a3b87","11/30/2021, 15:00:46",-1.20169347094981,"35","Male","right",1,1,0,0,FALSE,"E_F_angelina_jolie.jpg E_F_jennifer_aniston.jpg"
4452,"E_F_jennifer_aniston.jpg","P_F_angela_rayner.jpg","FALSE","pictures/stimuli/E","pictures/stimuli/P","F","F","4","5b91b40257131100016a3b87","11/30/2021, 15:00:46",-0.514104777184512,"35","Male","right",1,0,0,0,TRUE,"E_F_jennifer_aniston.jpg P_F_angela_rayner.jpg"
5029,"P_F_tehresy_may.jpg","P_M_Tony_Blair.jpg","TRUE","pictures/stimuli/P","pictures/stimuli/P","F","M","5","5b91b40257131100016a3b87","11/30/2021, 15:00:46",0.173483916580782,"35","Male","right",1,1,0,0,FALSE,"P_F_tehresy_may.jpg P_M_Tony_Blair.jpg"
2162,"P_M_david_cameron.jpg","P_M_Tony_Blair.jpg","TRUE","pictures/stimuli/P","pictures/stimuli/P","M","M","2","5b91b40257131100016a3b87","11/30/2021, 15:00:46",-1.8892821647151,"35","Male","right",1,1,0,0,FALSE,"P_M_david_cameron.jpg P_M_Tony_Blair.jpg"
2991,"E_F_keira_knightley.jpg","E_M_Hugh_Grant.jpg","TRUE","pictures/stimuli/E","pictures/stimuli/E","F","M","5","5b91b40257131100016a3b87","11/30/2021, 15:00:46",0.173483916580782,"35","Male","right",1,1,0,0,FALSE,"E_F_keira_knightley.jpg E_M_Hugh_Grant.jpg"
3920,"P_F_esther_mcvey.jpg","P_M_boris_johnson.jpg","TRUE","pictures/stimuli/P","pictures/stimuli/P","F","M","6","5b91b40257131100016a3b87","11/30/2021, 15:00:46",0.861072610346076,"35","Male","right",0,1,0,0,TRUE,"P_F_esther_mcvey.jpg P_M_boris_johnson.jpg"
9265,"E_F_keira_knightley.jpg","P_F_esther_mcvey.jpg","FALSE","pictures/stimuli/E","pictures/stimuli/P","F","F","6","5b91b40257131100016a3b87","11/30/2021, 15:00:46",0.861072610346076,"35","Male","right",1,0,0,0,TRUE,"E_F_keira_knightley.jpg P_F_esther_mcvey.jpg"
2412,"E_M_michael_caine.jpg","P_M_Tony_Blair.jpg","FALSE","pictures/stimuli/E","pictures/stimuli/P","M","M","3","5b91b40257131100016a3b87","11/30/2021, 15:00:46",-1.20169347094981,"35","Male","right",1,1,0,0,FALSE,"E_M_michael_caine.jpg P_M_Tony_Blair.jpg"
7507,"E_F_Judi_Dench.jpg","E_F_keira_knightley.jpg","TRUE","pictures/stimuli/E","pictures/stimuli/E","F","F","4","5b91b40257131100016a3b87","11/30/2021, 15:00:46",-0.514104777184512,"35","Male","right",1,1,0,0,FALSE,"E_F_Judi_Dench.jpg E_F_keira_knightley.jpg"
2166,"E_F_jennifer_aniston.jpg","P_F_tehresy_may.jpg","FALSE","pictures/stimuli/E","pictures/stimuli/P","F","F","6","5b91b40257131100016a3b87","11/30/2021, 15:00:46",0.861072610346076,"35","Male","right",1,1,0,0,FALSE,"E_F_jennifer_aniston.jpg P_F_tehresy_may.jpg"
2755,"E_M_tom_hankes.jpg","P_F_tehresy_may.jpg","FALSE","pictures/stimuli/E","pictures/stimuli/P","M","F","3","5b91b40257131100016a3b87","11/30/2021, 15:00:46",-1.20169347094981,"35","Male","right",1,1,0,0,FALSE,"E_M_tom_hankes.jpg P_F_tehresy_may.jpg"
4009,"E_M_tom_hankes.jpg","P_F_angela_rayner.jpg","FALSE","pictures/stimuli/E","pictures/stimuli/P","M","F","6","5b91b40257131100016a3b87","11/30/2021, 15:00:46",0.861072610346076,"35","Male","right",1,0,0,0,TRUE,"E_M_tom_hankes.jpg P_F_angela_rayner.jpg"
4799,"E_F_keira_knightley.jpg","P_M_bill_clinton.jpg","FALSE","pictures/stimuli/E","pictures/stimuli/P","F","M","6","5b91b40257131100016a3b87","11/30/2021, 15:00:46",0.861072610346076,"35","Male","right",1,1,0,0,FALSE,"E_F_keira_knightley.jpg P_M_bill_clinton.jpg"
4213,"E_M_michael_caine.jpg","P_F_PRITI_PATEL.jpg","FALSE","pictures/stimuli/E","pictures/stimuli/P","M","F","6","5b91b40257131100016a3b87","11/30/2021, 15:00:46",0.861072610346076,"35","Male","right",1,0,0,0,TRUE,"E_M_michael_caine.jpg P_F_PRITI_PATEL.jpg"
1429,"E_F_sandra_bullock.jpg","E_M_michael_caine.jpg","TRUE","pictures/stimuli/E","pictures/stimuli/E","F","M","6","5b91b40257131100016a3b87","11/30/2021, 15:00:46",0.861072610346076,"35","Male","right",1,1,0,0,FALSE,"E_F_sandra_bullock.jpg E_M_michael_caine.jpg"
5055,"E_M_anthony_hopkins.jpg","E_M_robert_de_niro.jpg","TRUE","pictures/stimuli/E","pictures/stimuli/E","M","M","2","5b91b40257131100016a3b87","11/30/2021, 15:00:46",-1.8892821647151,"35","Male","right",1,1,0,0,FALSE,"E_M_anthony_hopkins.jpg E_M_robert_de_niro.jpg"
3782,"E_F_angelina_jolie.jpg","E_M_nicolas_cage.jpg","TRUE","pictures/stimuli/E","pictures/stimuli/E","F","M","6","5b91b40257131100016a3b87","11/30/2021, 15:00:46",0.861072610346076,"35","Male","right",1,1,0,0,FALSE,"E_F_angelina_jolie.jpg E_M_nicolas_cage.jpg"
8824,"E_M_michael_caine.jpg","P_F_nicola_sturgeon.jpg","FALSE","pictures/stimuli/E","pictures/stimuli/P","M","F","4","5b91b40257131100016a3b87","11/30/2021, 15:00:46",-0.514104777184512,"35","Male","right",1,1,0,0,FALSE,"E_M_michael_caine.jpg P_F_nicola_sturgeon.jpg"
6283,"E_M_Martin_Freeman.jpg","P_M_Tony_Blair.jpg","FALSE","pictures/stimuli/E","pictures/stimuli/P","M","M","2","5b91b40257131100016a3b87","11/30/2021, 15:00:46",-1.8892821647151,"35","Male","right",1,1,0,0,FALSE,"E_M_Martin_Freeman.jpg P_M_Tony_Blair.jpg"
2805,"E_M_robert_de_niro.jpg","P_F_nicola_sturgeon.jpg","FALSE","pictures/stimuli/E","pictures/stimuli/P","M","F","6","5b91b40257131100016a3b87","11/30/2021, 15:00:46",0.861072610346076,"35","Male","right",1,1,0,0,FALSE,"E_M_robert_de_niro.jpg P_F_nicola_sturgeon.jpg"
2248,"P_F_angela_rayner.jpg","P_M_Tony_Blair.jpg","TRUE","pictures/stimuli/P","pictures/stimuli/P","F","M","6","5b91b40257131100016a3b87","11/30/2021, 15:00:46",0.861072610346076,"35","Male","right",0,1,0,0,TRUE,"P_F_angela_rayner.jpg P_M_Tony_Blair.jpg"
2554,"E_F_angelina_jolie.jpg","E_M_Martin_Freeman.jpg","TRUE","pictures/stimuli/E","pictures/stimuli/E","F","M","5","5b91b40257131100016a3b87","11/30/2021, 15:00:46",0.173483916580782,"35","Male","right",1,1,0,0,FALSE,"E_F_angelina_jolie.jpg E_M_Martin_Freeman.jpg"
1443,"P_F_angela_rayner.jpg","P_M_donald_trump.jpg","TRUE","pictures/stimuli/P","pictures/stimuli/P","F","M","6","5b91b40257131100016a3b87","11/30/2021, 15:00:46",0.861072610346076,"35","Male","right",0,1,0,0,TRUE,"P_F_angela_rayner.jpg P_M_donald_trump.jpg"
2768,"E_M_Hugh_Grant.jpg","P_M_donald_trump.jpg","FALSE","pictures/stimuli/E","pictures/stimuli/P","M","M","6","5b91b40257131100016a3b87","11/30/2021, 15:00:46",0.861072610346076,"35","Male","right",1,1,0,0,FALSE,"E_M_Hugh_Grant.jpg P_M_donald_trump.jpg"
2205,"E_M_michael_caine.jpg","P_M_george_Wbush.jpg","FALSE","pictures/stimuli/E","pictures/stimuli/P","M","M","5","5b91b40257131100016a3b87","11/30/2021, 15:00:46",0.173483916580782,"35","Male","right",1,1,0,0,FALSE,"E_M_michael_caine.jpg P_M_george_Wbush.jpg"
1538,"P_F_nicola_sturgeon.jpg","P_M_george_Wbush.jpg","TRUE","pictures/stimuli/P","pictures/stimuli/P","F","M","6","5b91b40257131100016a3b87","11/30/2021, 15:00:46",0.861072610346076,"35","Male","right",1,1,0,0,FALSE,"P_F_nicola_sturgeon.jpg P_M_george_Wbush.jpg"
11993,"E_F_angelina_jolie.jpg","E_M_anthony_hopkins.jpg","TRUE","pictures/stimuli/E","pictures/stimuli/E","F","M","6","5b91b40257131100016a3b87","11/30/2021, 15:00:46",0.861072610346076,"35","Male","right",1,1,0,0,FALSE,"E_F_angelina_jolie.jpg E_M_anthony_hopkins.jpg"
2219,"P_F_tehresy_may.jpg","P_M_george_Wbush.jpg","TRUE","pictures/stimuli/P","pictures/stimuli/P","F","M","4","5b91b40257131100016a3b87","11/30/2021, 15:00:46",-0.514104777184512,"35","Male","right",1,1,0,0,FALSE,"P_F_tehresy_may.jpg P_M_george_Wbush.jpg"
1777,"E_F_Kate_Winslet.jpg","E_M_michael_caine.jpg","TRUE","pictures/stimuli/E","pictures/stimuli/E","F","M","6","5b91b40257131100016a3b87","11/30/2021, 15:00:46",0.861072610346076,"35","Male","right",1,1,0,0,FALSE,"E_F_Kate_Winslet.jpg E_M_michael_caine.jpg"
2568,"P_M_boris_johnson.jpg","P_M_david_cameron.jpg","TRUE","pictures/stimuli/P","pictures/stimuli/P","M","M","5","5b91b40257131100016a3b87","11/30/2021, 15:00:46",0.173483916580782,"35","Male","right",1,1,0,0,FALSE,"P_M_boris_johnson.jpg P_M_david_cameron.jpg"
1351,"E_F_sandra_bullock.jpg","E_M_anthony_hopkins.jpg","TRUE","pictures/stimuli/E","pictures/stimuli/E","F","M","6","5b91b40257131100016a3b87","11/30/2021, 15:00:46",0.861072610346076,"35","Male","right",1,1,0,0,FALSE,"E_F_sandra_bullock.jpg E_M_anthony_hopkins.jpg"
2768,"E_F_jennifer_aniston.jpg","P_M_george_Wbush.jpg","FALSE","pictures/stimuli/E","pictures/stimuli/P","F","M","6","5b91b40257131100016a3b87","11/30/2021, 15:00:46",0.861072610346076,"35","Male","right",1,1,0,0,FALSE,"E_F_jennifer_aniston.jpg P_M_george_Wbush.jpg"
2939,"E_M_nicolas_cage.jpg","P_F_hillary_clinton.jpg","FALSE","pictures/stimuli/E","pictures/stimuli/P","M","F","6","5b91b40257131100016a3b87","11/30/2021, 15:00:46",0.861072610346076,"35","Male","right",1,1,0,0,FALSE,"E_M_nicolas_cage.jpg P_F_hillary_clinton.jpg"
8716,"P_M_david_cameron.jpg","P_M_donald_trump.jpg","TRUE","pictures/stimuli/P","pictures/stimuli/P","M","M","6","5b91b40257131100016a3b87","11/30/2021, 15:00:46",0.861072610346076,"35","Male","right",1,1,0,0,FALSE,"P_M_david_cameron.jpg P_M_donald_trump.jpg"
3784,"E_F_sandra_bullock.jpg","P_F_nicola_sturgeon.jpg","FALSE","pictures/stimuli/E","pictures/stimuli/P","F","F","5","5b91b40257131100016a3b87","11/30/2021, 15:00:46",0.173483916580782,"35","Male","right",1,1,0,0,FALSE,"E_F_sandra_bullock.jpg P_F_nicola_sturgeon.jpg"
2740,"E_M_anthony_hopkins.jpg","P_M_george_Wbush.jpg","FALSE","pictures/stimuli/E","pictures/stimuli/P","M","M","3","5b91b40257131100016a3b87","11/30/2021, 15:00:46",-1.20169347094981,"35","Male","right",1,1,0,0,FALSE,"E_M_anthony_hopkins.jpg P_M_george_Wbush.jpg"
1926,"E_F_keira_knightley.jpg","P_F_PRITI_PATEL.jpg","FALSE","pictures/stimuli/E","pictures/stimuli/P","F","F","3","5b91b40257131100016a3b87","11/30/2021, 15:00:46",-1.20169347094981,"35","Male","right",1,0,0,0,TRUE,"E_F_keira_knightley.jpg P_F_PRITI_PATEL.jpg"
14624,"E_F_Kate_Winslet.jpg","P_M_david_cameron.jpg","FALSE","pictures/stimuli/E","pictures/stimuli/P","F","M","6","5b91b40257131100016a3b87","11/30/2021, 15:00:46",0.861072610346076,"35","Male","right",1,1,0,0,FALSE,"E_F_Kate_Winslet.jpg P_M_david_cameron.jpg"
4305,"E_F_angelina_jolie.jpg","P_M_Tony_Blair.jpg","FALSE","pictures/stimuli/E","pictures/stimuli/P","F","M","5","5b91b40257131100016a3b87","11/30/2021, 15:00:46",0.173483916580782,"35","Male","right",1,1,0,0,FALSE,"E_F_angelina_jolie.jpg P_M_Tony_Blair.jpg"
8221,"E_M_robert_de_niro.jpg","P_F_tehresy_may.jpg","FALSE","pictures/stimuli/E","pictures/stimuli/P","M","F","5","5b91b40257131100016a3b87","11/30/2021, 15:00:46",0.173483916580782,"35","Male","right",1,1,0,0,FALSE,"E_M_robert_de_niro.jpg P_F_tehresy_may.jpg"
2902,"P_F_PRITI_PATEL.jpg","P_M_bill_clinton.jpg","TRUE","pictures/stimuli/P","pictures/stimuli/P","F","M","6","5b91b40257131100016a3b87","11/30/2021, 15:00:46",0.861072610346076,"35","Male","right",0,1,0,0,TRUE,"P_F_PRITI_PATEL.jpg P_M_bill_clinton.jpg"
10723,"E_F_sandra_bullock.jpg","P_M_bill_clinton.jpg","FALSE","pictures/stimuli/E","pictures/stimuli/P","F","M","6","5b91b40257131100016a3b87","11/30/2021, 15:00:46",0.861072610346076,"35","Male","right",1,1,0,0,FALSE,"E_F_sandra_bullock.jpg P_M_bill_clinton.jpg"
3633,"E_F_angelina_jolie.jpg","E_M_robert_de_niro.jpg","TRUE","pictures/stimuli/E","pictures/stimuli/E","F","M","5","5b91b40257131100016a3b87","11/30/2021, 15:00:46",0.173483916580782,"35","Male","right",1,1,0,0,FALSE,"E_F_angelina_jolie.jpg E_M_robert_de_niro.jpg"
2586,"E_F_Judi_Dench.jpg","E_M_Hugh_Grant.jpg","TRUE","pictures/stimuli/E","pictures/stimuli/E","F","M","4","5b91b40257131100016a3b87","11/30/2021, 15:00:46",-0.514104777184512,"35","Male","right",1,1,0,0,FALSE,"E_F_Judi_Dench.jpg E_M_Hugh_Grant.jpg"
4546,"E_F_Kate_Winslet.jpg","P_F_angela_rayner.jpg","FALSE","pictures/stimuli/E","pictures/stimuli/P","F","F","4","5b91b40257131100016a3b87","11/30/2021, 15:00:46",-0.514104777184512,"35","Male","right",1,0,0,0,TRUE,"E_F_Kate_Winslet.jpg P_F_angela_rayner.jpg"
1899,"E_F_Judi_Dench.jpg","P_F_angela_rayner.jpg","FALSE","pictures/stimuli/E","pictures/stimuli/P","F","F","6","5b91b40257131100016a3b87","11/30/2021, 15:00:46",0.861072610346076,"35","Male","right",1,0,0,0,TRUE,"E_F_Judi_Dench.jpg P_F_angela_rayner.jpg"
6472,"E_M_liam_neeson.jpg","E_M_nicolas_cage.jpg","TRUE","pictures/stimuli/E","pictures/stimuli/E","M","M","2","5b91b40257131100016a3b87","11/30/2021, 15:00:46",-1.8892821647151,"35","Male","right",1,1,0,0,FALSE,"E_M_liam_neeson.jpg E_M_nicolas_cage.jpg"
2272,"E_F_Judi_Dench.jpg","E_M_michael_caine.jpg","TRUE","pictures/stimuli/E","pictures/stimuli/E","F","M","3","5b91b40257131100016a3b87","11/30/2021, 15:00:46",-1.20169347094981,"35","Male","right",1,1,0,0,FALSE,"E_F_Judi_Dench.jpg E_M_michael_caine.jpg"
3757,"E_M_nicolas_cage.jpg","P_M_boris_johnson.jpg","FALSE","pictures/stimuli/E","pictures/stimuli/P","M","M","5","5b91b40257131100016a3b87","11/30/2021, 15:00:46",0.173483916580782,"35","Male","right",1,1,0,0,FALSE,"E_M_nicolas_cage.jpg P_M_boris_johnson.jpg"
3730,"E_M_liam_neeson.jpg","P_M_boris_johnson.jpg","FALSE","pictures/stimuli/E","pictures/stimuli/P","M","M","5","5b91b40257131100016a3b87","11/30/2021, 15:00:46",0.173483916580782,"35","Male","right",1,1,0,0,FALSE,"E_M_liam_neeson.jpg P_M_boris_johnson.jpg"
5025,"E_F_Kate_Winslet.jpg","P_F_nicola_sturgeon.jpg","FALSE","pictures/stimuli/E","pictures/stimuli/P","F","F","5","5b91b40257131100016a3b87","11/30/2021, 15:00:46",0.173483916580782,"35","Male","right",1,1,0,0,FALSE,"E_F_Kate_Winslet.jpg P_F_nicola_sturgeon.jpg"
3538,"E_F_angelina_jolie.jpg","P_M_donald_trump.jpg","FALSE","pictures/stimuli/E","pictures/stimuli/P","F","M","6","5c3d19e75f5dca00019abdbd","11/30/2021, 14:41:44",1.09006394311751,"35","Female","left",1,1,0,0,FALSE,"E_F_angelina_jolie.jpg P_M_donald_trump.jpg"
8601,"E_M_liam_neeson.jpg","P_M_george_Wbush.jpg","FALSE","pictures/stimuli/E","pictures/stimuli/P","M","M","3","5c3d19e75f5dca00019abdbd","11/30/2021, 14:41:44",-1.37014981739076,"35","Female","left",1,1,0,0,FALSE,"E_M_liam_neeson.jpg P_M_george_Wbush.jpg"
6309,"E_M_Martin_Freeman.jpg","P_M_Tony_Blair.jpg","FALSE","pictures/stimuli/E","pictures/stimuli/P","M","M","3","5c3d19e75f5dca00019abdbd","11/30/2021, 14:41:44",-1.37014981739076,"35","Female","left",1,1,0,0,FALSE,"E_M_Martin_Freeman.jpg P_M_Tony_Blair.jpg"
5823,"E_M_Hugh_Grant.jpg","P_F_angela_rayner.jpg","FALSE","pictures/stimuli/E","pictures/stimuli/P","M","F","4","5c3d19e75f5dca00019abdbd","11/30/2021, 14:41:44",-0.550078563888002,"35","Female","left",1,0,0,0,TRUE,"E_M_Hugh_Grant.jpg P_F_angela_rayner.jpg"
5851,"E_F_Judi_Dench.jpg","P_M_david_cameron.jpg","FALSE","pictures/stimuli/E","pictures/stimuli/P","F","M","5","5c3d19e75f5dca00019abdbd","11/30/2021, 14:41:44",0.269992689614754,"35","Female","left",1,1,0,0,FALSE,"E_F_Judi_Dench.jpg P_M_david_cameron.jpg"
6834,"E_F_keira_knightley.jpg","P_F_angela_rayner.jpg","FALSE","pictures/stimuli/E","pictures/stimuli/P","F","F","6","5c3d19e75f5dca00019abdbd","11/30/2021, 14:41:44",1.09006394311751,"35","Female","left",1,0,0,0,TRUE,"E_F_keira_knightley.jpg P_F_angela_rayner.jpg"
4270,"E_M_tom_hankes.jpg","P_F_angela_rayner.jpg","FALSE","pictures/stimuli/E","pictures/stimuli/P","M","F","6","5c3d19e75f5dca00019abdbd","11/30/2021, 14:41:44",1.09006394311751,"35","Female","left",1,0,0,0,TRUE,"E_M_tom_hankes.jpg P_F_angela_rayner.jpg"
5811,"E_F_keira_knightley.jpg","P_F_hillary_clinton.jpg","FALSE","pictures/stimuli/E","pictures/stimuli/P","F","F","6","5c3d19e75f5dca00019abdbd","11/30/2021, 14:41:44",1.09006394311751,"35","Female","left",1,1,0,0,FALSE,"E_F_keira_knightley.jpg P_F_hillary_clinton.jpg"
6671,"P_F_PRITI_PATEL.jpg","P_M_david_cameron.jpg","TRUE","pictures/stimuli/P","pictures/stimuli/P","F","M","5","5c3d19e75f5dca00019abdbd","11/30/2021, 14:41:44",0.269992689614754,"35","Female","left",0,1,0,0,TRUE,"P_F_PRITI_PATEL.jpg P_M_david_cameron.jpg"
5714,"E_F_Judi_Dench.jpg","P_M_boris_johnson.jpg","FALSE","pictures/stimuli/E","pictures/stimuli/P","F","M","5","5c3d19e75f5dca00019abdbd","11/30/2021, 14:41:44",0.269992689614754,"35","Female","left",1,1,0,0,FALSE,"E_F_Judi_Dench.jpg P_M_boris_johnson.jpg"
4055,"E_M_michael_caine.jpg","P_M_david_cameron.jpg","FALSE","pictures/stimuli/E","pictures/stimuli/P","M","M","5","5c3d19e75f5dca00019abdbd","11/30/2021, 14:41:44",0.269992689614754,"35","Female","left",1,1,0,0,FALSE,"E_M_michael_caine.jpg P_M_david_cameron.jpg"
3829,"E_M_Martin_Freeman.jpg","P_M_donald_trump.jpg","FALSE","pictures/stimuli/E","pictures/stimuli/P","M","M","5","5c3d19e75f5dca00019abdbd","11/30/2021, 14:41:44",0.269992689614754,"35","Female","left",1,1,0,0,FALSE,"E_M_Martin_Freeman.jpg P_M_donald_trump.jpg"
4802,"E_M_Martin_Freeman.jpg","E_M_robert_de_niro.jpg","TRUE","pictures/stimuli/E","pictures/stimuli/E","M","M","5","5c3d19e75f5dca00019abdbd","11/30/2021, 14:41:44",0.269992689614754,"35","Female","left",1,1,0,0,FALSE,"E_M_Martin_Freeman.jpg E_M_robert_de_niro.jpg"
7227,"E_M_nicolas_cage.jpg","P_M_donald_trump.jpg","FALSE","pictures/stimuli/E","pictures/stimuli/P","M","M","5","5c3d19e75f5dca00019abdbd","11/30/2021, 14:41:44",0.269992689614754,"35","Female","left",1,1,0,0,FALSE,"E_M_nicolas_cage.jpg P_M_donald_trump.jpg"
5490,"P_F_hillary_clinton.jpg","P_M_george_Wbush.jpg","TRUE","pictures/stimuli/P","pictures/stimuli/P","F","M","5","5c3d19e75f5dca00019abdbd","11/30/2021, 14:41:44",0.269992689614754,"35","Female","left",1,1,0,0,FALSE,"P_F_hillary_clinton.jpg P_M_george_Wbush.jpg"
4462,"E_M_Hugh_Grant.jpg","P_M_bill_clinton.jpg","FALSE","pictures/stimuli/E","pictures/stimuli/P","M","M","6","5c3d19e75f5dca00019abdbd","11/30/2021, 14:41:44",1.09006394311751,"35","Female","left",1,1,0,0,FALSE,"E_M_Hugh_Grant.jpg P_M_bill_clinton.jpg"
3323,"E_M_Martin_Freeman.jpg","P_F_esther_mcvey.jpg","FALSE","pictures/stimuli/E","pictures/stimuli/P","M","F","6","5c3d19e75f5dca00019abdbd","11/30/2021, 14:41:44",1.09006394311751,"35","Female","left",1,0,0,0,TRUE,"E_M_Martin_Freeman.jpg P_F_esther_mcvey.jpg"
3515,"E_M_tom_hankes.jpg","P_F_PRITI_PATEL.jpg","FALSE","pictures/stimuli/E","pictures/stimuli/P","M","F","5","5c3d19e75f5dca00019abdbd","11/30/2021, 14:41:44",0.269992689614754,"35","Female","left",1,0,0,0,TRUE,"E_M_tom_hankes.jpg P_F_PRITI_PATEL.jpg"
6008,"E_M_Hugh_Grant.jpg","P_F_tehresy_may.jpg","FALSE","pictures/stimuli/E","pictures/stimuli/P","M","F","4","5c3d19e75f5dca00019abdbd","11/30/2021, 14:41:44",-0.550078563888002,"35","Female","left",1,1,0,0,FALSE,"E_M_Hugh_Grant.jpg P_F_tehresy_may.jpg"
4788,"P_F_PRITI_PATEL.jpg","P_M_donald_trump.jpg","TRUE","pictures/stimuli/P","pictures/stimuli/P","F","M","5","5c3d19e75f5dca00019abdbd","11/30/2021, 14:41:44",0.269992689614754,"35","Female","left",0,1,0,0,TRUE,"P_F_PRITI_PATEL.jpg P_M_donald_trump.jpg"
4778,"E_M_Martin_Freeman.jpg","P_M_george_Wbush.jpg","FALSE","pictures/stimuli/E","pictures/stimuli/P","M","M","3","5c3d19e75f5dca00019abdbd","11/30/2021, 14:41:44",-1.37014981739076,"35","Female","left",1,1,0,0,FALSE,"E_M_Martin_Freeman.jpg P_M_george_Wbush.jpg"
6350,"E_M_liam_neeson.jpg","P_M_boris_johnson.jpg","FALSE","pictures/stimuli/E","pictures/stimuli/P","M","M","4","5c3d19e75f5dca00019abdbd","11/30/2021, 14:41:44",-0.550078563888002,"35","Female","left",1,1,0,0,FALSE,"E_M_liam_neeson.jpg P_M_boris_johnson.jpg"
5003,"E_M_Hugh_Grant.jpg","P_F_esther_mcvey.jpg","FALSE","pictures/stimuli/E","pictures/stimuli/P","M","F","6","5c3d19e75f5dca00019abdbd","11/30/2021, 14:41:44",1.09006394311751,"35","Female","left",1,0,0,0,TRUE,"E_M_Hugh_Grant.jpg P_F_esther_mcvey.jpg"
4720,"E_F_jennifer_aniston.jpg","E_M_tom_hankes.jpg","TRUE","pictures/stimuli/E","pictures/stimuli/E","F","M","6","5c3d19e75f5dca00019abdbd","11/30/2021, 14:41:44",1.09006394311751,"35","Female","left",1,1,0,0,FALSE,"E_F_jennifer_aniston.jpg E_M_tom_hankes.jpg"
4904,"E_F_jennifer_aniston.jpg","P_F_PRITI_PATEL.jpg","FALSE","pictures/stimuli/E","pictures/stimuli/P","F","F","6","5c3d19e75f5dca00019abdbd","11/30/2021, 14:41:44",1.09006394311751,"35","Female","left",1,0,0,0,TRUE,"E_F_jennifer_aniston.jpg P_F_PRITI_PATEL.jpg"
6017,"E_M_liam_neeson.jpg","P_M_david_cameron.jpg","FALSE","pictures/stimuli/E","pictures/stimuli/P","M","M","5","5c3d19e75f5dca00019abdbd","11/30/2021, 14:41:44",0.269992689614754,"35","Female","left",1,1,0,0,FALSE,"E_M_liam_neeson.jpg P_M_david_cameron.jpg"
4133,"E_F_keira_knightley.jpg","P_M_donald_trump.jpg","FALSE","pictures/stimuli/E","pictures/stimuli/P","F","M","6","5c3d19e75f5dca00019abdbd","11/30/2021, 14:41:44",1.09006394311751,"35","Female","left",1,1,0,0,FALSE,"E_F_keira_knightley.jpg P_M_donald_trump.jpg"
9365,"E_M_anthony_hopkins.jpg","P_F_nicola_sturgeon.jpg","FALSE","pictures/stimuli/E","pictures/stimuli/P","M","F","5","5c3d19e75f5dca00019abdbd","11/30/2021, 14:41:44",0.269992689614754,"35","Female","left",1,1,0,0,FALSE,"E_M_anthony_hopkins.jpg P_F_nicola_sturgeon.jpg"
4177,"E_M_Martin_Freeman.jpg","P_F_PRITI_PATEL.jpg","FALSE","pictures/stimuli/E","pictures/stimuli/P","M","F","6","5c3d19e75f5dca00019abdbd","11/30/2021, 14:41:44",1.09006394311751,"35","Female","left",1,0,0,0,TRUE,"E_M_Martin_Freeman.jpg P_F_PRITI_PATEL.jpg"
3025,"E_M_tom_hankes.jpg","P_F_nicola_sturgeon.jpg","FALSE","pictures/stimuli/E","pictures/stimuli/P","M","F","5","5c3d19e75f5dca00019abdbd","11/30/2021, 14:41:44",0.269992689614754,"35","Female","left",1,1,0,0,FALSE,"E_M_tom_hankes.jpg P_F_nicola_sturgeon.jpg"
3927,"P_F_tehresy_may.jpg","P_M_donald_trump.jpg","TRUE","pictures/stimuli/P","pictures/stimuli/P","F","M","4","5c3d19e75f5dca00019abdbd","11/30/2021, 14:41:44",-0.550078563888002,"35","Female","left",1,1,0,0,FALSE,"P_F_tehresy_may.jpg P_M_donald_trump.jpg"
3834,"E_F_Kate_Winslet.jpg","E_M_liam_neeson.jpg","TRUE","pictures/stimuli/E","pictures/stimuli/E","F","M","5","5c3d19e75f5dca00019abdbd","11/30/2021, 14:41:44",0.269992689614754,"35","Female","left",1,1,0,0,FALSE,"E_F_Kate_Winslet.jpg E_M_liam_neeson.jpg"
4162,"P_F_esther_mcvey.jpg","P_F_hillary_clinton.jpg","TRUE","pictures/stimuli/P","pictures/stimuli/P","F","F","5","5c3d19e75f5dca00019abdbd","11/30/2021, 14:41:44",0.269992689614754,"35","Female","left",0,1,0,0,TRUE,"P_F_esther_mcvey.jpg P_F_hillary_clinton.jpg"
3571,"E_M_anthony_hopkins.jpg","P_M_george_Wbush.jpg","FALSE","pictures/stimuli/E","pictures/stimuli/P","M","M","4","5c3d19e75f5dca00019abdbd","11/30/2021, 14:41:44",-0.550078563888002,"35","Female","left",1,1,0,0,FALSE,"E_M_anthony_hopkins.jpg P_M_george_Wbush.jpg"
3825,"E_F_angelina_jolie.jpg","P_M_david_cameron.jpg","FALSE","pictures/stimuli/E","pictures/stimuli/P","F","M","6","5c3d19e75f5dca00019abdbd","11/30/2021, 14:41:44",1.09006394311751,"35","Female","left",1,1,0,0,FALSE,"E_F_angelina_jolie.jpg P_M_david_cameron.jpg"
2875,"P_F_angela_rayner.jpg","P_M_donald_trump.jpg","TRUE","pictures/stimuli/P","pictures/stimuli/P","F","M","6","5c3d19e75f5dca00019abdbd","11/30/2021, 14:41:44",1.09006394311751,"35","Female","left",0,1,0,0,TRUE,"P_F_angela_rayner.jpg P_M_donald_trump.jpg"
3501,"P_F_angela_rayner.jpg","P_F_hillary_clinton.jpg","TRUE","pictures/stimuli/P","pictures/stimuli/P","F","F","4","5c3d19e75f5dca00019abdbd","11/30/2021, 14:41:44",-0.550078563888002,"35","Female","left",0,1,0,0,TRUE,"P_F_angela_rayner.jpg P_F_hillary_clinton.jpg"
4462,"P_F_nicola_sturgeon.jpg","P_M_boris_johnson.jpg","TRUE","pictures/stimuli/P","pictures/stimuli/P","F","M","4","5c3d19e75f5dca00019abdbd","11/30/2021, 14:41:44",-0.550078563888002,"35","Female","left",1,1,0,0,FALSE,"P_F_nicola_sturgeon.jpg P_M_boris_johnson.jpg"
5091,"P_F_tehresy_may.jpg","P_M_bill_clinton.jpg","TRUE","pictures/stimuli/P","pictures/stimuli/P","F","M","5","5c3d19e75f5dca00019abdbd","11/30/2021, 14:41:44",0.269992689614754,"35","Female","left",1,1,0,0,FALSE,"P_F_tehresy_may.jpg P_M_bill_clinton.jpg"
3100,"E_M_liam_neeson.jpg","P_F_hillary_clinton.jpg","FALSE","pictures/stimuli/E","pictures/stimuli/P","M","F","6","5c3d19e75f5dca00019abdbd","11/30/2021, 14:41:44",1.09006394311751,"35","Female","left",1,1,0,0,FALSE,"E_M_liam_neeson.jpg P_F_hillary_clinton.jpg"
6533,"E_F_angelina_jolie.jpg","E_F_jennifer_aniston.jpg","TRUE","pictures/stimuli/E","pictures/stimuli/E","F","F","5","5c3d19e75f5dca00019abdbd","11/30/2021, 14:41:44",0.269992689614754,"35","Female","left",1,1,0,0,FALSE,"E_F_angelina_jolie.jpg E_F_jennifer_aniston.jpg"
4962,"E_M_Hugh_Grant.jpg","P_M_Tony_Blair.jpg","FALSE","pictures/stimuli/E","pictures/stimuli/P","M","M","5","5c3d19e75f5dca00019abdbd","11/30/2021, 14:41:44",0.269992689614754,"35","Female","left",1,1,0,0,FALSE,"E_M_Hugh_Grant.jpg P_M_Tony_Blair.jpg"
3813,"E_M_nicolas_cage.jpg","P_F_hillary_clinton.jpg","FALSE","pictures/stimuli/E","pictures/stimuli/P","M","F","5","5c3d19e75f5dca00019abdbd","11/30/2021, 14:41:44",0.269992689614754,"35","Female","left",1,1,0,0,FALSE,"E_M_nicolas_cage.jpg P_F_hillary_clinton.jpg"
3121,"E_M_robert_de_niro.jpg","P_F_PRITI_PATEL.jpg","FALSE","pictures/stimuli/E","pictures/stimuli/P","M","F","6","5c3d19e75f5dca00019abdbd","11/30/2021, 14:41:44",1.09006394311751,"35","Female","left",1,0,0,0,TRUE,"E_M_robert_de_niro.jpg P_F_PRITI_PATEL.jpg"
4707,"E_F_Judi_Dench.jpg","E_M_liam_neeson.jpg","TRUE","pictures/stimuli/E","pictures/stimuli/E","F","M","5","5c3d19e75f5dca00019abdbd","11/30/2021, 14:41:44",0.269992689614754,"35","Female","left",1,1,0,0,FALSE,"E_F_Judi_Dench.jpg E_M_liam_neeson.jpg"
3385,"E_M_liam_neeson.jpg","P_F_PRITI_PATEL.jpg","FALSE","pictures/stimuli/E","pictures/stimuli/P","M","F","6","5c3d19e75f5dca00019abdbd","11/30/2021, 14:41:44",1.09006394311751,"35","Female","left",1,0,0,0,TRUE,"E_M_liam_neeson.jpg P_F_PRITI_PATEL.jpg"
2799,"E_M_anthony_hopkins.jpg","E_M_robert_de_niro.jpg","TRUE","pictures/stimuli/E","pictures/stimuli/E","M","M","6","5c3d19e75f5dca00019abdbd","11/30/2021, 14:41:44",1.09006394311751,"35","Female","left",1,1,0,0,FALSE,"E_M_anthony_hopkins.jpg E_M_robert_de_niro.jpg"
4054,"E_F_jennifer_aniston.jpg","E_M_anthony_hopkins.jpg","TRUE","pictures/stimuli/E","pictures/stimuli/E","F","M","6","5c3d19e75f5dca00019abdbd","11/30/2021, 14:41:44",1.09006394311751,"35","Female","left",1,1,0,0,FALSE,"E_F_jennifer_aniston.jpg E_M_anthony_hopkins.jpg"
3193,"E_F_keira_knightley.jpg","P_F_esther_mcvey.jpg","FALSE","pictures/stimuli/E","pictures/stimuli/P","F","F","6","5c3d19e75f5dca00019abdbd","11/30/2021, 14:41:44",1.09006394311751,"35","Female","left",1,0,0,0,TRUE,"E_F_keira_knightley.jpg P_F_esther_mcvey.jpg"
4113,"E_M_Martin_Freeman.jpg","E_M_michael_caine.jpg","TRUE","pictures/stimuli/E","pictures/stimuli/E","M","M","5","5c3d19e75f5dca00019abdbd","11/30/2021, 14:41:44",0.269992689614754,"35","Female","left",1,1,0,0,FALSE,"E_M_Martin_Freeman.jpg E_M_michael_caine.jpg"
3797,"E_M_anthony_hopkins.jpg","E_M_nicolas_cage.jpg","TRUE","pictures/stimuli/E","pictures/stimuli/E","M","M","5","5c3d19e75f5dca00019abdbd","11/30/2021, 14:41:44",0.269992689614754,"35","Female","left",1,1,0,0,FALSE,"E_M_anthony_hopkins.jpg E_M_nicolas_cage.jpg"
7805,"E_M_robert_de_niro.jpg","P_F_tehresy_may.jpg","FALSE","pictures/stimuli/E","pictures/stimuli/P","M","F","4","5c3d19e75f5dca00019abdbd","11/30/2021, 14:41:44",-0.550078563888002,"35","Female","left",1,1,0,0,FALSE,"E_M_robert_de_niro.jpg P_F_tehresy_may.jpg"
5388,"E_F_jennifer_aniston.jpg","E_M_liam_neeson.jpg","TRUE","pictures/stimuli/E","pictures/stimuli/E","F","M","6","5c3d19e75f5dca00019abdbd","11/30/2021, 14:41:44",1.09006394311751,"35","Female","left",1,1,0,0,FALSE,"E_F_jennifer_aniston.jpg E_M_liam_neeson.jpg"
3427,"P_M_boris_johnson.jpg","P_M_donald_trump.jpg","TRUE","pictures/stimuli/P","pictures/stimuli/P","M","M","3","5c3d19e75f5dca00019abdbd","11/30/2021, 14:41:44",-1.37014981739076,"35","Female","left",1,1,0,0,FALSE,"P_M_boris_johnson.jpg P_M_donald_trump.jpg"
3199,"E_F_angelina_jolie.jpg","P_M_bill_clinton.jpg","FALSE","pictures/stimuli/E","pictures/stimuli/P","F","M","6","5c3d19e75f5dca00019abdbd","11/30/2021, 14:41:44",1.09006394311751,"35","Female","left",1,1,0,0,FALSE,"E_F_angelina_jolie.jpg P_M_bill_clinton.jpg"
5868,"E_F_angelina_jolie.jpg","E_M_tom_hankes.jpg","TRUE","pictures/stimuli/E","pictures/stimuli/E","F","M","6","5c3d19e75f5dca00019abdbd","11/30/2021, 14:41:44",1.09006394311751,"35","Female","left",1,1,0,0,FALSE,"E_F_angelina_jolie.jpg E_M_tom_hankes.jpg"
