"RT","img_1","img_2","isSameProffesion","img1proffesion","img2proffesion","img1Gender","img2Gender","keyPressed","normlised_keyPress","age","gender","handedness","participant","isFamiliar_img1","isFamiliar_img2","vividness_img1","vividness_img2","reject_trial","condition","pair"
NA,"E_F_galit_gutman.png","E_F_ilanit.png",NA,NA,NA,NA,NA,"0.25214958190918",NA,NA,NA,NA,NA,NA,NA,NA,NA,FALSE,"SGPT","E_F_galit_gutman.png E_F_ilanit.png"
NA,"E_F_galit_gutman.png","E_F_ninet.png",NA,NA,NA,NA,NA,"0.436342418193817",NA,NA,NA,NA,NA,NA,NA,NA,NA,FALSE,"SGPT","E_F_galit_gutman.png E_F_ninet.png"
NA,"E_F_galit_gutman.png","E_F_rotem_sela.png",NA,NA,NA,NA,NA,"0.414897322654724",NA,NA,NA,NA,NA,NA,NA,NA,NA,FALSE,"SGPT","E_F_galit_gutman.png E_F_rotem_sela.png"
NA,"E_F_galit_gutman.png","E_F_shiri.png",NA,NA,NA,NA,NA,"0.377623558044434",NA,NA,NA,NA,NA,NA,NA,NA,NA,FALSE,"SGPT","E_F_galit_gutman.png E_F_shiri.png"
NA,"E_F_galit_gutman.png","E_M_asi.png",NA,NA,NA,NA,NA,"0.317276000976562",NA,NA,NA,NA,NA,NA,NA,NA,NA,FALSE,"SGPT","E_F_galit_gutman.png E_M_asi.png"
NA,"E_F_galit_gutman.png","E_M_danker.png",NA,NA,NA,NA,NA,"0.415697872638702",NA,NA,NA,NA,NA,NA,NA,NA,NA,FALSE,"SGPT","E_F_galit_gutman.png E_M_danker.png"
NA,"E_F_galit_gutman.png","E_M_ido.png",NA,NA,NA,NA,NA,"0.418968141078949",NA,NA,NA,NA,NA,NA,NA,NA,NA,FALSE,"SGPT","E_F_galit_gutman.png E_M_ido.png"
NA,"E_F_galit_gutman.png","E_M_liorA.png",NA,NA,NA,NA,NA,"0.493536770343781",NA,NA,NA,NA,NA,NA,NA,NA,NA,FALSE,"SGPT","E_F_galit_gutman.png E_M_liorA.png"
NA,"E_F_galit_gutman.png","E_M_yuda.png",NA,NA,NA,NA,NA,"0.351787507534027",NA,NA,NA,NA,NA,NA,NA,NA,NA,FALSE,"SGPT","E_F_galit_gutman.png E_M_yuda.png"
NA,"E_F_galit_gutman.png","P_F_michaeli.png",NA,NA,NA,NA,NA,"0.471367597579956",NA,NA,NA,NA,NA,NA,NA,NA,NA,FALSE,"SGPT","E_F_galit_gutman.png P_F_michaeli.png"
NA,"E_F_galit_gutman.png","P_F_regev.png",NA,NA,NA,NA,NA,"0.482118606567383",NA,NA,NA,NA,NA,NA,NA,NA,NA,FALSE,"SGPT","E_F_galit_gutman.png P_F_regev.png"
NA,"E_F_galit_gutman.png","P_F_shaked.png",NA,NA,NA,NA,NA,"0.508574664592743",NA,NA,NA,NA,NA,NA,NA,NA,NA,FALSE,"SGPT","E_F_galit_gutman.png P_F_shaked.png"
NA,"E_F_galit_gutman.png","P_F_staiv.png",NA,NA,NA,NA,NA,"0.461565017700195",NA,NA,NA,NA,NA,NA,NA,NA,NA,FALSE,"SGPT","E_F_galit_gutman.png P_F_staiv.png"
NA,"E_F_galit_gutman.png","P_M_gantz.png",NA,NA,NA,NA,NA,"0.453370451927185",NA,NA,NA,NA,NA,NA,NA,NA,NA,FALSE,"SGPT","E_F_galit_gutman.png P_M_gantz.png"
NA,"E_F_galit_gutman.png","P_M_lapid.png",NA,NA,NA,NA,NA,"0.433209717273712",NA,NA,NA,NA,NA,NA,NA,NA,NA,FALSE,"SGPT","E_F_galit_gutman.png P_M_lapid.png"
NA,"E_F_galit_gutman.png","P_M_benet.png",NA,NA,NA,NA,NA,"0.598304510116577",NA,NA,NA,NA,NA,NA,NA,NA,NA,FALSE,"SGPT","E_F_galit_gutman.png P_M_benet.png"
NA,"E_F_galit_gutman.png","P_M_buji.png",NA,NA,NA,NA,NA,"0.421813607215881",NA,NA,NA,NA,NA,NA,NA,NA,NA,FALSE,"SGPT","E_F_galit_gutman.png P_M_buji.png"
NA,"E_F_galit_gutman.png","P_M_saar.png",NA,NA,NA,NA,NA,"0.568254709243774",NA,NA,NA,NA,NA,NA,NA,NA,NA,FALSE,"SGPT","E_F_galit_gutman.png P_M_saar.png"
NA,"E_F_galit_gutman.png","P_M_smut.png",NA,NA,NA,NA,NA,"0.484666168689728",NA,NA,NA,NA,NA,NA,NA,NA,NA,FALSE,"SGPT","E_F_galit_gutman.png P_M_smut.png"
NA,"E_F_ilanit.png","E_F_ninet.png",NA,NA,NA,NA,NA,"0.297626674175262",NA,NA,NA,NA,NA,NA,NA,NA,NA,FALSE,"SGPT","E_F_ilanit.png E_F_ninet.png"
NA,"E_F_ilanit.png","E_F_rotem_sela.png",NA,NA,NA,NA,NA,"0.253865659236908",NA,NA,NA,NA,NA,NA,NA,NA,NA,FALSE,"SGPT","E_F_ilanit.png E_F_rotem_sela.png"
NA,"E_F_ilanit.png","E_F_shiri.png",NA,NA,NA,NA,NA,"0.312627792358398",NA,NA,NA,NA,NA,NA,NA,NA,NA,FALSE,"SGPT","E_F_ilanit.png E_F_shiri.png"
NA,"E_F_ilanit.png","E_M_asi.png",NA,NA,NA,NA,NA,"0.286078929901123",NA,NA,NA,NA,NA,NA,NA,NA,NA,FALSE,"SGPT","E_F_ilanit.png E_M_asi.png"
NA,"E_F_ilanit.png","E_M_danker.png",NA,NA,NA,NA,NA,"0.321760594844818",NA,NA,NA,NA,NA,NA,NA,NA,NA,FALSE,"SGPT","E_F_ilanit.png E_M_danker.png"
NA,"E_F_ilanit.png","E_M_ido.png",NA,NA,NA,NA,NA,"0.413246870040894",NA,NA,NA,NA,NA,NA,NA,NA,NA,FALSE,"SGPT","E_F_ilanit.png E_M_ido.png"
NA,"E_F_ilanit.png","E_M_liorA.png",NA,NA,NA,NA,NA,"0.409684062004089",NA,NA,NA,NA,NA,NA,NA,NA,NA,FALSE,"SGPT","E_F_ilanit.png E_M_liorA.png"
NA,"E_F_ilanit.png","E_M_yuda.png",NA,NA,NA,NA,NA,"0.213677942752838",NA,NA,NA,NA,NA,NA,NA,NA,NA,FALSE,"SGPT","E_F_ilanit.png E_M_yuda.png"
NA,"E_F_ilanit.png","P_F_michaeli.png",NA,NA,NA,NA,NA,"0.411500096321106",NA,NA,NA,NA,NA,NA,NA,NA,NA,FALSE,"SGPT","E_F_ilanit.png P_F_michaeli.png"
NA,"E_F_ilanit.png","P_F_regev.png",NA,NA,NA,NA,NA,"0.473583817481995",NA,NA,NA,NA,NA,NA,NA,NA,NA,FALSE,"SGPT","E_F_ilanit.png P_F_regev.png"
NA,"E_F_ilanit.png","P_F_shaked.png",NA,NA,NA,NA,NA,"0.440846800804138",NA,NA,NA,NA,NA,NA,NA,NA,NA,FALSE,"SGPT","E_F_ilanit.png P_F_shaked.png"
NA,"E_F_ilanit.png","P_F_staiv.png",NA,NA,NA,NA,NA,"0.394070267677307",NA,NA,NA,NA,NA,NA,NA,NA,NA,FALSE,"SGPT","E_F_ilanit.png P_F_staiv.png"
NA,"E_F_ilanit.png","P_M_gantz.png",NA,NA,NA,NA,NA,"0.577401518821716",NA,NA,NA,NA,NA,NA,NA,NA,NA,FALSE,"SGPT","E_F_ilanit.png P_M_gantz.png"
NA,"E_F_ilanit.png","P_M_lapid.png",NA,NA,NA,NA,NA,"0.345060229301453",NA,NA,NA,NA,NA,NA,NA,NA,NA,FALSE,"SGPT","E_F_ilanit.png P_M_lapid.png"
NA,"E_F_ilanit.png","P_M_benet.png",NA,NA,NA,NA,NA,"0.561788320541382",NA,NA,NA,NA,NA,NA,NA,NA,NA,FALSE,"SGPT","E_F_ilanit.png P_M_benet.png"
NA,"E_F_ilanit.png","P_M_buji.png",NA,NA,NA,NA,NA,"0.449665486812592",NA,NA,NA,NA,NA,NA,NA,NA,NA,FALSE,"SGPT","E_F_ilanit.png P_M_buji.png"
NA,"E_F_ilanit.png","P_M_saar.png",NA,NA,NA,NA,NA,"0.575641512870789",NA,NA,NA,NA,NA,NA,NA,NA,NA,FALSE,"SGPT","E_F_ilanit.png P_M_saar.png"
NA,"E_F_ilanit.png","P_M_smut.png",NA,NA,NA,NA,NA,"0.486608445644379",NA,NA,NA,NA,NA,NA,NA,NA,NA,FALSE,"SGPT","E_F_ilanit.png P_M_smut.png"
NA,"E_F_ninet.png","E_F_rotem_sela.png",NA,NA,NA,NA,NA,"0.305686414241791",NA,NA,NA,NA,NA,NA,NA,NA,NA,FALSE,"SGPT","E_F_ninet.png E_F_rotem_sela.png"
NA,"E_F_ninet.png","E_F_shiri.png",NA,NA,NA,NA,NA,"0.295306146144867",NA,NA,NA,NA,NA,NA,NA,NA,NA,FALSE,"SGPT","E_F_ninet.png E_F_shiri.png"
NA,"E_F_ninet.png","E_M_asi.png",NA,NA,NA,NA,NA,"0.387051820755005",NA,NA,NA,NA,NA,NA,NA,NA,NA,FALSE,"SGPT","E_F_ninet.png E_M_asi.png"
NA,"E_F_ninet.png","E_M_danker.png",NA,NA,NA,NA,NA,"0.415382623672485",NA,NA,NA,NA,NA,NA,NA,NA,NA,FALSE,"SGPT","E_F_ninet.png E_M_danker.png"
NA,"E_F_ninet.png","E_M_ido.png",NA,NA,NA,NA,NA,"0.465165972709656",NA,NA,NA,NA,NA,NA,NA,NA,NA,FALSE,"SGPT","E_F_ninet.png E_M_ido.png"
NA,"E_F_ninet.png","E_M_liorA.png",NA,NA,NA,NA,NA,"0.462014675140381",NA,NA,NA,NA,NA,NA,NA,NA,NA,FALSE,"SGPT","E_F_ninet.png E_M_liorA.png"
NA,"E_F_ninet.png","E_M_yuda.png",NA,NA,NA,NA,NA,"0.396275341510773",NA,NA,NA,NA,NA,NA,NA,NA,NA,FALSE,"SGPT","E_F_ninet.png E_M_yuda.png"
NA,"E_F_ninet.png","P_F_michaeli.png",NA,NA,NA,NA,NA,"0.504336833953857",NA,NA,NA,NA,NA,NA,NA,NA,NA,FALSE,"SGPT","E_F_ninet.png P_F_michaeli.png"
NA,"E_F_ninet.png","P_F_regev.png",NA,NA,NA,NA,NA,"0.653967142105103",NA,NA,NA,NA,NA,NA,NA,NA,NA,FALSE,"SGPT","E_F_ninet.png P_F_regev.png"
NA,"E_F_ninet.png","P_F_shaked.png",NA,NA,NA,NA,NA,"0.584372401237488",NA,NA,NA,NA,NA,NA,NA,NA,NA,FALSE,"SGPT","E_F_ninet.png P_F_shaked.png"
NA,"E_F_ninet.png","P_F_staiv.png",NA,NA,NA,NA,NA,"0.536993682384491",NA,NA,NA,NA,NA,NA,NA,NA,NA,FALSE,"SGPT","E_F_ninet.png P_F_staiv.png"
NA,"E_F_ninet.png","P_M_gantz.png",NA,NA,NA,NA,NA,"0.647108912467957",NA,NA,NA,NA,NA,NA,NA,NA,NA,FALSE,"SGPT","E_F_ninet.png P_M_gantz.png"
NA,"E_F_ninet.png","P_M_lapid.png",NA,NA,NA,NA,NA,"0.496727228164673",NA,NA,NA,NA,NA,NA,NA,NA,NA,FALSE,"SGPT","E_F_ninet.png P_M_lapid.png"
NA,"E_F_ninet.png","P_M_benet.png",NA,NA,NA,NA,NA,"0.561817526817322",NA,NA,NA,NA,NA,NA,NA,NA,NA,FALSE,"SGPT","E_F_ninet.png P_M_benet.png"
NA,"E_F_ninet.png","P_M_buji.png",NA,NA,NA,NA,NA,"0.594597280025482",NA,NA,NA,NA,NA,NA,NA,NA,NA,FALSE,"SGPT","E_F_ninet.png P_M_buji.png"
NA,"E_F_ninet.png","P_M_saar.png",NA,NA,NA,NA,NA,"0.651721596717834",NA,NA,NA,NA,NA,NA,NA,NA,NA,FALSE,"SGPT","E_F_ninet.png P_M_saar.png"
NA,"E_F_ninet.png","P_M_smut.png",NA,NA,NA,NA,NA,"0.635591685771942",NA,NA,NA,NA,NA,NA,NA,NA,NA,FALSE,"SGPT","E_F_ninet.png P_M_smut.png"
NA,"E_F_rotem_sela.png","E_F_shiri.png",NA,NA,NA,NA,NA,"0.311345458030701",NA,NA,NA,NA,NA,NA,NA,NA,NA,FALSE,"SGPT","E_F_rotem_sela.png E_F_shiri.png"
NA,"E_F_rotem_sela.png","E_M_asi.png",NA,NA,NA,NA,NA,"0.317022562026978",NA,NA,NA,NA,NA,NA,NA,NA,NA,FALSE,"SGPT","E_F_rotem_sela.png E_M_asi.png"
NA,"E_F_rotem_sela.png","E_M_danker.png",NA,NA,NA,NA,NA,"0.425878643989563",NA,NA,NA,NA,NA,NA,NA,NA,NA,FALSE,"SGPT","E_F_rotem_sela.png E_M_danker.png"
NA,"E_F_rotem_sela.png","E_M_ido.png",NA,NA,NA,NA,NA,"0.423546254634857",NA,NA,NA,NA,NA,NA,NA,NA,NA,FALSE,"SGPT","E_F_rotem_sela.png E_M_ido.png"
NA,"E_F_rotem_sela.png","E_M_liorA.png",NA,NA,NA,NA,NA,"0.414552330970764",NA,NA,NA,NA,NA,NA,NA,NA,NA,FALSE,"SGPT","E_F_rotem_sela.png E_M_liorA.png"
NA,"E_F_rotem_sela.png","E_M_yuda.png",NA,NA,NA,NA,NA,"0.302583456039429",NA,NA,NA,NA,NA,NA,NA,NA,NA,FALSE,"SGPT","E_F_rotem_sela.png E_M_yuda.png"
NA,"E_F_rotem_sela.png","P_F_michaeli.png",NA,NA,NA,NA,NA,"0.543907821178436",NA,NA,NA,NA,NA,NA,NA,NA,NA,FALSE,"SGPT","E_F_rotem_sela.png P_F_michaeli.png"
NA,"E_F_rotem_sela.png","P_F_regev.png",NA,NA,NA,NA,NA,"0.557956457138062",NA,NA,NA,NA,NA,NA,NA,NA,NA,FALSE,"SGPT","E_F_rotem_sela.png P_F_regev.png"
NA,"E_F_rotem_sela.png","P_F_shaked.png",NA,NA,NA,NA,NA,"0.446528315544128",NA,NA,NA,NA,NA,NA,NA,NA,NA,FALSE,"SGPT","E_F_rotem_sela.png P_F_shaked.png"
NA,"E_F_rotem_sela.png","P_F_staiv.png",NA,NA,NA,NA,NA,"0.453445017337799",NA,NA,NA,NA,NA,NA,NA,NA,NA,FALSE,"SGPT","E_F_rotem_sela.png P_F_staiv.png"
NA,"E_F_rotem_sela.png","P_M_gantz.png",NA,NA,NA,NA,NA,"0.623235940933228",NA,NA,NA,NA,NA,NA,NA,NA,NA,FALSE,"SGPT","E_F_rotem_sela.png P_M_gantz.png"
NA,"E_F_rotem_sela.png","P_M_lapid.png",NA,NA,NA,NA,NA,"0.458825528621674",NA,NA,NA,NA,NA,NA,NA,NA,NA,FALSE,"SGPT","E_F_rotem_sela.png P_M_lapid.png"
NA,"E_F_rotem_sela.png","P_M_benet.png",NA,NA,NA,NA,NA,"0.635907709598541",NA,NA,NA,NA,NA,NA,NA,NA,NA,FALSE,"SGPT","E_F_rotem_sela.png P_M_benet.png"
NA,"E_F_rotem_sela.png","P_M_buji.png",NA,NA,NA,NA,NA,"0.562542319297791",NA,NA,NA,NA,NA,NA,NA,NA,NA,FALSE,"SGPT","E_F_rotem_sela.png P_M_buji.png"
NA,"E_F_rotem_sela.png","P_M_saar.png",NA,NA,NA,NA,NA,"0.540908098220825",NA,NA,NA,NA,NA,NA,NA,NA,NA,FALSE,"SGPT","E_F_rotem_sela.png P_M_saar.png"
NA,"E_F_rotem_sela.png","P_M_smut.png",NA,NA,NA,NA,NA,"0.524003148078918",NA,NA,NA,NA,NA,NA,NA,NA,NA,FALSE,"SGPT","E_F_rotem_sela.png P_M_smut.png"
NA,"E_F_shiri.png","E_M_asi.png",NA,NA,NA,NA,NA,"0.409874677658081",NA,NA,NA,NA,NA,NA,NA,NA,NA,FALSE,"SGPT","E_F_shiri.png E_M_asi.png"
NA,"E_F_shiri.png","E_M_danker.png",NA,NA,NA,NA,NA,"0.420113682746887",NA,NA,NA,NA,NA,NA,NA,NA,NA,FALSE,"SGPT","E_F_shiri.png E_M_danker.png"
NA,"E_F_shiri.png","E_M_ido.png",NA,NA,NA,NA,NA,"0.438080191612244",NA,NA,NA,NA,NA,NA,NA,NA,NA,FALSE,"SGPT","E_F_shiri.png E_M_ido.png"
NA,"E_F_shiri.png","E_M_liorA.png",NA,NA,NA,NA,NA,"0.50372850894928",NA,NA,NA,NA,NA,NA,NA,NA,NA,FALSE,"SGPT","E_F_shiri.png E_M_liorA.png"
NA,"E_F_shiri.png","E_M_yuda.png",NA,NA,NA,NA,NA,"0.410544812679291",NA,NA,NA,NA,NA,NA,NA,NA,NA,FALSE,"SGPT","E_F_shiri.png E_M_yuda.png"
NA,"E_F_shiri.png","P_F_michaeli.png",NA,NA,NA,NA,NA,"0.433656096458435",NA,NA,NA,NA,NA,NA,NA,NA,NA,FALSE,"SGPT","E_F_shiri.png P_F_michaeli.png"
NA,"E_F_shiri.png","P_F_regev.png",NA,NA,NA,NA,NA,"0.537314653396606",NA,NA,NA,NA,NA,NA,NA,NA,NA,FALSE,"SGPT","E_F_shiri.png P_F_regev.png"
NA,"E_F_shiri.png","P_F_shaked.png",NA,NA,NA,NA,NA,"0.430615425109863",NA,NA,NA,NA,NA,NA,NA,NA,NA,FALSE,"SGPT","E_F_shiri.png P_F_shaked.png"
NA,"E_F_shiri.png","P_F_staiv.png",NA,NA,NA,NA,NA,"0.418609261512756",NA,NA,NA,NA,NA,NA,NA,NA,NA,FALSE,"SGPT","E_F_shiri.png P_F_staiv.png"
NA,"E_F_shiri.png","P_M_gantz.png",NA,NA,NA,NA,NA,"0.593816578388214",NA,NA,NA,NA,NA,NA,NA,NA,NA,FALSE,"SGPT","E_F_shiri.png P_M_gantz.png"
NA,"E_F_shiri.png","P_M_lapid.png",NA,NA,NA,NA,NA,"0.501537442207336",NA,NA,NA,NA,NA,NA,NA,NA,NA,FALSE,"SGPT","E_F_shiri.png P_M_lapid.png"
NA,"E_F_shiri.png","P_M_benet.png",NA,NA,NA,NA,NA,"0.635291755199432",NA,NA,NA,NA,NA,NA,NA,NA,NA,FALSE,"SGPT","E_F_shiri.png P_M_benet.png"
NA,"E_F_shiri.png","P_M_buji.png",NA,NA,NA,NA,NA,"0.593903779983521",NA,NA,NA,NA,NA,NA,NA,NA,NA,FALSE,"SGPT","E_F_shiri.png P_M_buji.png"
NA,"E_F_shiri.png","P_M_saar.png",NA,NA,NA,NA,NA,"0.533906698226929",NA,NA,NA,NA,NA,NA,NA,NA,NA,FALSE,"SGPT","E_F_shiri.png P_M_saar.png"
NA,"E_F_shiri.png","P_M_smut.png",NA,NA,NA,NA,NA,"0.515427231788635",NA,NA,NA,NA,NA,NA,NA,NA,NA,FALSE,"SGPT","E_F_shiri.png P_M_smut.png"
NA,"E_M_asi.png","E_M_danker.png",NA,NA,NA,NA,NA,"0.380809605121613",NA,NA,NA,NA,NA,NA,NA,NA,NA,FALSE,"SGPT","E_M_asi.png E_M_danker.png"
NA,"E_M_asi.png","E_M_ido.png",NA,NA,NA,NA,NA,"0.403803110122681",NA,NA,NA,NA,NA,NA,NA,NA,NA,FALSE,"SGPT","E_M_asi.png E_M_ido.png"
NA,"E_M_asi.png","E_M_liorA.png",NA,NA,NA,NA,NA,"0.481185495853424",NA,NA,NA,NA,NA,NA,NA,NA,NA,FALSE,"SGPT","E_M_asi.png E_M_liorA.png"
NA,"E_M_asi.png","E_M_yuda.png",NA,NA,NA,NA,NA,"0.33960348367691",NA,NA,NA,NA,NA,NA,NA,NA,NA,FALSE,"SGPT","E_M_asi.png E_M_yuda.png"
NA,"E_M_asi.png","P_F_michaeli.png",NA,NA,NA,NA,NA,"0.495050191879272",NA,NA,NA,NA,NA,NA,NA,NA,NA,FALSE,"SGPT","E_M_asi.png P_F_michaeli.png"
NA,"E_M_asi.png","P_F_regev.png",NA,NA,NA,NA,NA,"0.590993404388428",NA,NA,NA,NA,NA,NA,NA,NA,NA,FALSE,"SGPT","E_M_asi.png P_F_regev.png"
NA,"E_M_asi.png","P_F_shaked.png",NA,NA,NA,NA,NA,"0.510567486286163",NA,NA,NA,NA,NA,NA,NA,NA,NA,FALSE,"SGPT","E_M_asi.png P_F_shaked.png"
NA,"E_M_asi.png","P_F_staiv.png",NA,NA,NA,NA,NA,"0.525277018547058",NA,NA,NA,NA,NA,NA,NA,NA,NA,FALSE,"SGPT","E_M_asi.png P_F_staiv.png"
NA,"E_M_asi.png","P_M_gantz.png",NA,NA,NA,NA,NA,"0.548760294914246",NA,NA,NA,NA,NA,NA,NA,NA,NA,FALSE,"SGPT","E_M_asi.png P_M_gantz.png"
NA,"E_M_asi.png","P_M_lapid.png",NA,NA,NA,NA,NA,"0.488558828830719",NA,NA,NA,NA,NA,NA,NA,NA,NA,FALSE,"SGPT","E_M_asi.png P_M_lapid.png"
NA,"E_M_asi.png","P_M_benet.png",NA,NA,NA,NA,NA,"0.624589443206787",NA,NA,NA,NA,NA,NA,NA,NA,NA,FALSE,"SGPT","E_M_asi.png P_M_benet.png"
NA,"E_M_asi.png","P_M_buji.png",NA,NA,NA,NA,NA,"0.504594802856445",NA,NA,NA,NA,NA,NA,NA,NA,NA,FALSE,"SGPT","E_M_asi.png P_M_buji.png"
NA,"E_M_asi.png","P_M_saar.png",NA,NA,NA,NA,NA,"0.569849610328674",NA,NA,NA,NA,NA,NA,NA,NA,NA,FALSE,"SGPT","E_M_asi.png P_M_saar.png"
NA,"E_M_asi.png","P_M_smut.png",NA,NA,NA,NA,NA,"0.47658509016037",NA,NA,NA,NA,NA,NA,NA,NA,NA,FALSE,"SGPT","E_M_asi.png P_M_smut.png"
NA,"E_M_danker.png","E_M_ido.png",NA,NA,NA,NA,NA,"0.296432375907898",NA,NA,NA,NA,NA,NA,NA,NA,NA,FALSE,"SGPT","E_M_danker.png E_M_ido.png"
NA,"E_M_danker.png","E_M_liorA.png",NA,NA,NA,NA,NA,"0.402336478233337",NA,NA,NA,NA,NA,NA,NA,NA,NA,FALSE,"SGPT","E_M_danker.png E_M_liorA.png"
NA,"E_M_danker.png","E_M_yuda.png",NA,NA,NA,NA,NA,"0.38347715139389",NA,NA,NA,NA,NA,NA,NA,NA,NA,FALSE,"SGPT","E_M_danker.png E_M_yuda.png"
NA,"E_M_danker.png","P_F_michaeli.png",NA,NA,NA,NA,NA,"0.570553660392761",NA,NA,NA,NA,NA,NA,NA,NA,NA,FALSE,"SGPT","E_M_danker.png P_F_michaeli.png"
NA,"E_M_danker.png","P_F_regev.png",NA,NA,NA,NA,NA,"0.583556771278381",NA,NA,NA,NA,NA,NA,NA,NA,NA,FALSE,"SGPT","E_M_danker.png P_F_regev.png"
NA,"E_M_danker.png","P_F_shaked.png",NA,NA,NA,NA,NA,"0.542003989219666",NA,NA,NA,NA,NA,NA,NA,NA,NA,FALSE,"SGPT","E_M_danker.png P_F_shaked.png"
NA,"E_M_danker.png","P_F_staiv.png",NA,NA,NA,NA,NA,"0.516995906829834",NA,NA,NA,NA,NA,NA,NA,NA,NA,FALSE,"SGPT","E_M_danker.png P_F_staiv.png"
NA,"E_M_danker.png","P_M_gantz.png",NA,NA,NA,NA,NA,"0.566960036754608",NA,NA,NA,NA,NA,NA,NA,NA,NA,FALSE,"SGPT","E_M_danker.png P_M_gantz.png"
NA,"E_M_danker.png","P_M_lapid.png",NA,NA,NA,NA,NA,"0.372439682483673",NA,NA,NA,NA,NA,NA,NA,NA,NA,FALSE,"SGPT","E_M_danker.png P_M_lapid.png"
NA,"E_M_danker.png","P_M_benet.png",NA,NA,NA,NA,NA,"0.594584107398987",NA,NA,NA,NA,NA,NA,NA,NA,NA,FALSE,"SGPT","E_M_danker.png P_M_benet.png"
NA,"E_M_danker.png","P_M_buji.png",NA,NA,NA,NA,NA,"0.502986311912537",NA,NA,NA,NA,NA,NA,NA,NA,NA,FALSE,"SGPT","E_M_danker.png P_M_buji.png"
NA,"E_M_danker.png","P_M_saar.png",NA,NA,NA,NA,NA,"0.53616189956665",NA,NA,NA,NA,NA,NA,NA,NA,NA,FALSE,"SGPT","E_M_danker.png P_M_saar.png"
NA,"E_M_danker.png","P_M_smut.png",NA,NA,NA,NA,NA,"0.432981789112091",NA,NA,NA,NA,NA,NA,NA,NA,NA,FALSE,"SGPT","E_M_danker.png P_M_smut.png"
NA,"E_M_ido.png","E_M_liorA.png",NA,NA,NA,NA,NA,"0.401870012283325",NA,NA,NA,NA,NA,NA,NA,NA,NA,FALSE,"SGPT","E_M_ido.png E_M_liorA.png"
NA,"E_M_ido.png","E_M_yuda.png",NA,NA,NA,NA,NA,"0.477624893188477",NA,NA,NA,NA,NA,NA,NA,NA,NA,FALSE,"SGPT","E_M_ido.png E_M_yuda.png"
NA,"E_M_ido.png","P_F_michaeli.png",NA,NA,NA,NA,NA,"0.652040600776672",NA,NA,NA,NA,NA,NA,NA,NA,NA,FALSE,"SGPT","E_M_ido.png P_F_michaeli.png"
NA,"E_M_ido.png","P_F_regev.png",NA,NA,NA,NA,NA,"0.590136766433716",NA,NA,NA,NA,NA,NA,NA,NA,NA,FALSE,"SGPT","E_M_ido.png P_F_regev.png"
NA,"E_M_ido.png","P_F_shaked.png",NA,NA,NA,NA,NA,"0.600960969924927",NA,NA,NA,NA,NA,NA,NA,NA,NA,FALSE,"SGPT","E_M_ido.png P_F_shaked.png"
NA,"E_M_ido.png","P_F_staiv.png",NA,NA,NA,NA,NA,"0.545083940029144",NA,NA,NA,NA,NA,NA,NA,NA,NA,FALSE,"SGPT","E_M_ido.png P_F_staiv.png"
NA,"E_M_ido.png","P_M_gantz.png",NA,NA,NA,NA,NA,"0.663077235221863",NA,NA,NA,NA,NA,NA,NA,NA,NA,FALSE,"SGPT","E_M_ido.png P_M_gantz.png"
NA,"E_M_ido.png","P_M_lapid.png",NA,NA,NA,NA,NA,"0.432201743125916",NA,NA,NA,NA,NA,NA,NA,NA,NA,FALSE,"SGPT","E_M_ido.png P_M_lapid.png"
NA,"E_M_ido.png","P_M_benet.png",NA,NA,NA,NA,NA,"0.628971576690674",NA,NA,NA,NA,NA,NA,NA,NA,NA,FALSE,"SGPT","E_M_ido.png P_M_benet.png"
NA,"E_M_ido.png","P_M_buji.png",NA,NA,NA,NA,NA,"0.532427549362183",NA,NA,NA,NA,NA,NA,NA,NA,NA,FALSE,"SGPT","E_M_ido.png P_M_buji.png"
NA,"E_M_ido.png","P_M_saar.png",NA,NA,NA,NA,NA,"0.662897229194641",NA,NA,NA,NA,NA,NA,NA,NA,NA,FALSE,"SGPT","E_M_ido.png P_M_saar.png"
NA,"E_M_ido.png","P_M_smut.png",NA,NA,NA,NA,NA,"0.53558349609375",NA,NA,NA,NA,NA,NA,NA,NA,NA,FALSE,"SGPT","E_M_ido.png P_M_smut.png"
NA,"E_M_liorA.png","E_M_yuda.png",NA,NA,NA,NA,NA,"0.331476807594299",NA,NA,NA,NA,NA,NA,NA,NA,NA,FALSE,"SGPT","E_M_liorA.png E_M_yuda.png"
NA,"E_M_liorA.png","P_F_michaeli.png",NA,NA,NA,NA,NA,"0.675115764141083",NA,NA,NA,NA,NA,NA,NA,NA,NA,FALSE,"SGPT","E_M_liorA.png P_F_michaeli.png"
NA,"E_M_liorA.png","P_F_regev.png",NA,NA,NA,NA,NA,"0.664096355438232",NA,NA,NA,NA,NA,NA,NA,NA,NA,FALSE,"SGPT","E_M_liorA.png P_F_regev.png"
NA,"E_M_liorA.png","P_F_shaked.png",NA,NA,NA,NA,NA,"0.59506618976593",NA,NA,NA,NA,NA,NA,NA,NA,NA,FALSE,"SGPT","E_M_liorA.png P_F_shaked.png"
NA,"E_M_liorA.png","P_F_staiv.png",NA,NA,NA,NA,NA,"0.619078159332275",NA,NA,NA,NA,NA,NA,NA,NA,NA,FALSE,"SGPT","E_M_liorA.png P_F_staiv.png"
NA,"E_M_liorA.png","P_M_gantz.png",NA,NA,NA,NA,NA,"0.658997237682343",NA,NA,NA,NA,NA,NA,NA,NA,NA,FALSE,"SGPT","E_M_liorA.png P_M_gantz.png"
NA,"E_M_liorA.png","P_M_lapid.png",NA,NA,NA,NA,NA,"0.454538822174072",NA,NA,NA,NA,NA,NA,NA,NA,NA,FALSE,"SGPT","E_M_liorA.png P_M_lapid.png"
NA,"E_M_liorA.png","P_M_benet.png",NA,NA,NA,NA,NA,"0.652294456958771",NA,NA,NA,NA,NA,NA,NA,NA,NA,FALSE,"SGPT","E_M_liorA.png P_M_benet.png"
NA,"E_M_liorA.png","P_M_buji.png",NA,NA,NA,NA,NA,"0.533890128135681",NA,NA,NA,NA,NA,NA,NA,NA,NA,FALSE,"SGPT","E_M_liorA.png P_M_buji.png"
NA,"E_M_liorA.png","P_M_saar.png",NA,NA,NA,NA,NA,"0.629111886024475",NA,NA,NA,NA,NA,NA,NA,NA,NA,FALSE,"SGPT","E_M_liorA.png P_M_saar.png"
NA,"E_M_liorA.png","P_M_smut.png",NA,NA,NA,NA,NA,"0.618274867534637",NA,NA,NA,NA,NA,NA,NA,NA,NA,FALSE,"SGPT","E_M_liorA.png P_M_smut.png"
NA,"E_M_yuda.png","P_F_michaeli.png",NA,NA,NA,NA,NA,"0.532580554485321",NA,NA,NA,NA,NA,NA,NA,NA,NA,FALSE,"SGPT","E_M_yuda.png P_F_michaeli.png"
NA,"E_M_yuda.png","P_F_regev.png",NA,NA,NA,NA,NA,"0.61548924446106",NA,NA,NA,NA,NA,NA,NA,NA,NA,FALSE,"SGPT","E_M_yuda.png P_F_regev.png"
NA,"E_M_yuda.png","P_F_shaked.png",NA,NA,NA,NA,NA,"0.483296096324921",NA,NA,NA,NA,NA,NA,NA,NA,NA,FALSE,"SGPT","E_M_yuda.png P_F_shaked.png"
NA,"E_M_yuda.png","P_F_staiv.png",NA,NA,NA,NA,NA,"0.521671712398529",NA,NA,NA,NA,NA,NA,NA,NA,NA,FALSE,"SGPT","E_M_yuda.png P_F_staiv.png"
NA,"E_M_yuda.png","P_M_gantz.png",NA,NA,NA,NA,NA,"0.571793973445892",NA,NA,NA,NA,NA,NA,NA,NA,NA,FALSE,"SGPT","E_M_yuda.png P_M_gantz.png"
NA,"E_M_yuda.png","P_M_lapid.png",NA,NA,NA,NA,NA,"0.407715380191803",NA,NA,NA,NA,NA,NA,NA,NA,NA,FALSE,"SGPT","E_M_yuda.png P_M_lapid.png"
NA,"E_M_yuda.png","P_M_benet.png",NA,NA,NA,NA,NA,"0.581820666790009",NA,NA,NA,NA,NA,NA,NA,NA,NA,FALSE,"SGPT","E_M_yuda.png P_M_benet.png"
NA,"E_M_yuda.png","P_M_buji.png",NA,NA,NA,NA,NA,"0.496375918388367",NA,NA,NA,NA,NA,NA,NA,NA,NA,FALSE,"SGPT","E_M_yuda.png P_M_buji.png"
NA,"E_M_yuda.png","P_M_saar.png",NA,NA,NA,NA,NA,"0.636817216873169",NA,NA,NA,NA,NA,NA,NA,NA,NA,FALSE,"SGPT","E_M_yuda.png P_M_saar.png"
NA,"E_M_yuda.png","P_M_smut.png",NA,NA,NA,NA,NA,"0.501517593860626",NA,NA,NA,NA,NA,NA,NA,NA,NA,FALSE,"SGPT","E_M_yuda.png P_M_smut.png"
NA,"P_F_michaeli.png","P_F_regev.png",NA,NA,NA,NA,NA,"0.326694965362549",NA,NA,NA,NA,NA,NA,NA,NA,NA,FALSE,"SGPT","P_F_michaeli.png P_F_regev.png"
NA,"P_F_michaeli.png","P_F_shaked.png",NA,NA,NA,NA,NA,"0.409755349159241",NA,NA,NA,NA,NA,NA,NA,NA,NA,FALSE,"SGPT","P_F_michaeli.png P_F_shaked.png"
NA,"P_F_michaeli.png","P_F_staiv.png",NA,NA,NA,NA,NA,"0.420153617858887",NA,NA,NA,NA,NA,NA,NA,NA,NA,FALSE,"SGPT","P_F_michaeli.png P_F_staiv.png"
NA,"P_F_michaeli.png","P_M_gantz.png",NA,NA,NA,NA,NA,"0.454306483268738",NA,NA,NA,NA,NA,NA,NA,NA,NA,FALSE,"SGPT","P_F_michaeli.png P_M_gantz.png"
NA,"P_F_michaeli.png","P_M_lapid.png",NA,NA,NA,NA,NA,"0.411518335342407",NA,NA,NA,NA,NA,NA,NA,NA,NA,FALSE,"SGPT","P_F_michaeli.png P_M_lapid.png"
NA,"P_F_michaeli.png","P_M_benet.png",NA,NA,NA,NA,NA,"0.468575000762939",NA,NA,NA,NA,NA,NA,NA,NA,NA,FALSE,"SGPT","P_F_michaeli.png P_M_benet.png"
NA,"P_F_michaeli.png","P_M_buji.png",NA,NA,NA,NA,NA,"0.549804747104645",NA,NA,NA,NA,NA,NA,NA,NA,NA,FALSE,"SGPT","P_F_michaeli.png P_M_buji.png"
NA,"P_F_michaeli.png","P_M_saar.png",NA,NA,NA,NA,NA,"0.458605766296387",NA,NA,NA,NA,NA,NA,NA,NA,NA,FALSE,"SGPT","P_F_michaeli.png P_M_saar.png"
NA,"P_F_michaeli.png","P_M_smut.png",NA,NA,NA,NA,NA,"0.38169276714325",NA,NA,NA,NA,NA,NA,NA,NA,NA,FALSE,"SGPT","P_F_michaeli.png P_M_smut.png"
NA,"P_F_regev.png","P_F_shaked.png",NA,NA,NA,NA,NA,"0.350340485572815",NA,NA,NA,NA,NA,NA,NA,NA,NA,FALSE,"SGPT","P_F_regev.png P_F_shaked.png"
NA,"P_F_regev.png","P_F_staiv.png",NA,NA,NA,NA,NA,"0.404680788516998",NA,NA,NA,NA,NA,NA,NA,NA,NA,FALSE,"SGPT","P_F_regev.png P_F_staiv.png"
NA,"P_F_regev.png","P_M_gantz.png",NA,NA,NA,NA,NA,"0.365051865577698",NA,NA,NA,NA,NA,NA,NA,NA,NA,FALSE,"SGPT","P_F_regev.png P_M_gantz.png"
NA,"P_F_regev.png","P_M_lapid.png",NA,NA,NA,NA,NA,"0.378637433052063",NA,NA,NA,NA,NA,NA,NA,NA,NA,FALSE,"SGPT","P_F_regev.png P_M_lapid.png"
NA,"P_F_regev.png","P_M_benet.png",NA,NA,NA,NA,NA,"0.47105747461319",NA,NA,NA,NA,NA,NA,NA,NA,NA,FALSE,"SGPT","P_F_regev.png P_M_benet.png"
NA,"P_F_regev.png","P_M_buji.png",NA,NA,NA,NA,NA,"0.420864105224609",NA,NA,NA,NA,NA,NA,NA,NA,NA,FALSE,"SGPT","P_F_regev.png P_M_buji.png"
NA,"P_F_regev.png","P_M_saar.png",NA,NA,NA,NA,NA,"0.381958067417145",NA,NA,NA,NA,NA,NA,NA,NA,NA,FALSE,"SGPT","P_F_regev.png P_M_saar.png"
NA,"P_F_regev.png","P_M_smut.png",NA,NA,NA,NA,NA,"0.309655249118805",NA,NA,NA,NA,NA,NA,NA,NA,NA,FALSE,"SGPT","P_F_regev.png P_M_smut.png"
NA,"P_F_shaked.png","P_F_staiv.png",NA,NA,NA,NA,NA,"0.289228320121765",NA,NA,NA,NA,NA,NA,NA,NA,NA,FALSE,"SGPT","P_F_shaked.png P_F_staiv.png"
NA,"P_F_shaked.png","P_M_gantz.png",NA,NA,NA,NA,NA,"0.40956711769104",NA,NA,NA,NA,NA,NA,NA,NA,NA,FALSE,"SGPT","P_F_shaked.png P_M_gantz.png"
NA,"P_F_shaked.png","P_M_lapid.png",NA,NA,NA,NA,NA,"0.356998920440674",NA,NA,NA,NA,NA,NA,NA,NA,NA,FALSE,"SGPT","P_F_shaked.png P_M_lapid.png"
NA,"P_F_shaked.png","P_M_benet.png",NA,NA,NA,NA,NA,"0.487424969673157",NA,NA,NA,NA,NA,NA,NA,NA,NA,FALSE,"SGPT","P_F_shaked.png P_M_benet.png"
NA,"P_F_shaked.png","P_M_buji.png",NA,NA,NA,NA,NA,"0.36066335439682",NA,NA,NA,NA,NA,NA,NA,NA,NA,FALSE,"SGPT","P_F_shaked.png P_M_buji.png"
NA,"P_F_shaked.png","P_M_saar.png",NA,NA,NA,NA,NA,"0.370017528533936",NA,NA,NA,NA,NA,NA,NA,NA,NA,FALSE,"SGPT","P_F_shaked.png P_M_saar.png"
NA,"P_F_shaked.png","P_M_smut.png",NA,NA,NA,NA,NA,"0.244447827339172",NA,NA,NA,NA,NA,NA,NA,NA,NA,FALSE,"SGPT","P_F_shaked.png P_M_smut.png"
NA,"P_F_staiv.png","P_M_gantz.png",NA,NA,NA,NA,NA,"0.504373252391815",NA,NA,NA,NA,NA,NA,NA,NA,NA,FALSE,"SGPT","P_F_staiv.png P_M_gantz.png"
NA,"P_F_staiv.png","P_M_lapid.png",NA,NA,NA,NA,NA,"0.338361978530884",NA,NA,NA,NA,NA,NA,NA,NA,NA,FALSE,"SGPT","P_F_staiv.png P_M_lapid.png"
NA,"P_F_staiv.png","P_M_benet.png",NA,NA,NA,NA,NA,"0.513310074806213",NA,NA,NA,NA,NA,NA,NA,NA,NA,FALSE,"SGPT","P_F_staiv.png P_M_benet.png"
NA,"P_F_staiv.png","P_M_buji.png",NA,NA,NA,NA,NA,"0.442660331726074",NA,NA,NA,NA,NA,NA,NA,NA,NA,FALSE,"SGPT","P_F_staiv.png P_M_buji.png"
NA,"P_F_staiv.png","P_M_saar.png",NA,NA,NA,NA,NA,"0.447728276252747",NA,NA,NA,NA,NA,NA,NA,NA,NA,FALSE,"SGPT","P_F_staiv.png P_M_saar.png"
NA,"P_F_staiv.png","P_M_smut.png",NA,NA,NA,NA,NA,"0.342702150344849",NA,NA,NA,NA,NA,NA,NA,NA,NA,FALSE,"SGPT","P_F_staiv.png P_M_smut.png"
NA,"P_M_gantz.png","P_M_lapid.png",NA,NA,NA,NA,NA,"0.385998964309692",NA,NA,NA,NA,NA,NA,NA,NA,NA,FALSE,"SGPT","P_M_gantz.png P_M_lapid.png"
NA,"P_M_gantz.png","P_M_benet.png",NA,NA,NA,NA,NA,"0.331458449363708",NA,NA,NA,NA,NA,NA,NA,NA,NA,FALSE,"SGPT","P_M_benet.png P_M_gantz.png"
NA,"P_M_gantz.png","P_M_buji.png",NA,NA,NA,NA,NA,"0.352672278881073",NA,NA,NA,NA,NA,NA,NA,NA,NA,FALSE,"SGPT","P_M_buji.png P_M_gantz.png"
NA,"P_M_gantz.png","P_M_saar.png",NA,NA,NA,NA,NA,"0.32550311088562",NA,NA,NA,NA,NA,NA,NA,NA,NA,FALSE,"SGPT","P_M_gantz.png P_M_saar.png"
NA,"P_M_gantz.png","P_M_smut.png",NA,NA,NA,NA,NA,"0.367954969406128",NA,NA,NA,NA,NA,NA,NA,NA,NA,FALSE,"SGPT","P_M_gantz.png P_M_smut.png"
NA,"P_M_lapid.png","P_M_benet.png",NA,NA,NA,NA,NA,"0.388858914375305",NA,NA,NA,NA,NA,NA,NA,NA,NA,FALSE,"SGPT","P_M_benet.png P_M_lapid.png"
NA,"P_M_lapid.png","P_M_buji.png",NA,NA,NA,NA,NA,"0.322523176670074",NA,NA,NA,NA,NA,NA,NA,NA,NA,FALSE,"SGPT","P_M_buji.png P_M_lapid.png"
NA,"P_M_lapid.png","P_M_saar.png",NA,NA,NA,NA,NA,"0.409685134887695",NA,NA,NA,NA,NA,NA,NA,NA,NA,FALSE,"SGPT","P_M_lapid.png P_M_saar.png"
NA,"P_M_lapid.png","P_M_smut.png",NA,NA,NA,NA,NA,"0.32658725976944",NA,NA,NA,NA,NA,NA,NA,NA,NA,FALSE,"SGPT","P_M_lapid.png P_M_smut.png"
NA,"P_M_benet.png","P_M_buji.png",NA,NA,NA,NA,NA,"0.481059074401855",NA,NA,NA,NA,NA,NA,NA,NA,NA,FALSE,"SGPT","P_M_benet.png P_M_buji.png"
NA,"P_M_benet.png","P_M_saar.png",NA,NA,NA,NA,NA,"0.449371814727783",NA,NA,NA,NA,NA,NA,NA,NA,NA,FALSE,"SGPT","P_M_benet.png P_M_saar.png"
NA,"P_M_benet.png","P_M_smut.png",NA,NA,NA,NA,NA,"0.450582385063171",NA,NA,NA,NA,NA,NA,NA,NA,NA,FALSE,"SGPT","P_M_benet.png P_M_smut.png"
NA,"P_M_buji.png","P_M_saar.png",NA,NA,NA,NA,NA,"0.426317274570465",NA,NA,NA,NA,NA,NA,NA,NA,NA,FALSE,"SGPT","P_M_buji.png P_M_saar.png"
NA,"P_M_buji.png","P_M_smut.png",NA,NA,NA,NA,NA,"0.290521502494812",NA,NA,NA,NA,NA,NA,NA,NA,NA,FALSE,"SGPT","P_M_buji.png P_M_smut.png"
NA,"P_M_saar.png","P_M_smut.png",NA,NA,NA,NA,NA,"0.304653286933899",NA,NA,NA,NA,NA,NA,NA,NA,NA,FALSE,"SGPT","P_M_saar.png P_M_smut.png"
NA,"E_F_galit_gutman.png","E_F_ilanit.png",NA,NA,NA,NA,NA,"0.795926392",NA,NA,NA,NA,NA,NA,NA,NA,NA,FALSE,"VGG","E_F_galit_gutman.png E_F_ilanit.png"
NA,"E_F_galit_gutman.png","E_F_ninet.png",NA,NA,NA,NA,NA,"0.888835564",NA,NA,NA,NA,NA,NA,NA,NA,NA,FALSE,"VGG","E_F_galit_gutman.png E_F_ninet.png"
NA,"E_F_galit_gutman.png","E_F_rotem_sela.png",NA,NA,NA,NA,NA,"0.852775887",NA,NA,NA,NA,NA,NA,NA,NA,NA,FALSE,"VGG","E_F_galit_gutman.png E_F_rotem_sela.png"
NA,"E_F_galit_gutman.png","E_F_shiri.png",NA,NA,NA,NA,NA,"0.788440928",NA,NA,NA,NA,NA,NA,NA,NA,NA,FALSE,"VGG","E_F_galit_gutman.png E_F_shiri.png"
NA,"E_F_galit_gutman.png","E_M_asi.png",NA,NA,NA,NA,NA,"0.93547602",NA,NA,NA,NA,NA,NA,NA,NA,NA,FALSE,"VGG","E_F_galit_gutman.png E_M_asi.png"
NA,"E_F_galit_gutman.png","E_M_danker.png",NA,NA,NA,NA,NA,"0.925935194",NA,NA,NA,NA,NA,NA,NA,NA,NA,FALSE,"VGG","E_F_galit_gutman.png E_M_danker.png"
NA,"E_F_galit_gutman.png","E_M_ido.png",NA,NA,NA,NA,NA,"0.852137819",NA,NA,NA,NA,NA,NA,NA,NA,NA,FALSE,"VGG","E_F_galit_gutman.png E_M_ido.png"
NA,"E_F_galit_gutman.png","E_M_liorA.png",NA,NA,NA,NA,NA,"0.883670658",NA,NA,NA,NA,NA,NA,NA,NA,NA,FALSE,"VGG","E_F_galit_gutman.png E_M_liorA.png"
NA,"E_F_galit_gutman.png","E_M_yuda.png",NA,NA,NA,NA,NA,"0.918765761",NA,NA,NA,NA,NA,NA,NA,NA,NA,FALSE,"VGG","E_F_galit_gutman.png E_M_yuda.png"
NA,"E_F_galit_gutman.png","P_F_michaeli.png",NA,NA,NA,NA,NA,"0.770283476",NA,NA,NA,NA,NA,NA,NA,NA,NA,FALSE,"VGG","E_F_galit_gutman.png P_F_michaeli.png"
NA,"E_F_galit_gutman.png","P_F_regev.png",NA,NA,NA,NA,NA,"0.879482217",NA,NA,NA,NA,NA,NA,NA,NA,NA,FALSE,"VGG","E_F_galit_gutman.png P_F_regev.png"
NA,"E_F_galit_gutman.png","P_F_shaked.png",NA,NA,NA,NA,NA,"0.810034901",NA,NA,NA,NA,NA,NA,NA,NA,NA,FALSE,"VGG","E_F_galit_gutman.png P_F_shaked.png"
NA,"E_F_galit_gutman.png","P_F_staiv.png",NA,NA,NA,NA,NA,"0.864913091",NA,NA,NA,NA,NA,NA,NA,NA,NA,FALSE,"VGG","E_F_galit_gutman.png P_F_staiv.png"
NA,"E_F_galit_gutman.png","P_M_benet.png",NA,NA,NA,NA,NA,"0.817926481",NA,NA,NA,NA,NA,NA,NA,NA,NA,FALSE,"VGG","E_F_galit_gutman.png P_M_benet.png"
NA,"E_F_galit_gutman.png","P_M_buji.png",NA,NA,NA,NA,NA,"0.911037736",NA,NA,NA,NA,NA,NA,NA,NA,NA,FALSE,"VGG","E_F_galit_gutman.png P_M_buji.png"
NA,"E_F_galit_gutman.png","P_M_gantz.png",NA,NA,NA,NA,NA,"0.886454985",NA,NA,NA,NA,NA,NA,NA,NA,NA,FALSE,"VGG","E_F_galit_gutman.png P_M_gantz.png"
NA,"E_F_galit_gutman.png","P_M_lapid.png",NA,NA,NA,NA,NA,"0.904525876",NA,NA,NA,NA,NA,NA,NA,NA,NA,FALSE,"VGG","E_F_galit_gutman.png P_M_lapid.png"
NA,"E_F_galit_gutman.png","P_M_saar.png",NA,NA,NA,NA,NA,"0.926203996",NA,NA,NA,NA,NA,NA,NA,NA,NA,FALSE,"VGG","E_F_galit_gutman.png P_M_saar.png"
NA,"E_F_galit_gutman.png","P_M_smut.png",NA,NA,NA,NA,NA,"0.912383109",NA,NA,NA,NA,NA,NA,NA,NA,NA,FALSE,"VGG","E_F_galit_gutman.png P_M_smut.png"
NA,"E_F_ilanit.png","E_F_ninet.png",NA,NA,NA,NA,NA,"0.867162392",NA,NA,NA,NA,NA,NA,NA,NA,NA,FALSE,"VGG","E_F_ilanit.png E_F_ninet.png"
NA,"E_F_ilanit.png","E_F_rotem_sela.png",NA,NA,NA,NA,NA,"0.736317992",NA,NA,NA,NA,NA,NA,NA,NA,NA,FALSE,"VGG","E_F_ilanit.png E_F_rotem_sela.png"
NA,"E_F_ilanit.png","E_F_shiri.png",NA,NA,NA,NA,NA,"0.811018258",NA,NA,NA,NA,NA,NA,NA,NA,NA,FALSE,"VGG","E_F_ilanit.png E_F_shiri.png"
NA,"E_F_ilanit.png","E_M_asi.png",NA,NA,NA,NA,NA,"0.904005378",NA,NA,NA,NA,NA,NA,NA,NA,NA,FALSE,"VGG","E_F_ilanit.png E_M_asi.png"
NA,"E_F_ilanit.png","E_M_danker.png",NA,NA,NA,NA,NA,"0.951267153",NA,NA,NA,NA,NA,NA,NA,NA,NA,FALSE,"VGG","E_F_ilanit.png E_M_danker.png"
NA,"E_F_ilanit.png","E_M_ido.png",NA,NA,NA,NA,NA,"0.802493811",NA,NA,NA,NA,NA,NA,NA,NA,NA,FALSE,"VGG","E_F_ilanit.png E_M_ido.png"
NA,"E_F_ilanit.png","E_M_liorA.png",NA,NA,NA,NA,NA,"0.86540474",NA,NA,NA,NA,NA,NA,NA,NA,NA,FALSE,"VGG","E_F_ilanit.png E_M_liorA.png"
NA,"E_F_ilanit.png","E_M_yuda.png",NA,NA,NA,NA,NA,"0.852329448",NA,NA,NA,NA,NA,NA,NA,NA,NA,FALSE,"VGG","E_F_ilanit.png E_M_yuda.png"
NA,"E_F_ilanit.png","P_F_michaeli.png",NA,NA,NA,NA,NA,"0.806853324",NA,NA,NA,NA,NA,NA,NA,NA,NA,FALSE,"VGG","E_F_ilanit.png P_F_michaeli.png"
NA,"E_F_ilanit.png","P_F_regev.png",NA,NA,NA,NA,NA,"0.806072697",NA,NA,NA,NA,NA,NA,NA,NA,NA,FALSE,"VGG","E_F_ilanit.png P_F_regev.png"
NA,"E_F_ilanit.png","P_F_shaked.png",NA,NA,NA,NA,NA,"0.850041673",NA,NA,NA,NA,NA,NA,NA,NA,NA,FALSE,"VGG","E_F_ilanit.png P_F_shaked.png"
NA,"E_F_ilanit.png","P_F_staiv.png",NA,NA,NA,NA,NA,"0.898797281",NA,NA,NA,NA,NA,NA,NA,NA,NA,FALSE,"VGG","E_F_ilanit.png P_F_staiv.png"
NA,"E_F_ilanit.png","P_M_benet.png",NA,NA,NA,NA,NA,"0.854347512",NA,NA,NA,NA,NA,NA,NA,NA,NA,FALSE,"VGG","E_F_ilanit.png P_M_benet.png"
NA,"E_F_ilanit.png","P_M_buji.png",NA,NA,NA,NA,NA,"0.91581288",NA,NA,NA,NA,NA,NA,NA,NA,NA,FALSE,"VGG","E_F_ilanit.png P_M_buji.png"
NA,"E_F_ilanit.png","P_M_gantz.png",NA,NA,NA,NA,NA,"0.922098994",NA,NA,NA,NA,NA,NA,NA,NA,NA,FALSE,"VGG","E_F_ilanit.png P_M_gantz.png"
NA,"E_F_ilanit.png","P_M_lapid.png",NA,NA,NA,NA,NA,"0.891927339",NA,NA,NA,NA,NA,NA,NA,NA,NA,FALSE,"VGG","E_F_ilanit.png P_M_lapid.png"
NA,"E_F_ilanit.png","P_M_saar.png",NA,NA,NA,NA,NA,"0.87834771",NA,NA,NA,NA,NA,NA,NA,NA,NA,FALSE,"VGG","E_F_ilanit.png P_M_saar.png"
NA,"E_F_ilanit.png","P_M_smut.png",NA,NA,NA,NA,NA,"0.896312468",NA,NA,NA,NA,NA,NA,NA,NA,NA,FALSE,"VGG","E_F_ilanit.png P_M_smut.png"
NA,"E_F_ninet.png","E_F_rotem_sela.png",NA,NA,NA,NA,NA,"0.838571563",NA,NA,NA,NA,NA,NA,NA,NA,NA,FALSE,"VGG","E_F_ninet.png E_F_rotem_sela.png"
NA,"E_F_ninet.png","E_F_shiri.png",NA,NA,NA,NA,NA,"0.817035958",NA,NA,NA,NA,NA,NA,NA,NA,NA,FALSE,"VGG","E_F_ninet.png E_F_shiri.png"
NA,"E_F_ninet.png","E_M_asi.png",NA,NA,NA,NA,NA,"0.809035257",NA,NA,NA,NA,NA,NA,NA,NA,NA,FALSE,"VGG","E_F_ninet.png E_M_asi.png"
NA,"E_F_ninet.png","E_M_danker.png",NA,NA,NA,NA,NA,"0.808034286",NA,NA,NA,NA,NA,NA,NA,NA,NA,FALSE,"VGG","E_F_ninet.png E_M_danker.png"
NA,"E_F_ninet.png","E_M_ido.png",NA,NA,NA,NA,NA,"0.914939553",NA,NA,NA,NA,NA,NA,NA,NA,NA,FALSE,"VGG","E_F_ninet.png E_M_ido.png"
NA,"E_F_ninet.png","E_M_liorA.png",NA,NA,NA,NA,NA,"0.890770391",NA,NA,NA,NA,NA,NA,NA,NA,NA,FALSE,"VGG","E_F_ninet.png E_M_liorA.png"
NA,"E_F_ninet.png","E_M_yuda.png",NA,NA,NA,NA,NA,"0.863517329",NA,NA,NA,NA,NA,NA,NA,NA,NA,FALSE,"VGG","E_F_ninet.png E_M_yuda.png"
NA,"E_F_ninet.png","P_F_michaeli.png",NA,NA,NA,NA,NA,"0.845237747",NA,NA,NA,NA,NA,NA,NA,NA,NA,FALSE,"VGG","E_F_ninet.png P_F_michaeli.png"
NA,"E_F_ninet.png","P_F_regev.png",NA,NA,NA,NA,NA,"0.792849749",NA,NA,NA,NA,NA,NA,NA,NA,NA,FALSE,"VGG","E_F_ninet.png P_F_regev.png"
NA,"E_F_ninet.png","P_F_shaked.png",NA,NA,NA,NA,NA,"0.763967857",NA,NA,NA,NA,NA,NA,NA,NA,NA,FALSE,"VGG","E_F_ninet.png P_F_shaked.png"
NA,"E_F_ninet.png","P_F_staiv.png",NA,NA,NA,NA,NA,"0.836720899",NA,NA,NA,NA,NA,NA,NA,NA,NA,FALSE,"VGG","E_F_ninet.png P_F_staiv.png"
NA,"E_F_ninet.png","P_M_benet.png",NA,NA,NA,NA,NA,"0.952196956",NA,NA,NA,NA,NA,NA,NA,NA,NA,FALSE,"VGG","E_F_ninet.png P_M_benet.png"
NA,"E_F_ninet.png","P_M_buji.png",NA,NA,NA,NA,NA,"0.85722658",NA,NA,NA,NA,NA,NA,NA,NA,NA,FALSE,"VGG","E_F_ninet.png P_M_buji.png"
NA,"E_F_ninet.png","P_M_gantz.png",NA,NA,NA,NA,NA,"0.856408462",NA,NA,NA,NA,NA,NA,NA,NA,NA,FALSE,"VGG","E_F_ninet.png P_M_gantz.png"
NA,"E_F_ninet.png","P_M_lapid.png",NA,NA,NA,NA,NA,"0.897102967",NA,NA,NA,NA,NA,NA,NA,NA,NA,FALSE,"VGG","E_F_ninet.png P_M_lapid.png"
NA,"E_F_ninet.png","P_M_saar.png",NA,NA,NA,NA,NA,"0.891035452",NA,NA,NA,NA,NA,NA,NA,NA,NA,FALSE,"VGG","E_F_ninet.png P_M_saar.png"
NA,"E_F_ninet.png","P_M_smut.png",NA,NA,NA,NA,NA,"0.967696879",NA,NA,NA,NA,NA,NA,NA,NA,NA,FALSE,"VGG","E_F_ninet.png P_M_smut.png"
NA,"E_F_rotem_sela.png","E_F_shiri.png",NA,NA,NA,NA,NA,"0.79296501",NA,NA,NA,NA,NA,NA,NA,NA,NA,FALSE,"VGG","E_F_rotem_sela.png E_F_shiri.png"
NA,"E_F_rotem_sela.png","E_M_asi.png",NA,NA,NA,NA,NA,"0.901999272",NA,NA,NA,NA,NA,NA,NA,NA,NA,FALSE,"VGG","E_F_rotem_sela.png E_M_asi.png"
NA,"E_F_rotem_sela.png","E_M_danker.png",NA,NA,NA,NA,NA,"0.853922516",NA,NA,NA,NA,NA,NA,NA,NA,NA,FALSE,"VGG","E_F_rotem_sela.png E_M_danker.png"
NA,"E_F_rotem_sela.png","E_M_ido.png",NA,NA,NA,NA,NA,"0.804830238",NA,NA,NA,NA,NA,NA,NA,NA,NA,FALSE,"VGG","E_F_rotem_sela.png E_M_ido.png"
NA,"E_F_rotem_sela.png","E_M_liorA.png",NA,NA,NA,NA,NA,"0.883671723",NA,NA,NA,NA,NA,NA,NA,NA,NA,FALSE,"VGG","E_F_rotem_sela.png E_M_liorA.png"
NA,"E_F_rotem_sela.png","E_M_yuda.png",NA,NA,NA,NA,NA,"0.82390812",NA,NA,NA,NA,NA,NA,NA,NA,NA,FALSE,"VGG","E_F_rotem_sela.png E_M_yuda.png"
NA,"E_F_rotem_sela.png","P_F_michaeli.png",NA,NA,NA,NA,NA,"0.879215151",NA,NA,NA,NA,NA,NA,NA,NA,NA,FALSE,"VGG","E_F_rotem_sela.png P_F_michaeli.png"
NA,"E_F_rotem_sela.png","P_F_regev.png",NA,NA,NA,NA,NA,"0.67179805",NA,NA,NA,NA,NA,NA,NA,NA,NA,FALSE,"VGG","E_F_rotem_sela.png P_F_regev.png"
NA,"E_F_rotem_sela.png","P_F_shaked.png",NA,NA,NA,NA,NA,"0.537661582",NA,NA,NA,NA,NA,NA,NA,NA,NA,FALSE,"VGG","E_F_rotem_sela.png P_F_shaked.png"
NA,"E_F_rotem_sela.png","P_F_staiv.png",NA,NA,NA,NA,NA,"0.822179794",NA,NA,NA,NA,NA,NA,NA,NA,NA,FALSE,"VGG","E_F_rotem_sela.png P_F_staiv.png"
NA,"E_F_rotem_sela.png","P_M_benet.png",NA,NA,NA,NA,NA,"0.829418063",NA,NA,NA,NA,NA,NA,NA,NA,NA,FALSE,"VGG","E_F_rotem_sela.png P_M_benet.png"
NA,"E_F_rotem_sela.png","P_M_buji.png",NA,NA,NA,NA,NA,"0.882486753",NA,NA,NA,NA,NA,NA,NA,NA,NA,FALSE,"VGG","E_F_rotem_sela.png P_M_buji.png"
NA,"E_F_rotem_sela.png","P_M_gantz.png",NA,NA,NA,NA,NA,"0.96523549",NA,NA,NA,NA,NA,NA,NA,NA,NA,FALSE,"VGG","E_F_rotem_sela.png P_M_gantz.png"
NA,"E_F_rotem_sela.png","P_M_lapid.png",NA,NA,NA,NA,NA,"0.912992179",NA,NA,NA,NA,NA,NA,NA,NA,NA,FALSE,"VGG","E_F_rotem_sela.png P_M_lapid.png"
NA,"E_F_rotem_sela.png","P_M_saar.png",NA,NA,NA,NA,NA,"0.913581535",NA,NA,NA,NA,NA,NA,NA,NA,NA,FALSE,"VGG","E_F_rotem_sela.png P_M_saar.png"
NA,"E_F_rotem_sela.png","P_M_smut.png",NA,NA,NA,NA,NA,"0.902311653",NA,NA,NA,NA,NA,NA,NA,NA,NA,FALSE,"VGG","E_F_rotem_sela.png P_M_smut.png"
NA,"E_F_shiri.png","E_M_asi.png",NA,NA,NA,NA,NA,"0.949624591",NA,NA,NA,NA,NA,NA,NA,NA,NA,FALSE,"VGG","E_F_shiri.png E_M_asi.png"
NA,"E_F_shiri.png","E_M_danker.png",NA,NA,NA,NA,NA,"0.900000654",NA,NA,NA,NA,NA,NA,NA,NA,NA,FALSE,"VGG","E_F_shiri.png E_M_danker.png"
NA,"E_F_shiri.png","E_M_ido.png",NA,NA,NA,NA,NA,"0.939607669",NA,NA,NA,NA,NA,NA,NA,NA,NA,FALSE,"VGG","E_F_shiri.png E_M_ido.png"
NA,"E_F_shiri.png","E_M_liorA.png",NA,NA,NA,NA,NA,"0.877864003",NA,NA,NA,NA,NA,NA,NA,NA,NA,FALSE,"VGG","E_F_shiri.png E_M_liorA.png"
NA,"E_F_shiri.png","E_M_yuda.png",NA,NA,NA,NA,NA,"0.934652366",NA,NA,NA,NA,NA,NA,NA,NA,NA,FALSE,"VGG","E_F_shiri.png E_M_yuda.png"
NA,"E_F_shiri.png","P_F_michaeli.png",NA,NA,NA,NA,NA,"0.810914069",NA,NA,NA,NA,NA,NA,NA,NA,NA,FALSE,"VGG","E_F_shiri.png P_F_michaeli.png"
NA,"E_F_shiri.png","P_F_regev.png",NA,NA,NA,NA,NA,"0.765222013",NA,NA,NA,NA,NA,NA,NA,NA,NA,FALSE,"VGG","E_F_shiri.png P_F_regev.png"
NA,"E_F_shiri.png","P_F_shaked.png",NA,NA,NA,NA,NA,"0.807051927",NA,NA,NA,NA,NA,NA,NA,NA,NA,FALSE,"VGG","E_F_shiri.png P_F_shaked.png"
NA,"E_F_shiri.png","P_F_staiv.png",NA,NA,NA,NA,NA,"0.872523129",NA,NA,NA,NA,NA,NA,NA,NA,NA,FALSE,"VGG","E_F_shiri.png P_F_staiv.png"
NA,"E_F_shiri.png","P_M_benet.png",NA,NA,NA,NA,NA,"0.932063945",NA,NA,NA,NA,NA,NA,NA,NA,NA,FALSE,"VGG","E_F_shiri.png P_M_benet.png"
NA,"E_F_shiri.png","P_M_buji.png",NA,NA,NA,NA,NA,"0.892333671",NA,NA,NA,NA,NA,NA,NA,NA,NA,FALSE,"VGG","E_F_shiri.png P_M_buji.png"
NA,"E_F_shiri.png","P_M_gantz.png",NA,NA,NA,NA,NA,"0.839830771",NA,NA,NA,NA,NA,NA,NA,NA,NA,FALSE,"VGG","E_F_shiri.png P_M_gantz.png"
NA,"E_F_shiri.png","P_M_lapid.png",NA,NA,NA,NA,NA,"0.84846662",NA,NA,NA,NA,NA,NA,NA,NA,NA,FALSE,"VGG","E_F_shiri.png P_M_lapid.png"
NA,"E_F_shiri.png","P_M_saar.png",NA,NA,NA,NA,NA,"0.914288908",NA,NA,NA,NA,NA,NA,NA,NA,NA,FALSE,"VGG","E_F_shiri.png P_M_saar.png"
NA,"E_F_shiri.png","P_M_smut.png",NA,NA,NA,NA,NA,"0.877733484",NA,NA,NA,NA,NA,NA,NA,NA,NA,FALSE,"VGG","E_F_shiri.png P_M_smut.png"
NA,"E_M_asi.png","E_M_danker.png",NA,NA,NA,NA,NA,"0.734777212",NA,NA,NA,NA,NA,NA,NA,NA,NA,FALSE,"VGG","E_M_asi.png E_M_danker.png"
NA,"E_M_asi.png","E_M_ido.png",NA,NA,NA,NA,NA,"0.859531581",NA,NA,NA,NA,NA,NA,NA,NA,NA,FALSE,"VGG","E_M_asi.png E_M_ido.png"
NA,"E_M_asi.png","E_M_liorA.png",NA,NA,NA,NA,NA,"0.942176152",NA,NA,NA,NA,NA,NA,NA,NA,NA,FALSE,"VGG","E_M_asi.png E_M_liorA.png"
NA,"E_M_asi.png","E_M_yuda.png",NA,NA,NA,NA,NA,"0.842171326",NA,NA,NA,NA,NA,NA,NA,NA,NA,FALSE,"VGG","E_M_asi.png E_M_yuda.png"
NA,"E_M_asi.png","P_F_michaeli.png",NA,NA,NA,NA,NA,"0.939626373",NA,NA,NA,NA,NA,NA,NA,NA,NA,FALSE,"VGG","E_M_asi.png P_F_michaeli.png"
NA,"E_M_asi.png","P_F_regev.png",NA,NA,NA,NA,NA,"0.913398117",NA,NA,NA,NA,NA,NA,NA,NA,NA,FALSE,"VGG","E_M_asi.png P_F_regev.png"
NA,"E_M_asi.png","P_F_shaked.png",NA,NA,NA,NA,NA,"0.921344668",NA,NA,NA,NA,NA,NA,NA,NA,NA,FALSE,"VGG","E_M_asi.png P_F_shaked.png"
NA,"E_M_asi.png","P_F_staiv.png",NA,NA,NA,NA,NA,"0.798022941",NA,NA,NA,NA,NA,NA,NA,NA,NA,FALSE,"VGG","E_M_asi.png P_F_staiv.png"
NA,"E_M_asi.png","P_M_benet.png",NA,NA,NA,NA,NA,"0.866723865",NA,NA,NA,NA,NA,NA,NA,NA,NA,FALSE,"VGG","E_M_asi.png P_M_benet.png"
NA,"E_M_asi.png","P_M_buji.png",NA,NA,NA,NA,NA,"0.909634776",NA,NA,NA,NA,NA,NA,NA,NA,NA,FALSE,"VGG","E_M_asi.png P_M_buji.png"
NA,"E_M_asi.png","P_M_gantz.png",NA,NA,NA,NA,NA,"0.8702932",NA,NA,NA,NA,NA,NA,NA,NA,NA,FALSE,"VGG","E_M_asi.png P_M_gantz.png"
NA,"E_M_asi.png","P_M_lapid.png",NA,NA,NA,NA,NA,"0.894339301",NA,NA,NA,NA,NA,NA,NA,NA,NA,FALSE,"VGG","E_M_asi.png P_M_lapid.png"
NA,"E_M_asi.png","P_M_saar.png",NA,NA,NA,NA,NA,"0.8527814",NA,NA,NA,NA,NA,NA,NA,NA,NA,FALSE,"VGG","E_M_asi.png P_M_saar.png"
NA,"E_M_asi.png","P_M_smut.png",NA,NA,NA,NA,NA,"0.869589001",NA,NA,NA,NA,NA,NA,NA,NA,NA,FALSE,"VGG","E_M_asi.png P_M_smut.png"
NA,"E_M_danker.png","E_M_ido.png",NA,NA,NA,NA,NA,"0.828991264",NA,NA,NA,NA,NA,NA,NA,NA,NA,FALSE,"VGG","E_M_danker.png E_M_ido.png"
NA,"E_M_danker.png","E_M_liorA.png",NA,NA,NA,NA,NA,"0.905402854",NA,NA,NA,NA,NA,NA,NA,NA,NA,FALSE,"VGG","E_M_danker.png E_M_liorA.png"
NA,"E_M_danker.png","E_M_yuda.png",NA,NA,NA,NA,NA,"0.814598843",NA,NA,NA,NA,NA,NA,NA,NA,NA,FALSE,"VGG","E_M_danker.png E_M_yuda.png"
NA,"E_M_danker.png","P_F_michaeli.png",NA,NA,NA,NA,NA,"0.94231705",NA,NA,NA,NA,NA,NA,NA,NA,NA,FALSE,"VGG","E_M_danker.png P_F_michaeli.png"
NA,"E_M_danker.png","P_F_regev.png",NA,NA,NA,NA,NA,"0.802302435",NA,NA,NA,NA,NA,NA,NA,NA,NA,FALSE,"VGG","E_M_danker.png P_F_regev.png"
NA,"E_M_danker.png","P_F_shaked.png",NA,NA,NA,NA,NA,"0.799437642",NA,NA,NA,NA,NA,NA,NA,NA,NA,FALSE,"VGG","E_M_danker.png P_F_shaked.png"
NA,"E_M_danker.png","P_F_staiv.png",NA,NA,NA,NA,NA,"0.815459266",NA,NA,NA,NA,NA,NA,NA,NA,NA,FALSE,"VGG","E_M_danker.png P_F_staiv.png"
NA,"E_M_danker.png","P_M_benet.png",NA,NA,NA,NA,NA,"0.959514804",NA,NA,NA,NA,NA,NA,NA,NA,NA,FALSE,"VGG","E_M_danker.png P_M_benet.png"
NA,"E_M_danker.png","P_M_buji.png",NA,NA,NA,NA,NA,"0.866363555",NA,NA,NA,NA,NA,NA,NA,NA,NA,FALSE,"VGG","E_M_danker.png P_M_buji.png"
NA,"E_M_danker.png","P_M_gantz.png",NA,NA,NA,NA,NA,"0.916828804",NA,NA,NA,NA,NA,NA,NA,NA,NA,FALSE,"VGG","E_M_danker.png P_M_gantz.png"
NA,"E_M_danker.png","P_M_lapid.png",NA,NA,NA,NA,NA,"0.848715216",NA,NA,NA,NA,NA,NA,NA,NA,NA,FALSE,"VGG","E_M_danker.png P_M_lapid.png"
NA,"E_M_danker.png","P_M_saar.png",NA,NA,NA,NA,NA,"0.905431293",NA,NA,NA,NA,NA,NA,NA,NA,NA,FALSE,"VGG","E_M_danker.png P_M_saar.png"
NA,"E_M_danker.png","P_M_smut.png",NA,NA,NA,NA,NA,"0.826494113",NA,NA,NA,NA,NA,NA,NA,NA,NA,FALSE,"VGG","E_M_danker.png P_M_smut.png"
NA,"E_M_ido.png","E_M_liorA.png",NA,NA,NA,NA,NA,"0.906907484",NA,NA,NA,NA,NA,NA,NA,NA,NA,FALSE,"VGG","E_M_ido.png E_M_liorA.png"
NA,"E_M_ido.png","E_M_yuda.png",NA,NA,NA,NA,NA,"0.625998288",NA,NA,NA,NA,NA,NA,NA,NA,NA,FALSE,"VGG","E_M_ido.png E_M_yuda.png"
NA,"E_M_ido.png","P_F_michaeli.png",NA,NA,NA,NA,NA,"0.727421165",NA,NA,NA,NA,NA,NA,NA,NA,NA,FALSE,"VGG","E_M_ido.png P_F_michaeli.png"
NA,"E_M_ido.png","P_F_regev.png",NA,NA,NA,NA,NA,"0.813032374",NA,NA,NA,NA,NA,NA,NA,NA,NA,FALSE,"VGG","E_M_ido.png P_F_regev.png"
NA,"E_M_ido.png","P_F_shaked.png",NA,NA,NA,NA,NA,"0.802013651",NA,NA,NA,NA,NA,NA,NA,NA,NA,FALSE,"VGG","E_M_ido.png P_F_shaked.png"
NA,"E_M_ido.png","P_F_staiv.png",NA,NA,NA,NA,NA,"0.872793823",NA,NA,NA,NA,NA,NA,NA,NA,NA,FALSE,"VGG","E_M_ido.png P_F_staiv.png"
NA,"E_M_ido.png","P_M_benet.png",NA,NA,NA,NA,NA,"0.772851914",NA,NA,NA,NA,NA,NA,NA,NA,NA,FALSE,"VGG","E_M_ido.png P_M_benet.png"
NA,"E_M_ido.png","P_M_buji.png",NA,NA,NA,NA,NA,"0.839236498",NA,NA,NA,NA,NA,NA,NA,NA,NA,FALSE,"VGG","E_M_ido.png P_M_buji.png"
NA,"E_M_ido.png","P_M_gantz.png",NA,NA,NA,NA,NA,"0.927812271",NA,NA,NA,NA,NA,NA,NA,NA,NA,FALSE,"VGG","E_M_ido.png P_M_gantz.png"
NA,"E_M_ido.png","P_M_lapid.png",NA,NA,NA,NA,NA,"0.884534217",NA,NA,NA,NA,NA,NA,NA,NA,NA,FALSE,"VGG","E_M_ido.png P_M_lapid.png"
NA,"E_M_ido.png","P_M_saar.png",NA,NA,NA,NA,NA,"0.842000291",NA,NA,NA,NA,NA,NA,NA,NA,NA,FALSE,"VGG","E_M_ido.png P_M_saar.png"
NA,"E_M_ido.png","P_M_smut.png",NA,NA,NA,NA,NA,"0.761245295",NA,NA,NA,NA,NA,NA,NA,NA,NA,FALSE,"VGG","E_M_ido.png P_M_smut.png"
NA,"E_M_liorA.png","E_M_yuda.png",NA,NA,NA,NA,NA,"0.857989356",NA,NA,NA,NA,NA,NA,NA,NA,NA,FALSE,"VGG","E_M_liorA.png E_M_yuda.png"
NA,"E_M_liorA.png","P_F_michaeli.png",NA,NA,NA,NA,NA,"0.957847957",NA,NA,NA,NA,NA,NA,NA,NA,NA,FALSE,"VGG","E_M_liorA.png P_F_michaeli.png"
NA,"E_M_liorA.png","P_F_regev.png",NA,NA,NA,NA,NA,"0.928143941",NA,NA,NA,NA,NA,NA,NA,NA,NA,FALSE,"VGG","E_M_liorA.png P_F_regev.png"
NA,"E_M_liorA.png","P_F_shaked.png",NA,NA,NA,NA,NA,"0.918886773",NA,NA,NA,NA,NA,NA,NA,NA,NA,FALSE,"VGG","E_M_liorA.png P_F_shaked.png"
NA,"E_M_liorA.png","P_F_staiv.png",NA,NA,NA,NA,NA,"0.884765014",NA,NA,NA,NA,NA,NA,NA,NA,NA,FALSE,"VGG","E_M_liorA.png P_F_staiv.png"
NA,"E_M_liorA.png","P_M_benet.png",NA,NA,NA,NA,NA,"0.825722739",NA,NA,NA,NA,NA,NA,NA,NA,NA,FALSE,"VGG","E_M_liorA.png P_M_benet.png"
NA,"E_M_liorA.png","P_M_buji.png",NA,NA,NA,NA,NA,"0.834876403",NA,NA,NA,NA,NA,NA,NA,NA,NA,FALSE,"VGG","E_M_liorA.png P_M_buji.png"
NA,"E_M_liorA.png","P_M_gantz.png",NA,NA,NA,NA,NA,"0.821186393",NA,NA,NA,NA,NA,NA,NA,NA,NA,FALSE,"VGG","E_M_liorA.png P_M_gantz.png"
NA,"E_M_liorA.png","P_M_lapid.png",NA,NA,NA,NA,NA,"0.860981822",NA,NA,NA,NA,NA,NA,NA,NA,NA,FALSE,"VGG","E_M_liorA.png P_M_lapid.png"
NA,"E_M_liorA.png","P_M_saar.png",NA,NA,NA,NA,NA,"0.770210549",NA,NA,NA,NA,NA,NA,NA,NA,NA,FALSE,"VGG","E_M_liorA.png P_M_saar.png"
NA,"E_M_liorA.png","P_M_smut.png",NA,NA,NA,NA,NA,"0.948028903",NA,NA,NA,NA,NA,NA,NA,NA,NA,FALSE,"VGG","E_M_liorA.png P_M_smut.png"
NA,"E_M_yuda.png","P_F_michaeli.png",NA,NA,NA,NA,NA,"0.817716941",NA,NA,NA,NA,NA,NA,NA,NA,NA,FALSE,"VGG","E_M_yuda.png P_F_michaeli.png"
NA,"E_M_yuda.png","P_F_regev.png",NA,NA,NA,NA,NA,"0.907350801",NA,NA,NA,NA,NA,NA,NA,NA,NA,FALSE,"VGG","E_M_yuda.png P_F_regev.png"
NA,"E_M_yuda.png","P_F_shaked.png",NA,NA,NA,NA,NA,"0.907679059",NA,NA,NA,NA,NA,NA,NA,NA,NA,FALSE,"VGG","E_M_yuda.png P_F_shaked.png"
NA,"E_M_yuda.png","P_F_staiv.png",NA,NA,NA,NA,NA,"0.945587907",NA,NA,NA,NA,NA,NA,NA,NA,NA,FALSE,"VGG","E_M_yuda.png P_F_staiv.png"
NA,"E_M_yuda.png","P_M_benet.png",NA,NA,NA,NA,NA,"0.885432601",NA,NA,NA,NA,NA,NA,NA,NA,NA,FALSE,"VGG","E_M_yuda.png P_M_benet.png"
NA,"E_M_yuda.png","P_M_buji.png",NA,NA,NA,NA,NA,"0.790978819",NA,NA,NA,NA,NA,NA,NA,NA,NA,FALSE,"VGG","E_M_yuda.png P_M_buji.png"
NA,"E_M_yuda.png","P_M_gantz.png",NA,NA,NA,NA,NA,"0.92753385",NA,NA,NA,NA,NA,NA,NA,NA,NA,FALSE,"VGG","E_M_yuda.png P_M_gantz.png"
NA,"E_M_yuda.png","P_M_lapid.png",NA,NA,NA,NA,NA,"0.908668473",NA,NA,NA,NA,NA,NA,NA,NA,NA,FALSE,"VGG","E_M_yuda.png P_M_lapid.png"
NA,"E_M_yuda.png","P_M_saar.png",NA,NA,NA,NA,NA,"0.87802881",NA,NA,NA,NA,NA,NA,NA,NA,NA,FALSE,"VGG","E_M_yuda.png P_M_saar.png"
NA,"E_M_yuda.png","P_M_smut.png",NA,NA,NA,NA,NA,"0.87582282",NA,NA,NA,NA,NA,NA,NA,NA,NA,FALSE,"VGG","E_M_yuda.png P_M_smut.png"
NA,"P_F_michaeli.png","P_F_regev.png",NA,NA,NA,NA,NA,"0.800841436",NA,NA,NA,NA,NA,NA,NA,NA,NA,FALSE,"VGG","P_F_michaeli.png P_F_regev.png"
NA,"P_F_michaeli.png","P_F_shaked.png",NA,NA,NA,NA,NA,"0.881471865",NA,NA,NA,NA,NA,NA,NA,NA,NA,FALSE,"VGG","P_F_michaeli.png P_F_shaked.png"
NA,"P_F_michaeli.png","P_F_staiv.png",NA,NA,NA,NA,NA,"0.951703161",NA,NA,NA,NA,NA,NA,NA,NA,NA,FALSE,"VGG","P_F_michaeli.png P_F_staiv.png"
NA,"P_F_michaeli.png","P_M_benet.png",NA,NA,NA,NA,NA,"0.849060938",NA,NA,NA,NA,NA,NA,NA,NA,NA,FALSE,"VGG","P_F_michaeli.png P_M_benet.png"
NA,"P_F_michaeli.png","P_M_buji.png",NA,NA,NA,NA,NA,"0.817445457",NA,NA,NA,NA,NA,NA,NA,NA,NA,FALSE,"VGG","P_F_michaeli.png P_M_buji.png"
NA,"P_F_michaeli.png","P_M_gantz.png",NA,NA,NA,NA,NA,"0.908610433",NA,NA,NA,NA,NA,NA,NA,NA,NA,FALSE,"VGG","P_F_michaeli.png P_M_gantz.png"
NA,"P_F_michaeli.png","P_M_lapid.png",NA,NA,NA,NA,NA,"0.846504286",NA,NA,NA,NA,NA,NA,NA,NA,NA,FALSE,"VGG","P_F_michaeli.png P_M_lapid.png"
NA,"P_F_michaeli.png","P_M_saar.png",NA,NA,NA,NA,NA,"0.86373888",NA,NA,NA,NA,NA,NA,NA,NA,NA,FALSE,"VGG","P_F_michaeli.png P_M_saar.png"
NA,"P_F_michaeli.png","P_M_smut.png",NA,NA,NA,NA,NA,"0.788252354",NA,NA,NA,NA,NA,NA,NA,NA,NA,FALSE,"VGG","P_F_michaeli.png P_M_smut.png"
NA,"P_F_regev.png","P_F_shaked.png",NA,NA,NA,NA,NA,"0.803441778",NA,NA,NA,NA,NA,NA,NA,NA,NA,FALSE,"VGG","P_F_regev.png P_F_shaked.png"
NA,"P_F_regev.png","P_F_staiv.png",NA,NA,NA,NA,NA,"0.810573041",NA,NA,NA,NA,NA,NA,NA,NA,NA,FALSE,"VGG","P_F_regev.png P_F_staiv.png"
NA,"P_F_regev.png","P_M_benet.png",NA,NA,NA,NA,NA,"0.942693744",NA,NA,NA,NA,NA,NA,NA,NA,NA,FALSE,"VGG","P_F_regev.png P_M_benet.png"
NA,"P_F_regev.png","P_M_buji.png",NA,NA,NA,NA,NA,"0.888509005",NA,NA,NA,NA,NA,NA,NA,NA,NA,FALSE,"VGG","P_F_regev.png P_M_buji.png"
NA,"P_F_regev.png","P_M_gantz.png",NA,NA,NA,NA,NA,"0.94401481",NA,NA,NA,NA,NA,NA,NA,NA,NA,FALSE,"VGG","P_F_regev.png P_M_gantz.png"
NA,"P_F_regev.png","P_M_lapid.png",NA,NA,NA,NA,NA,"0.843028232",NA,NA,NA,NA,NA,NA,NA,NA,NA,FALSE,"VGG","P_F_regev.png P_M_lapid.png"
NA,"P_F_regev.png","P_M_saar.png",NA,NA,NA,NA,NA,"0.92880816",NA,NA,NA,NA,NA,NA,NA,NA,NA,FALSE,"VGG","P_F_regev.png P_M_saar.png"
NA,"P_F_regev.png","P_M_smut.png",NA,NA,NA,NA,NA,"0.892398104",NA,NA,NA,NA,NA,NA,NA,NA,NA,FALSE,"VGG","P_F_regev.png P_M_smut.png"
NA,"P_F_shaked.png","P_F_staiv.png",NA,NA,NA,NA,NA,"0.740584314",NA,NA,NA,NA,NA,NA,NA,NA,NA,FALSE,"VGG","P_F_shaked.png P_F_staiv.png"
NA,"P_F_shaked.png","P_M_benet.png",NA,NA,NA,NA,NA,"0.789406061",NA,NA,NA,NA,NA,NA,NA,NA,NA,FALSE,"VGG","P_F_shaked.png P_M_benet.png"
NA,"P_F_shaked.png","P_M_buji.png",NA,NA,NA,NA,NA,"0.886670068",NA,NA,NA,NA,NA,NA,NA,NA,NA,FALSE,"VGG","P_F_shaked.png P_M_buji.png"
NA,"P_F_shaked.png","P_M_gantz.png",NA,NA,NA,NA,NA,"0.954302803",NA,NA,NA,NA,NA,NA,NA,NA,NA,FALSE,"VGG","P_F_shaked.png P_M_gantz.png"
NA,"P_F_shaked.png","P_M_lapid.png",NA,NA,NA,NA,NA,"0.921935774",NA,NA,NA,NA,NA,NA,NA,NA,NA,FALSE,"VGG","P_F_shaked.png P_M_lapid.png"
NA,"P_F_shaked.png","P_M_saar.png",NA,NA,NA,NA,NA,"0.833288923",NA,NA,NA,NA,NA,NA,NA,NA,NA,FALSE,"VGG","P_F_shaked.png P_M_saar.png"
NA,"P_F_shaked.png","P_M_smut.png",NA,NA,NA,NA,NA,"0.91835019",NA,NA,NA,NA,NA,NA,NA,NA,NA,FALSE,"VGG","P_F_shaked.png P_M_smut.png"
NA,"P_F_staiv.png","P_M_benet.png",NA,NA,NA,NA,NA,"0.811749279",NA,NA,NA,NA,NA,NA,NA,NA,NA,FALSE,"VGG","P_F_staiv.png P_M_benet.png"
NA,"P_F_staiv.png","P_M_buji.png",NA,NA,NA,NA,NA,"0.905031674",NA,NA,NA,NA,NA,NA,NA,NA,NA,FALSE,"VGG","P_F_staiv.png P_M_buji.png"
NA,"P_F_staiv.png","P_M_gantz.png",NA,NA,NA,NA,NA,"0.849805772",NA,NA,NA,NA,NA,NA,NA,NA,NA,FALSE,"VGG","P_F_staiv.png P_M_gantz.png"
NA,"P_F_staiv.png","P_M_lapid.png",NA,NA,NA,NA,NA,"0.892246328",NA,NA,NA,NA,NA,NA,NA,NA,NA,FALSE,"VGG","P_F_staiv.png P_M_lapid.png"
NA,"P_F_staiv.png","P_M_saar.png",NA,NA,NA,NA,NA,"0.915101781",NA,NA,NA,NA,NA,NA,NA,NA,NA,FALSE,"VGG","P_F_staiv.png P_M_saar.png"
NA,"P_F_staiv.png","P_M_smut.png",NA,NA,NA,NA,NA,"0.95084228",NA,NA,NA,NA,NA,NA,NA,NA,NA,FALSE,"VGG","P_F_staiv.png P_M_smut.png"
NA,"P_M_benet.png","P_M_buji.png",NA,NA,NA,NA,NA,"0.880877495",NA,NA,NA,NA,NA,NA,NA,NA,NA,FALSE,"VGG","P_M_benet.png P_M_buji.png"
NA,"P_M_benet.png","P_M_saar.png",NA,NA,NA,NA,NA,"0.678971618",NA,NA,NA,NA,NA,NA,NA,NA,NA,FALSE,"VGG","P_M_benet.png P_M_saar.png"
NA,"P_M_benet.png","P_M_smut.png",NA,NA,NA,NA,NA,"0.827704951",NA,NA,NA,NA,NA,NA,NA,NA,NA,FALSE,"VGG","P_M_benet.png P_M_smut.png"
NA,"P_M_buji.png","P_M_saar.png",NA,NA,NA,NA,NA,"0.657039016",NA,NA,NA,NA,NA,NA,NA,NA,NA,FALSE,"VGG","P_M_buji.png P_M_saar.png"
NA,"P_M_buji.png","P_M_smut.png",NA,NA,NA,NA,NA,"0.850119457",NA,NA,NA,NA,NA,NA,NA,NA,NA,FALSE,"VGG","P_M_buji.png P_M_smut.png"
NA,"P_M_gantz.png","P_M_benet.png",NA,NA,NA,NA,NA,"0.923154898",NA,NA,NA,NA,NA,NA,NA,NA,NA,FALSE,"VGG","P_M_benet.png P_M_gantz.png"
NA,"P_M_gantz.png","P_M_buji.png",NA,NA,NA,NA,NA,"0.864256918",NA,NA,NA,NA,NA,NA,NA,NA,NA,FALSE,"VGG","P_M_buji.png P_M_gantz.png"
NA,"P_M_gantz.png","P_M_lapid.png",NA,NA,NA,NA,NA,"0.834083766",NA,NA,NA,NA,NA,NA,NA,NA,NA,FALSE,"VGG","P_M_gantz.png P_M_lapid.png"
NA,"P_M_gantz.png","P_M_saar.png",NA,NA,NA,NA,NA,"0.896622576",NA,NA,NA,NA,NA,NA,NA,NA,NA,FALSE,"VGG","P_M_gantz.png P_M_saar.png"
NA,"P_M_gantz.png","P_M_smut.png",NA,NA,NA,NA,NA,"0.930833682",NA,NA,NA,NA,NA,NA,NA,NA,NA,FALSE,"VGG","P_M_gantz.png P_M_smut.png"
NA,"P_M_lapid.png","P_M_benet.png",NA,NA,NA,NA,NA,"0.939196225",NA,NA,NA,NA,NA,NA,NA,NA,NA,FALSE,"VGG","P_M_benet.png P_M_lapid.png"
NA,"P_M_lapid.png","P_M_buji.png",NA,NA,NA,NA,NA,"0.863869861",NA,NA,NA,NA,NA,NA,NA,NA,NA,FALSE,"VGG","P_M_buji.png P_M_lapid.png"
NA,"P_M_lapid.png","P_M_saar.png",NA,NA,NA,NA,NA,"0.855322555",NA,NA,NA,NA,NA,NA,NA,NA,NA,FALSE,"VGG","P_M_lapid.png P_M_saar.png"
NA,"P_M_lapid.png","P_M_smut.png",NA,NA,NA,NA,NA,"0.870476469",NA,NA,NA,NA,NA,NA,NA,NA,NA,FALSE,"VGG","P_M_lapid.png P_M_smut.png"
NA,"P_M_saar.png","P_M_smut.png",NA,NA,NA,NA,NA,"0.867957264",NA,NA,NA,NA,NA,NA,NA,NA,NA,FALSE,"VGG","P_M_saar.png P_M_smut.png"
24363,"P_M_lapid.png","P_M_benet.png","TRUE","pictures/stimuli/P","pictures/stimuli/P","M","M","2",-1.28119209308346,"22","F","right","30214",1,1,0,0,FALSE,"semantic_n","P_M_benet.png P_M_lapid.png"
16332,"E_M_liorA.png","E_M_yuda.png","TRUE","pictures/stimuli/E","pictures/stimuli/E","M","M","4",-0.00336270890573074,"22","F","right","30214",1,1,0,0,FALSE,"semantic_n","E_M_liorA.png E_M_yuda.png"
17674,"E_F_rotem_sela.png","P_M_smut.png","FALSE","pictures/stimuli/E","pictures/stimuli/P","F","M","5",0.635551983183134,"22","F","right","30214",1,1,0,0,FALSE,"semantic_n","E_F_rotem_sela.png P_M_smut.png"
20781,"E_M_ido.png","P_M_buji.png","FALSE","pictures/stimuli/E","pictures/stimuli/P","M","M","5",0.635551983183134,"22","F","right","30214",1,1,0,0,FALSE,"semantic_n","E_M_ido.png P_M_buji.png"
5212,"E_M_danker.png","P_M_benet.png","FALSE","pictures/stimuli/E","pictures/stimuli/P","M","M","6",1.274466675272,"22","F","right","30214",1,1,0,0,FALSE,"semantic_n","E_M_danker.png P_M_benet.png"
12005,"P_M_lapid.png","P_M_smut.png","TRUE","pictures/stimuli/P","pictures/stimuli/P","M","M","2",-1.28119209308346,"22","F","right","30214",1,1,0,0,FALSE,"semantic_n","P_M_lapid.png P_M_smut.png"
15376,"E_F_rotem_sela.png","P_M_gantz.png","FALSE","pictures/stimuli/E","pictures/stimuli/P","F","M","5",0.635551983183134,"22","F","right","30214",1,1,0,0,FALSE,"semantic_n","E_F_rotem_sela.png P_M_gantz.png"
6891,"E_M_danker.png","P_M_lapid.png","FALSE","pictures/stimuli/E","pictures/stimuli/P","M","M","5",0.635551983183134,"22","F","right","30214",1,1,0,0,FALSE,"semantic_n","E_M_danker.png P_M_lapid.png"
14267,"E_F_ninet.png","P_F_regev.png","FALSE","pictures/stimuli/E","pictures/stimuli/P","F","F","5",0.635551983183134,"22","F","right","30214",1,1,0,0,FALSE,"semantic_n","E_F_ninet.png P_F_regev.png"
4824,"E_F_shiri.png","P_M_gantz.png","FALSE","pictures/stimuli/E","pictures/stimuli/P","F","M","6",1.274466675272,"22","F","right","30214",1,1,0,0,FALSE,"semantic_n","E_F_shiri.png P_M_gantz.png"
26309,"E_F_ilanit.png","E_F_ninet.png","TRUE","pictures/stimuli/E","pictures/stimuli/E","F","F","5",0.635551983183134,"22","F","right","30214",1,1,0,0,FALSE,"semantic_n","E_F_ilanit.png E_F_ninet.png"
15214,"E_F_shiri.png","E_M_asi.png","TRUE","pictures/stimuli/E","pictures/stimuli/E","F","M","4",-0.00336270890573074,"22","F","right","30214",1,1,0,0,FALSE,"semantic_n","E_F_shiri.png E_M_asi.png"
8721,"P_F_regev.png","P_F_staiv.png","TRUE","pictures/stimuli/P","pictures/stimuli/P","F","F","3",-0.642277400994596,"22","F","right","30214",1,1,0,0,FALSE,"semantic_n","P_F_regev.png P_F_staiv.png"
7619,"P_M_gantz.png","P_M_buji.png","TRUE","pictures/stimuli/P","pictures/stimuli/P","M","M","2",-1.28119209308346,"22","F","right","30214",1,1,0,0,FALSE,"semantic_n","P_M_buji.png P_M_gantz.png"
7463,"E_F_shiri.png","P_F_regev.png","FALSE","pictures/stimuli/E","pictures/stimuli/P","F","F","5",0.635551983183134,"22","F","right","30214",1,1,0,0,FALSE,"semantic_n","E_F_shiri.png P_F_regev.png"
2406,"E_F_shiri.png","P_M_smut.png","FALSE","pictures/stimuli/E","pictures/stimuli/P","F","M","6",1.274466675272,"22","F","right","30214",1,1,0,0,FALSE,"semantic_n","E_F_shiri.png P_M_smut.png"
7330,"E_F_ilanit.png","P_M_saar.png","FALSE","pictures/stimuli/E","pictures/stimuli/P","F","M","5",0.635551983183134,"22","F","right","30214",1,1,0,0,FALSE,"semantic_n","E_F_ilanit.png P_M_saar.png"
16626,"E_F_galit_gutman.png","P_M_lapid.png","FALSE","pictures/stimuli/E","pictures/stimuli/P","F","M","2",-1.28119209308346,"22","F","right","30214",1,1,0,0,FALSE,"semantic_n","E_F_galit_gutman.png P_M_lapid.png"
6927,"E_M_liorA.png","P_F_staiv.png","FALSE","pictures/stimuli/E","pictures/stimuli/P","M","F","6",1.274466675272,"22","F","right","30214",1,1,0,0,FALSE,"semantic_n","E_M_liorA.png P_F_staiv.png"
25511,"E_F_ilanit.png","E_M_ido.png","TRUE","pictures/stimuli/E","pictures/stimuli/E","F","M","4",-0.00336270890573074,"22","F","right","30214",1,1,0,0,FALSE,"semantic_n","E_F_ilanit.png E_M_ido.png"
6421,"P_F_staiv.png","P_M_lapid.png","TRUE","pictures/stimuli/P","pictures/stimuli/P","F","M","3",-0.642277400994596,"22","F","right","30214",1,1,0,0,FALSE,"semantic_n","P_F_staiv.png P_M_lapid.png"
2174,"P_F_regev.png","P_M_saar.png","TRUE","pictures/stimuli/P","pictures/stimuli/P","F","M","3",-0.642277400994596,"22","F","right","30214",1,1,0,0,FALSE,"semantic_n","P_F_regev.png P_M_saar.png"
10122,"E_M_danker.png","P_F_michaeli.png","FALSE","pictures/stimuli/E","pictures/stimuli/P","M","F","5",0.635551983183134,"22","F","right","30214",1,1,0,0,FALSE,"semantic_n","E_M_danker.png P_F_michaeli.png"
4438,"P_M_lapid.png","P_M_buji.png","TRUE","pictures/stimuli/P","pictures/stimuli/P","M","M","3",-0.642277400994596,"22","F","right","30214",1,1,0,0,FALSE,"semantic_n","P_M_buji.png P_M_lapid.png"
7635,"P_F_michaeli.png","P_M_saar.png","TRUE","pictures/stimuli/P","pictures/stimuli/P","F","M","4",-0.00336270890573074,"22","F","right","30214",1,1,0,0,FALSE,"semantic_n","P_F_michaeli.png P_M_saar.png"
4723,"P_F_michaeli.png","P_M_lapid.png","TRUE","pictures/stimuli/P","pictures/stimuli/P","F","M","5",0.635551983183134,"22","F","right","30214",1,1,0,0,FALSE,"semantic_n","P_F_michaeli.png P_M_lapid.png"
33915,"E_M_liorA.png","P_M_gantz.png","FALSE","pictures/stimuli/E","pictures/stimuli/P","M","M","5",0.635551983183134,"22","F","right","30214",1,1,0,0,TRUE,"semantic_n","E_M_liorA.png P_M_gantz.png"
3581,"E_F_galit_gutman.png","E_M_asi.png","TRUE","pictures/stimuli/E","pictures/stimuli/E","F","M","3",-0.642277400994596,"22","F","right","30214",1,1,0,0,FALSE,"semantic_n","E_F_galit_gutman.png E_M_asi.png"
3559,"E_M_yuda.png","P_F_michaeli.png","FALSE","pictures/stimuli/E","pictures/stimuli/P","M","F","6",1.274466675272,"22","F","right","30214",1,1,0,0,FALSE,"semantic_n","E_M_yuda.png P_F_michaeli.png"
5781,"E_M_asi.png","P_M_gantz.png","FALSE","pictures/stimuli/E","pictures/stimuli/P","M","M","5",0.635551983183134,"22","F","right","30214",1,1,0,0,FALSE,"semantic_n","E_M_asi.png P_M_gantz.png"
3884,"E_M_asi.png","P_F_regev.png","FALSE","pictures/stimuli/E","pictures/stimuli/P","M","F","5",0.635551983183134,"22","F","right","30214",1,1,0,0,FALSE,"semantic_n","E_M_asi.png P_F_regev.png"
3175,"E_M_yuda.png","P_M_smut.png","FALSE","pictures/stimuli/E","pictures/stimuli/P","M","M","6",1.274466675272,"22","F","right","30214",1,1,0,0,FALSE,"semantic_n","E_M_yuda.png P_M_smut.png"
4551,"E_F_galit_gutman.png","E_F_ninet.png","TRUE","pictures/stimuli/E","pictures/stimuli/E","F","F","4",-0.00336270890573074,"22","F","right","30214",1,1,0,0,FALSE,"semantic_n","E_F_galit_gutman.png E_F_ninet.png"
5072,"E_M_liorA.png","P_M_smut.png","FALSE","pictures/stimuli/E","pictures/stimuli/P","M","M","5",0.635551983183134,"22","F","right","30214",1,1,0,0,FALSE,"semantic_n","E_M_liorA.png P_M_smut.png"
4614,"P_M_benet.png","P_M_buji.png","TRUE","pictures/stimuli/P","pictures/stimuli/P","M","M","3",-0.642277400994596,"22","F","right","30214",1,1,0,0,FALSE,"semantic_n","P_M_benet.png P_M_buji.png"
4186,"E_F_rotem_sela.png","P_M_buji.png","FALSE","pictures/stimuli/E","pictures/stimuli/P","F","M","6",1.274466675272,"22","F","right","30214",1,1,0,0,FALSE,"semantic_n","E_F_rotem_sela.png P_M_buji.png"
6993,"P_F_michaeli.png","P_F_staiv.png","TRUE","pictures/stimuli/P","pictures/stimuli/P","F","F","2",-1.28119209308346,"22","F","right","30214",1,1,0,0,FALSE,"semantic_n","P_F_michaeli.png P_F_staiv.png"
5877,"E_F_ilanit.png","P_M_gantz.png","FALSE","pictures/stimuli/E","pictures/stimuli/P","F","M","5",0.635551983183134,"22","F","right","30214",1,1,0,0,FALSE,"semantic_n","E_F_ilanit.png P_M_gantz.png"
3447,"E_F_shiri.png","E_M_yuda.png","TRUE","pictures/stimuli/E","pictures/stimuli/E","F","M","3",-0.642277400994596,"22","F","right","30214",1,1,0,0,FALSE,"semantic_n","E_F_shiri.png E_M_yuda.png"
5964,"P_F_regev.png","P_M_benet.png","TRUE","pictures/stimuli/P","pictures/stimuli/P","F","M","3",-0.642277400994596,"22","F","right","30214",1,1,0,0,FALSE,"semantic_n","P_F_regev.png P_M_benet.png"
2625,"P_F_staiv.png","P_M_saar.png","TRUE","pictures/stimuli/P","pictures/stimuli/P","F","M","3",-0.642277400994596,"22","F","right","30214",1,1,0,0,FALSE,"semantic_n","P_F_staiv.png P_M_saar.png"
6134,"E_F_rotem_sela.png","P_F_staiv.png","FALSE","pictures/stimuli/E","pictures/stimuli/P","F","F","6",1.274466675272,"22","F","right","30214",1,1,0,0,FALSE,"semantic_n","E_F_rotem_sela.png P_F_staiv.png"
3241,"E_F_galit_gutman.png","P_M_buji.png","FALSE","pictures/stimuli/E","pictures/stimuli/P","F","M","6",1.274466675272,"22","F","right","30214",1,1,0,0,FALSE,"semantic_n","E_F_galit_gutman.png P_M_buji.png"
14064,"E_M_ido.png","P_F_staiv.png","FALSE","pictures/stimuli/E","pictures/stimuli/P","M","F","6",1.274466675272,"22","F","right","30214",1,1,0,0,FALSE,"semantic_n","E_M_ido.png P_F_staiv.png"
6057,"E_F_ninet.png","P_M_lapid.png","FALSE","pictures/stimuli/E","pictures/stimuli/P","F","M","5",0.635551983183134,"22","F","right","30214",1,1,0,0,FALSE,"semantic_n","E_F_ninet.png P_M_lapid.png"
2934,"E_F_ilanit.png","P_M_smut.png","FALSE","pictures/stimuli/E","pictures/stimuli/P","F","M","6",1.274466675272,"22","F","right","30214",1,1,0,0,FALSE,"semantic_n","E_F_ilanit.png P_M_smut.png"
3281,"E_F_shiri.png","P_M_saar.png","FALSE","pictures/stimuli/E","pictures/stimuli/P","F","M","6",1.274466675272,"22","F","right","30214",1,1,0,0,FALSE,"semantic_n","E_F_shiri.png P_M_saar.png"
6269,"E_F_galit_gutman.png","E_F_ilanit.png","TRUE","pictures/stimuli/E","pictures/stimuli/E","F","F","1",-1.92010678517233,"22","F","right","30214",1,1,0,0,FALSE,"semantic_n","E_F_galit_gutman.png E_F_ilanit.png"
5113,"E_F_rotem_sela.png","P_F_regev.png","FALSE","pictures/stimuli/E","pictures/stimuli/P","F","F","6",1.274466675272,"22","F","right","30214",1,1,0,0,FALSE,"semantic_n","E_F_rotem_sela.png P_F_regev.png"
5462,"E_M_asi.png","P_F_shaked.png","FALSE","pictures/stimuli/E","pictures/stimuli/P","M","F","6",1.274466675272,"22","F","right","30214",1,1,0,0,FALSE,"semantic_n","E_M_asi.png P_F_shaked.png"
6042,"E_F_rotem_sela.png","P_M_lapid.png","FALSE","pictures/stimuli/E","pictures/stimuli/P","F","M","5",0.635551983183134,"22","F","right","30214",1,1,0,0,FALSE,"semantic_n","E_F_rotem_sela.png P_M_lapid.png"
7604,"E_M_yuda.png","P_M_buji.png","FALSE","pictures/stimuli/E","pictures/stimuli/P","M","M","6",1.274466675272,"22","F","right","30214",1,1,0,0,FALSE,"semantic_n","E_M_yuda.png P_M_buji.png"
3889,"E_F_ninet.png","P_F_michaeli.png","FALSE","pictures/stimuli/E","pictures/stimuli/P","F","F","6",1.274466675272,"22","F","right","30214",1,1,0,0,FALSE,"semantic_n","E_F_ninet.png P_F_michaeli.png"
7639,"P_M_benet.png","P_M_saar.png","TRUE","pictures/stimuli/P","pictures/stimuli/P","M","M","2",-1.28119209308346,"22","F","right","30214",1,1,0,0,FALSE,"semantic_n","P_M_benet.png P_M_saar.png"
8899,"E_M_liorA.png","P_F_michaeli.png","FALSE","pictures/stimuli/E","pictures/stimuli/P","M","F","5",0.635551983183134,"22","F","right","30214",1,1,0,0,FALSE,"semantic_n","E_M_liorA.png P_F_michaeli.png"
4508,"P_F_michaeli.png","P_M_buji.png","TRUE","pictures/stimuli/P","pictures/stimuli/P","F","M","3",-0.642277400994596,"22","F","right","30214",1,1,0,0,FALSE,"semantic_n","P_F_michaeli.png P_M_buji.png"
4411,"E_M_danker.png","P_M_buji.png","FALSE","pictures/stimuli/E","pictures/stimuli/P","M","M","6",1.274466675272,"22","F","right","30214",1,1,0,0,FALSE,"semantic_n","E_M_danker.png P_M_buji.png"
5167,"E_F_rotem_sela.png","P_F_michaeli.png","FALSE","pictures/stimuli/E","pictures/stimuli/P","F","F","5",0.635551983183134,"22","F","right","30214",1,1,0,0,FALSE,"semantic_n","E_F_rotem_sela.png P_F_michaeli.png"
14632,"P_F_regev.png","P_M_smut.png","TRUE","pictures/stimuli/P","pictures/stimuli/P","F","M","3",-0.642277400994596,"22","F","right","30214",1,1,0,0,FALSE,"semantic_n","P_F_regev.png P_M_smut.png"
7628,"E_M_liorA.png","P_M_benet.png","FALSE","pictures/stimuli/E","pictures/stimuli/P","M","M","5",0.635551983183134,"22","F","right","30214",1,1,0,0,FALSE,"semantic_n","E_M_liorA.png P_M_benet.png"
3580,"E_M_ido.png","P_F_michaeli.png","FALSE","pictures/stimuli/E","pictures/stimuli/P","M","F","6",1.274466675272,"22","F","right","30214",1,1,0,0,FALSE,"semantic_n","E_M_ido.png P_F_michaeli.png"
5755,"P_F_shaked.png","P_M_benet.png","TRUE","pictures/stimuli/P","pictures/stimuli/P","F","M","2",-1.28119209308346,"22","F","right","30214",1,1,0,0,FALSE,"semantic_n","P_F_shaked.png P_M_benet.png"
4154,"E_F_rotem_sela.png","P_M_saar.png","FALSE","pictures/stimuli/E","pictures/stimuli/P","F","M","6",1.274466675272,"22","F","right","30214",1,1,0,0,FALSE,"semantic_n","E_F_rotem_sela.png P_M_saar.png"
3962,"E_F_rotem_sela.png","E_F_shiri.png","TRUE","pictures/stimuli/E","pictures/stimuli/E","F","F","2",-1.28119209308346,"22","F","right","30214",1,1,0,0,FALSE,"semantic_n","E_F_rotem_sela.png E_F_shiri.png"
4516,"P_F_michaeli.png","P_F_regev.png","TRUE","pictures/stimuli/P","pictures/stimuli/P","F","F","2",-1.28119209308346,"22","F","right","30214",1,1,0,0,FALSE,"semantic_n","P_F_michaeli.png P_F_regev.png"
3099,"E_F_ninet.png","E_F_rotem_sela.png","TRUE","pictures/stimuli/E","pictures/stimuli/E","F","F","3",-0.642277400994596,"22","F","right","30214",1,1,0,0,FALSE,"semantic_n","E_F_ninet.png E_F_rotem_sela.png"
5448,"P_M_buji.png","P_M_smut.png","TRUE","pictures/stimuli/P","pictures/stimuli/P","M","M","3",-0.642277400994596,"22","F","right","30214",1,1,0,0,FALSE,"semantic_n","P_M_buji.png P_M_smut.png"
16830,"E_F_galit_gutman.png","P_F_staiv.png","FALSE","pictures/stimuli/E","pictures/stimuli/P","F","F","3",-0.642277400994596,"22","F","right","30214",1,1,0,0,FALSE,"semantic_n","E_F_galit_gutman.png P_F_staiv.png"
14640,"E_M_ido.png","P_M_benet.png","FALSE","pictures/stimuli/E","pictures/stimuli/P","M","M","5",0.635551983183134,"22","F","right","30214",1,1,0,0,FALSE,"semantic_n","E_M_ido.png P_M_benet.png"
3543,"P_F_michaeli.png","P_M_benet.png","TRUE","pictures/stimuli/P","pictures/stimuli/P","F","M","2",-1.28119209308346,"22","F","right","30214",1,1,0,0,FALSE,"semantic_n","P_F_michaeli.png P_M_benet.png"
3207,"P_F_staiv.png","P_M_benet.png","TRUE","pictures/stimuli/P","pictures/stimuli/P","F","M","3",-0.642277400994596,"22","F","right","30214",1,1,0,0,FALSE,"semantic_n","P_F_staiv.png P_M_benet.png"
5743,"E_F_galit_gutman.png","E_M_yuda.png","TRUE","pictures/stimuli/E","pictures/stimuli/E","F","M","3",-0.642277400994596,"22","F","right","30214",1,1,0,0,FALSE,"semantic_n","E_F_galit_gutman.png E_M_yuda.png"
3378,"E_F_galit_gutman.png","E_M_ido.png","TRUE","pictures/stimuli/E","pictures/stimuli/E","F","M","3",-0.642277400994596,"22","F","right","30214",1,1,0,0,FALSE,"semantic_n","E_F_galit_gutman.png E_M_ido.png"
4016,"E_M_danker.png","P_M_gantz.png","FALSE","pictures/stimuli/E","pictures/stimuli/P","M","M","5",0.635551983183134,"22","F","right","30214",1,1,0,0,FALSE,"semantic_n","E_M_danker.png P_M_gantz.png"
12982,"E_F_ilanit.png","P_M_benet.png","FALSE","pictures/stimuli/E","pictures/stimuli/P","F","M","5",0.635551983183134,"22","F","right","30214",1,1,0,0,FALSE,"semantic_n","E_F_ilanit.png P_M_benet.png"
2900,"E_F_ninet.png","P_M_saar.png","FALSE","pictures/stimuli/E","pictures/stimuli/P","F","M","6",1.274466675272,"22","F","right","30214",1,1,0,0,FALSE,"semantic_n","E_F_ninet.png P_M_saar.png"
3646,"E_M_asi.png","E_M_yuda.png","TRUE","pictures/stimuli/E","pictures/stimuli/E","M","M","3",-0.642277400994596,"22","F","right","30214",1,1,0,0,FALSE,"semantic_n","E_M_asi.png E_M_yuda.png"
16286,"E_M_asi.png","E_M_ido.png","TRUE","pictures/stimuli/E","pictures/stimuli/E","M","M","2",-1.28119209308346,"22","F","right","30214",1,1,0,0,FALSE,"semantic_n","E_M_asi.png E_M_ido.png"
19655,"P_F_shaked.png","P_F_staiv.png","TRUE","pictures/stimuli/P","pictures/stimuli/P","F","F","3",-0.642277400994596,"22","F","right","30214",1,1,0,0,FALSE,"semantic_n","P_F_shaked.png P_F_staiv.png"
4683,"E_F_ninet.png","E_M_ido.png","TRUE","pictures/stimuli/E","pictures/stimuli/E","F","M","3",-0.642277400994596,"22","F","right","30214",1,1,0,0,FALSE,"semantic_n","E_F_ninet.png E_M_ido.png"
8488,"E_M_danker.png","P_M_smut.png","FALSE","pictures/stimuli/E","pictures/stimuli/P","M","M","4",-0.00336270890573074,"22","F","right","30214",1,1,0,0,FALSE,"semantic_n","E_M_danker.png P_M_smut.png"
5386,"E_F_ilanit.png","P_F_shaked.png","FALSE","pictures/stimuli/E","pictures/stimuli/P","F","F","4",-0.00336270890573074,"22","F","right","30214",1,1,0,0,FALSE,"semantic_n","E_F_ilanit.png P_F_shaked.png"
4869,"E_M_ido.png","P_F_shaked.png","FALSE","pictures/stimuli/E","pictures/stimuli/P","M","F","5",0.635551983183134,"22","F","right","30214",1,1,0,0,FALSE,"semantic_n","E_M_ido.png P_F_shaked.png"
3633,"E_M_yuda.png","P_M_saar.png","FALSE","pictures/stimuli/E","pictures/stimuli/P","M","M","5",0.635551983183134,"22","F","right","30214",1,1,0,0,FALSE,"semantic_n","E_M_yuda.png P_M_saar.png"
33265,"E_F_ilanit.png","E_F_rotem_sela.png","TRUE","pictures/stimuli/E","pictures/stimuli/E","F","F","2",-1.28119209308346,"22","F","right","30214",1,1,0,0,TRUE,"semantic_n","E_F_ilanit.png E_F_rotem_sela.png"
4168,"E_F_ninet.png","E_M_liorA.png","TRUE","pictures/stimuli/E","pictures/stimuli/E","F","M","3",-0.642277400994596,"22","F","right","30214",1,1,0,0,FALSE,"semantic_n","E_F_ninet.png E_M_liorA.png"
13320,"P_M_lapid.png","P_M_saar.png","TRUE","pictures/stimuli/P","pictures/stimuli/P","M","M","2",-1.28119209308346,"22","F","right","30214",1,1,0,0,FALSE,"semantic_n","P_M_lapid.png P_M_saar.png"
10797,"E_F_shiri.png","P_M_buji.png","FALSE","pictures/stimuli/E","pictures/stimuli/P","F","M","6",1.274466675272,"22","F","right","30214",1,1,0,0,FALSE,"semantic_n","E_F_shiri.png P_M_buji.png"
24082,"E_M_yuda.png","P_F_shaked.png","FALSE","pictures/stimuli/E","pictures/stimuli/P","M","F","5",0.635551983183134,"22","F","right","30214",1,1,0,0,FALSE,"semantic_n","E_M_yuda.png P_F_shaked.png"
5481,"E_F_shiri.png","E_M_liorA.png","TRUE","pictures/stimuli/E","pictures/stimuli/E","F","M","3",-0.642277400994596,"22","F","right","30214",1,1,0,0,FALSE,"semantic_n","E_F_shiri.png E_M_liorA.png"
3097,"E_F_shiri.png","E_M_ido.png","TRUE","pictures/stimuli/E","pictures/stimuli/E","F","M","3",-0.642277400994596,"22","F","right","30214",1,1,0,0,FALSE,"semantic_n","E_F_shiri.png E_M_ido.png"
18618,"P_F_regev.png","P_F_shaked.png","TRUE","pictures/stimuli/P","pictures/stimuli/P","F","F","2",-1.28119209308346,"22","F","right","30214",1,1,0,0,FALSE,"semantic_n","P_F_regev.png P_F_shaked.png"
17072,"P_F_staiv.png","P_M_smut.png","TRUE","pictures/stimuli/P","pictures/stimuli/P","F","M","3",-0.642277400994596,"22","F","right","30214",1,1,0,0,FALSE,"semantic_n","P_F_staiv.png P_M_smut.png"
8976,"E_F_galit_gutman.png","E_M_danker.png","TRUE","pictures/stimuli/E","pictures/stimuli/E","F","M","2",-1.28119209308346,"22","F","right","30214",1,1,0,0,FALSE,"semantic_n","E_F_galit_gutman.png E_M_danker.png"
35366,"E_F_shiri.png","P_F_michaeli.png","FALSE","pictures/stimuli/E","pictures/stimuli/P","F","F","4",-0.00336270890573074,"22","F","right","30214",1,1,0,0,TRUE,"semantic_n","E_F_shiri.png P_F_michaeli.png"
8544,"E_M_asi.png","P_M_smut.png","FALSE","pictures/stimuli/E","pictures/stimuli/P","M","M","5",0.635551983183134,"22","F","right","30214",1,1,0,0,FALSE,"semantic_n","E_M_asi.png P_M_smut.png"
20098,"E_M_ido.png","P_M_smut.png","FALSE","pictures/stimuli/E","pictures/stimuli/P","M","M","5",0.635551983183134,"22","F","right","30214",1,1,0,0,FALSE,"semantic_n","E_M_ido.png P_M_smut.png"
17262,"P_F_shaked.png","P_M_saar.png","TRUE","pictures/stimuli/P","pictures/stimuli/P","F","M","4",-0.00336270890573074,"22","F","right","30214",1,1,0,0,FALSE,"semantic_n","P_F_shaked.png P_M_saar.png"
13976,"E_M_yuda.png","P_M_lapid.png","FALSE","pictures/stimuli/E","pictures/stimuli/P","M","M","4",-0.00336270890573074,"22","F","right","30214",1,1,0,0,FALSE,"semantic_n","E_M_yuda.png P_M_lapid.png"
6868,"P_F_shaked.png","P_M_smut.png","TRUE","pictures/stimuli/P","pictures/stimuli/P","F","M","3",-0.642277400994596,"22","F","right","30214",1,1,0,0,FALSE,"semantic_n","P_F_shaked.png P_M_smut.png"
17667,"E_F_ilanit.png","E_M_danker.png","TRUE","pictures/stimuli/E","pictures/stimuli/E","F","M","2",-1.28119209308346,"22","F","right","30214",1,1,0,0,FALSE,"semantic_n","E_F_ilanit.png E_M_danker.png"
5245,"E_F_ilanit.png","E_M_liorA.png","TRUE","pictures/stimuli/E","pictures/stimuli/E","F","M","3",-0.642277400994596,"22","F","right","30214",1,1,0,0,FALSE,"semantic_n","E_F_ilanit.png E_M_liorA.png"
22647,"E_F_galit_gutman.png","E_F_shiri.png","TRUE","pictures/stimuli/E","pictures/stimuli/E","F","F","2",-1.28119209308346,"22","F","right","30214",1,1,0,0,FALSE,"semantic_n","E_F_galit_gutman.png E_F_shiri.png"
15929,"E_F_galit_gutman.png","E_F_rotem_sela.png","TRUE","pictures/stimuli/E","pictures/stimuli/E","F","F","1",-1.92010678517233,"22","F","right","30214",1,1,0,0,FALSE,"semantic_n","E_F_galit_gutman.png E_F_rotem_sela.png"
4254,"E_M_liorA.png","P_F_regev.png","FALSE","pictures/stimuli/E","pictures/stimuli/P","M","F","5",0.635551983183134,"22","F","right","30214",1,1,0,0,FALSE,"semantic_n","E_M_liorA.png P_F_regev.png"
3713,"P_F_michaeli.png","P_F_shaked.png","TRUE","pictures/stimuli/P","pictures/stimuli/P","F","F","5",0.635551983183134,"22","F","right","30214",1,1,0,0,FALSE,"semantic_n","P_F_michaeli.png P_F_shaked.png"
3418,"E_F_galit_gutman.png","P_F_regev.png","FALSE","pictures/stimuli/E","pictures/stimuli/P","F","F","4",-0.00336270890573074,"22","F","right","30214",1,1,0,0,FALSE,"semantic_n","E_F_galit_gutman.png P_F_regev.png"
7324,"P_F_staiv.png","P_M_buji.png","TRUE","pictures/stimuli/P","pictures/stimuli/P","F","M","4",-0.00336270890573074,"22","F","right","30214",1,1,0,0,FALSE,"semantic_n","P_F_staiv.png P_M_buji.png"
2888,"E_F_ninet.png","P_M_buji.png","FALSE","pictures/stimuli/E","pictures/stimuli/P","F","M","6",1.274466675272,"22","F","right","30214",1,1,0,0,FALSE,"semantic_n","E_F_ninet.png P_M_buji.png"
1674,"E_M_ido.png","P_M_saar.png","FALSE","pictures/stimuli/E","pictures/stimuli/P","M","M","5",0.635551983183134,"22","F","right","30214",1,1,0,0,FALSE,"semantic_n","E_M_ido.png P_M_saar.png"
3830,"E_F_galit_gutman.png","P_M_benet.png","FALSE","pictures/stimuli/E","pictures/stimuli/P","F","M","6",1.274466675272,"22","F","right","30214",1,1,0,0,FALSE,"semantic_n","E_F_galit_gutman.png P_M_benet.png"
3382,"E_F_shiri.png","P_F_staiv.png","FALSE","pictures/stimuli/E","pictures/stimuli/P","F","F","5",0.635551983183134,"22","F","right","30214",1,1,0,0,FALSE,"semantic_n","E_F_shiri.png P_F_staiv.png"
2203,"E_F_rotem_sela.png","P_M_benet.png","FALSE","pictures/stimuli/E","pictures/stimuli/P","F","M","6",1.274466675272,"22","F","right","30214",1,1,0,0,FALSE,"semantic_n","E_F_rotem_sela.png P_M_benet.png"
2592,"E_M_danker.png","P_F_shaked.png","FALSE","pictures/stimuli/E","pictures/stimuli/P","M","F","6",1.274466675272,"22","F","right","30214",1,1,0,0,FALSE,"semantic_n","E_M_danker.png P_F_shaked.png"
4049,"P_F_michaeli.png","P_M_gantz.png","TRUE","pictures/stimuli/P","pictures/stimuli/P","F","M","4",-0.00336270890573074,"22","F","right","30214",1,1,0,0,FALSE,"semantic_n","P_F_michaeli.png P_M_gantz.png"
3099,"E_M_asi.png","P_M_saar.png","FALSE","pictures/stimuli/E","pictures/stimuli/P","M","M","5",0.635551983183134,"22","F","right","30214",1,1,0,0,FALSE,"semantic_n","E_M_asi.png P_M_saar.png"
3802,"E_F_ilanit.png","P_F_michaeli.png","FALSE","pictures/stimuli/E","pictures/stimuli/P","F","F","5",0.635551983183134,"22","F","right","30214",1,1,0,0,FALSE,"semantic_n","E_F_ilanit.png P_F_michaeli.png"
2832,"E_F_rotem_sela.png","E_M_danker.png","TRUE","pictures/stimuli/E","pictures/stimuli/E","F","M","2",-1.28119209308346,"22","F","right","30214",1,1,0,0,FALSE,"semantic_n","E_F_rotem_sela.png E_M_danker.png"
1587,"E_M_asi.png","E_M_danker.png","TRUE","pictures/stimuli/E","pictures/stimuli/E","M","M","2",-1.28119209308346,"22","F","right","30214",1,1,0,0,FALSE,"semantic_n","E_M_asi.png E_M_danker.png"
4873,"E_M_liorA.png","P_F_shaked.png","FALSE","pictures/stimuli/E","pictures/stimuli/P","M","F","6",1.274466675272,"22","F","right","30214",1,1,0,0,FALSE,"semantic_n","E_M_liorA.png P_F_shaked.png"
10643,"E_F_shiri.png","P_M_benet.png","FALSE","pictures/stimuli/E","pictures/stimuli/P","F","M","6",1.274466675272,"22","F","right","30214",1,1,0,0,FALSE,"semantic_n","E_F_shiri.png P_M_benet.png"
5202,"E_M_danker.png","E_M_yuda.png","TRUE","pictures/stimuli/E","pictures/stimuli/E","M","M","3",-0.642277400994596,"22","F","right","30214",1,1,0,0,FALSE,"semantic_n","E_M_danker.png E_M_yuda.png"
2537,"E_M_yuda.png","P_F_staiv.png","FALSE","pictures/stimuli/E","pictures/stimuli/P","M","F","6",1.274466675272,"22","F","right","30214",1,1,0,0,FALSE,"semantic_n","E_M_yuda.png P_F_staiv.png"
3964,"E_F_galit_gutman.png","P_M_saar.png","FALSE","pictures/stimuli/E","pictures/stimuli/P","F","M","6",1.274466675272,"22","F","right","30214",1,1,0,0,FALSE,"semantic_n","E_F_galit_gutman.png P_M_saar.png"
3287,"E_F_rotem_sela.png","P_F_shaked.png","FALSE","pictures/stimuli/E","pictures/stimuli/P","F","F","5",0.635551983183134,"22","F","right","30214",1,1,0,0,FALSE,"semantic_n","E_F_rotem_sela.png P_F_shaked.png"
3359,"E_M_asi.png","P_M_benet.png","FALSE","pictures/stimuli/E","pictures/stimuli/P","M","M","5",0.635551983183134,"22","F","right","30214",1,1,0,0,FALSE,"semantic_n","E_M_asi.png P_M_benet.png"
9687,"E_M_ido.png","E_M_yuda.png","TRUE","pictures/stimuli/E","pictures/stimuli/E","M","M","2",-1.28119209308346,"22","F","right","30214",1,1,0,0,FALSE,"semantic_n","E_M_ido.png E_M_yuda.png"
7835,"E_M_yuda.png","P_M_gantz.png","FALSE","pictures/stimuli/E","pictures/stimuli/P","M","M","6",1.274466675272,"22","F","right","30214",1,1,0,0,FALSE,"semantic_n","E_M_yuda.png P_M_gantz.png"
7621,"E_F_ilanit.png","P_F_staiv.png","FALSE","pictures/stimuli/E","pictures/stimuli/P","F","F","5",0.635551983183134,"22","F","right","30214",1,1,0,0,FALSE,"semantic_n","E_F_ilanit.png P_F_staiv.png"
13793,"E_M_danker.png","P_M_saar.png","FALSE","pictures/stimuli/E","pictures/stimuli/P","M","M","6",1.274466675272,"22","F","right","30214",1,1,0,0,FALSE,"semantic_n","E_M_danker.png P_M_saar.png"
6820,"P_M_gantz.png","P_M_lapid.png","TRUE","pictures/stimuli/P","pictures/stimuli/P","M","M","2",-1.28119209308346,"22","F","right","30214",1,1,0,0,FALSE,"semantic_n","P_M_gantz.png P_M_lapid.png"
3449,"E_M_asi.png","P_M_lapid.png","FALSE","pictures/stimuli/E","pictures/stimuli/P","M","M","5",0.635551983183134,"22","F","right","30214",1,1,0,0,FALSE,"semantic_n","E_M_asi.png P_M_lapid.png"
2574,"E_F_ilanit.png","E_F_shiri.png","TRUE","pictures/stimuli/E","pictures/stimuli/E","F","F","2",-1.28119209308346,"22","F","right","30214",1,1,0,0,FALSE,"semantic_n","E_F_ilanit.png E_F_shiri.png"
3503,"E_F_rotem_sela.png","E_M_asi.png","TRUE","pictures/stimuli/E","pictures/stimuli/E","F","M","1",-1.92010678517233,"22","F","right","30214",1,1,0,0,FALSE,"semantic_n","E_F_rotem_sela.png E_M_asi.png"
12779,"P_M_gantz.png","P_M_saar.png","TRUE","pictures/stimuli/P","pictures/stimuli/P","M","M","2",-1.28119209308346,"22","F","right","30214",1,1,0,0,FALSE,"semantic_n","P_M_gantz.png P_M_saar.png"
3096,"E_F_ninet.png","E_M_yuda.png","TRUE","pictures/stimuli/E","pictures/stimuli/E","F","M","2",-1.28119209308346,"22","F","right","30214",1,1,0,0,FALSE,"semantic_n","E_F_ninet.png E_M_yuda.png"
11294,"E_F_ilanit.png","P_F_regev.png","FALSE","pictures/stimuli/E","pictures/stimuli/P","F","F","5",0.635551983183134,"22","F","right","30214",1,1,0,0,FALSE,"semantic_n","E_F_ilanit.png P_F_regev.png"
5531,"E_F_shiri.png","P_M_lapid.png","FALSE","pictures/stimuli/E","pictures/stimuli/P","F","M","4",-0.00336270890573074,"22","F","right","30214",1,1,0,0,FALSE,"semantic_n","E_F_shiri.png P_M_lapid.png"
6356,"E_M_yuda.png","P_M_benet.png","FALSE","pictures/stimuli/E","pictures/stimuli/P","M","M","5",0.635551983183134,"22","F","right","30214",1,1,0,0,FALSE,"semantic_n","E_M_yuda.png P_M_benet.png"
4289,"E_F_ninet.png","P_M_benet.png","FALSE","pictures/stimuli/E","pictures/stimuli/P","F","M","6",1.274466675272,"22","F","right","30214",1,1,0,0,FALSE,"semantic_n","E_F_ninet.png P_M_benet.png"
13951,"P_F_shaked.png","P_M_buji.png","TRUE","pictures/stimuli/P","pictures/stimuli/P","F","M","3",-0.642277400994596,"22","F","right","30214",1,1,0,0,FALSE,"semantic_n","P_F_shaked.png P_M_buji.png"
4250,"E_M_danker.png","P_F_staiv.png","FALSE","pictures/stimuli/E","pictures/stimuli/P","M","F","6",1.274466675272,"22","F","right","30214",1,1,0,0,FALSE,"semantic_n","E_M_danker.png P_F_staiv.png"
8174,"P_F_regev.png","P_M_lapid.png","TRUE","pictures/stimuli/P","pictures/stimuli/P","F","M","2",-1.28119209308346,"22","F","right","30214",1,1,0,0,FALSE,"semantic_n","P_F_regev.png P_M_lapid.png"
2797,"E_F_shiri.png","P_F_shaked.png","FALSE","pictures/stimuli/E","pictures/stimuli/P","F","F","4",-0.00336270890573074,"22","F","right","30214",1,1,0,0,FALSE,"semantic_n","E_F_shiri.png P_F_shaked.png"
4016,"E_M_liorA.png","P_M_saar.png","FALSE","pictures/stimuli/E","pictures/stimuli/P","M","M","6",1.274466675272,"22","F","right","30214",1,1,0,0,FALSE,"semantic_n","E_M_liorA.png P_M_saar.png"
3133,"P_F_shaked.png","P_M_gantz.png","TRUE","pictures/stimuli/P","pictures/stimuli/P","F","M","3",-0.642277400994596,"22","F","right","30214",1,1,0,0,FALSE,"semantic_n","P_F_shaked.png P_M_gantz.png"
11223,"P_F_shaked.png","P_M_lapid.png","TRUE","pictures/stimuli/P","pictures/stimuli/P","F","M","2",-1.28119209308346,"22","F","right","30214",1,1,0,0,FALSE,"semantic_n","P_F_shaked.png P_M_lapid.png"
5654,"E_M_asi.png","P_F_michaeli.png","FALSE","pictures/stimuli/E","pictures/stimuli/P","M","F","5",0.635551983183134,"22","F","right","30214",1,1,0,0,FALSE,"semantic_n","E_M_asi.png P_F_michaeli.png"
5435,"E_M_ido.png","E_M_liorA.png","TRUE","pictures/stimuli/E","pictures/stimuli/E","M","M","2",-1.28119209308346,"22","F","right","30214",1,1,0,0,FALSE,"semantic_n","E_M_ido.png E_M_liorA.png"
3253,"E_F_ilanit.png","E_M_asi.png","TRUE","pictures/stimuli/E","pictures/stimuli/E","F","M","2",-1.28119209308346,"22","F","right","30214",1,1,0,0,FALSE,"semantic_n","E_F_ilanit.png E_M_asi.png"
4740,"E_M_asi.png","P_F_staiv.png","FALSE","pictures/stimuli/E","pictures/stimuli/P","M","F","5",0.635551983183134,"22","F","right","30214",1,1,0,0,FALSE,"semantic_n","E_M_asi.png P_F_staiv.png"
5479,"E_M_yuda.png","P_F_regev.png","FALSE","pictures/stimuli/E","pictures/stimuli/P","M","F","6",1.274466675272,"22","F","right","30214",1,1,0,0,FALSE,"semantic_n","E_M_yuda.png P_F_regev.png"
7258,"E_F_rotem_sela.png","E_M_ido.png","TRUE","pictures/stimuli/E","pictures/stimuli/E","F","M","2",-1.28119209308346,"22","F","right","30214",1,1,0,0,FALSE,"semantic_n","E_F_rotem_sela.png E_M_ido.png"
2658,"E_M_asi.png","P_M_buji.png","FALSE","pictures/stimuli/E","pictures/stimuli/P","M","M","5",0.635551983183134,"22","F","right","30214",1,1,0,0,FALSE,"semantic_n","E_M_asi.png P_M_buji.png"
4837,"E_F_ninet.png","E_F_shiri.png","TRUE","pictures/stimuli/E","pictures/stimuli/E","F","F","1",-1.92010678517233,"22","F","right","30214",1,1,0,0,FALSE,"semantic_n","E_F_ninet.png E_F_shiri.png"
3780,"E_M_liorA.png","P_M_lapid.png","FALSE","pictures/stimuli/E","pictures/stimuli/P","M","M","5",0.635551983183134,"22","F","right","30214",1,1,0,0,FALSE,"semantic_n","E_M_liorA.png P_M_lapid.png"
9868,"E_M_asi.png","E_M_liorA.png","TRUE","pictures/stimuli/E","pictures/stimuli/E","M","M","3",-0.642277400994596,"22","F","right","30214",1,1,0,0,FALSE,"semantic_n","E_M_asi.png E_M_liorA.png"
10881,"E_F_galit_gutman.png","E_M_liorA.png","TRUE","pictures/stimuli/E","pictures/stimuli/E","F","M","3",-0.642277400994596,"22","F","right","30214",1,1,0,0,FALSE,"semantic_n","E_F_galit_gutman.png E_M_liorA.png"
4109,"P_M_gantz.png","P_M_benet.png","TRUE","pictures/stimuli/P","pictures/stimuli/P","M","M","2",-1.28119209308346,"22","F","right","30214",1,1,0,0,FALSE,"semantic_n","P_M_benet.png P_M_gantz.png"
2977,"E_M_danker.png","E_M_ido.png","TRUE","pictures/stimuli/E","pictures/stimuli/E","M","M","2",-1.28119209308346,"22","F","right","30214",1,1,0,0,FALSE,"semantic_n","E_M_danker.png E_M_ido.png"
5079,"P_M_gantz.png","P_M_smut.png","TRUE","pictures/stimuli/P","pictures/stimuli/P","M","M","2",-1.28119209308346,"22","F","right","30214",1,1,0,0,FALSE,"semantic_n","P_M_gantz.png P_M_smut.png"
5049,"E_F_ninet.png","E_M_danker.png","TRUE","pictures/stimuli/E","pictures/stimuli/E","F","M","2",-1.28119209308346,"22","F","right","30214",1,1,0,0,FALSE,"semantic_n","E_F_ninet.png E_M_danker.png"
4550,"E_F_ilanit.png","P_M_lapid.png","FALSE","pictures/stimuli/E","pictures/stimuli/P","F","M","4",-0.00336270890573074,"22","F","right","30214",1,1,0,0,FALSE,"semantic_n","E_F_ilanit.png P_M_lapid.png"
7659,"P_M_saar.png","P_M_smut.png","TRUE","pictures/stimuli/P","pictures/stimuli/P","M","M","2",-1.28119209308346,"22","F","right","30214",1,1,0,0,FALSE,"semantic_n","P_M_saar.png P_M_smut.png"
5491,"P_F_michaeli.png","P_M_smut.png","TRUE","pictures/stimuli/P","pictures/stimuli/P","F","M","2",-1.28119209308346,"22","F","right","30214",1,1,0,0,FALSE,"semantic_n","P_F_michaeli.png P_M_smut.png"
4659,"E_M_ido.png","P_F_regev.png","FALSE","pictures/stimuli/E","pictures/stimuli/P","M","F","6",1.274466675272,"22","F","right","30214",1,1,0,0,FALSE,"semantic_n","E_M_ido.png P_F_regev.png"
3506,"E_F_ninet.png","P_M_gantz.png","FALSE","pictures/stimuli/E","pictures/stimuli/P","F","M","6",1.274466675272,"22","F","right","30214",1,1,0,0,FALSE,"semantic_n","E_F_ninet.png P_M_gantz.png"
3300,"E_F_galit_gutman.png","P_F_shaked.png","FALSE","pictures/stimuli/E","pictures/stimuli/P","F","F","5",0.635551983183134,"22","F","right","30214",1,1,0,0,FALSE,"semantic_n","E_F_galit_gutman.png P_F_shaked.png"
4447,"E_F_ninet.png","P_M_smut.png","FALSE","pictures/stimuli/E","pictures/stimuli/P","F","M","6",1.274466675272,"22","F","right","30214",1,1,0,0,FALSE,"semantic_n","E_F_ninet.png P_M_smut.png"
7923,"P_F_regev.png","P_M_gantz.png","TRUE","pictures/stimuli/P","pictures/stimuli/P","F","M","2",-1.28119209308346,"22","F","right","30214",1,1,0,0,FALSE,"semantic_n","P_F_regev.png P_M_gantz.png"
9552,"E_F_ninet.png","P_F_shaked.png","FALSE","pictures/stimuli/E","pictures/stimuli/P","F","F","5",0.635551983183134,"22","F","right","30214",1,1,0,0,FALSE,"semantic_n","E_F_ninet.png P_F_shaked.png"
4424,"E_F_rotem_sela.png","E_M_yuda.png","TRUE","pictures/stimuli/E","pictures/stimuli/E","F","M","2",-1.28119209308346,"22","F","right","30214",1,1,0,0,FALSE,"semantic_n","E_F_rotem_sela.png E_M_yuda.png"
9220,"E_F_ninet.png","E_M_asi.png","TRUE","pictures/stimuli/E","pictures/stimuli/E","F","M","2",-1.28119209308346,"22","F","right","30214",1,1,0,0,FALSE,"semantic_n","E_F_ninet.png E_M_asi.png"
8440,"P_M_buji.png","P_M_saar.png","TRUE","pictures/stimuli/P","pictures/stimuli/P","M","M","2",-1.28119209308346,"22","F","right","30214",1,1,0,0,FALSE,"semantic_n","P_M_buji.png P_M_saar.png"
13360,"E_F_galit_gutman.png","P_F_michaeli.png","FALSE","pictures/stimuli/E","pictures/stimuli/P","F","F","5",0.635551983183134,"22","F","right","30214",1,1,0,0,FALSE,"semantic_n","E_F_galit_gutman.png P_F_michaeli.png"
5761,"E_M_danker.png","E_M_liorA.png","TRUE","pictures/stimuli/E","pictures/stimuli/E","M","M","2",-1.28119209308346,"22","F","right","30214",1,1,0,0,FALSE,"semantic_n","E_M_danker.png E_M_liorA.png"
14211,"E_F_ilanit.png","E_M_yuda.png","TRUE","pictures/stimuli/E","pictures/stimuli/E","F","M","2",-1.28119209308346,"22","F","right","30214",1,1,0,0,FALSE,"semantic_n","E_F_ilanit.png E_M_yuda.png"
28671,"E_M_ido.png","P_M_gantz.png","FALSE","pictures/stimuli/E","pictures/stimuli/P","M","M","5",0.635551983183134,"22","F","right","30214",1,1,0,0,FALSE,"semantic_n","E_M_ido.png P_M_gantz.png"
5030,"E_F_shiri.png","E_M_danker.png","TRUE","pictures/stimuli/E","pictures/stimuli/E","F","M","2",-1.28119209308346,"22","F","right","30214",1,1,0,0,FALSE,"semantic_n","E_F_shiri.png E_M_danker.png"
3385,"E_F_rotem_sela.png","E_M_liorA.png","TRUE","pictures/stimuli/E","pictures/stimuli/E","F","M","3",-0.642277400994596,"22","F","right","30214",1,1,0,0,FALSE,"semantic_n","E_F_rotem_sela.png E_M_liorA.png"
12087,"E_M_danker.png","P_F_regev.png","FALSE","pictures/stimuli/E","pictures/stimuli/P","M","F","6",1.274466675272,"22","F","right","30214",1,1,0,0,FALSE,"semantic_n","E_M_danker.png P_F_regev.png"
4774,"E_F_galit_gutman.png","P_M_smut.png","FALSE","pictures/stimuli/E","pictures/stimuli/P","F","M","6",1.274466675272,"22","F","right","30214",1,1,0,0,FALSE,"semantic_n","E_F_galit_gutman.png P_M_smut.png"
6410,"P_F_staiv.png","P_M_gantz.png","TRUE","pictures/stimuli/P","pictures/stimuli/P","F","M","3",-0.642277400994596,"22","F","right","30214",1,1,0,0,FALSE,"semantic_n","P_F_staiv.png P_M_gantz.png"
10790,"P_F_regev.png","P_M_buji.png","TRUE","pictures/stimuli/P","pictures/stimuli/P","F","M","2",-1.28119209308346,"22","F","right","30214",1,1,0,0,FALSE,"semantic_n","P_F_regev.png P_M_buji.png"
18995,"E_M_liorA.png","P_M_buji.png","FALSE","pictures/stimuli/E","pictures/stimuli/P","M","M","5",0.635551983183134,"22","F","right","30214",1,1,0,0,FALSE,"semantic_n","E_M_liorA.png P_M_buji.png"
2571,"E_F_ninet.png","P_F_staiv.png","FALSE","pictures/stimuli/E","pictures/stimuli/P","F","F","5",0.635551983183134,"22","F","right","30214",1,1,0,0,FALSE,"semantic_n","E_F_ninet.png P_F_staiv.png"
9227,"E_F_ilanit.png","P_M_buji.png","FALSE","pictures/stimuli/E","pictures/stimuli/P","F","M","6",1.274466675272,"22","F","right","30214",1,1,0,0,FALSE,"semantic_n","E_F_ilanit.png P_M_buji.png"
3602,"P_M_benet.png","P_M_smut.png","TRUE","pictures/stimuli/P","pictures/stimuli/P","M","M","2",-1.28119209308346,"22","F","right","30214",1,1,0,0,FALSE,"semantic_n","P_M_benet.png P_M_smut.png"
2832,"E_F_galit_gutman.png","P_M_gantz.png","FALSE","pictures/stimuli/E","pictures/stimuli/P","F","M","6",1.274466675272,"22","F","right","30214",1,1,0,0,FALSE,"semantic_n","E_F_galit_gutman.png P_M_gantz.png"
2689,"E_M_ido.png","P_M_lapid.png","FALSE","pictures/stimuli/E","pictures/stimuli/P","M","M","4",-0.00336270890573074,"22","F","right","30214",1,1,0,0,FALSE,"semantic_n","E_M_ido.png P_M_lapid.png"
5374,"E_F_ilanit.png","E_F_ninet.png","TRUE","pictures/stimuli/E","pictures/stimuli/E","F","F","4",0.179504907299629,"23","F","right","30454",1,1,0,0,FALSE,"semantic_n","E_F_ilanit.png E_F_ninet.png"
3930,"E_F_rotem_sela.png","P_M_lapid.png","FALSE","pictures/stimuli/E","pictures/stimuli/P","F","M","5",0.777854598298395,"23","F","right","30454",1,1,0,0,FALSE,"semantic_n","E_F_rotem_sela.png P_M_lapid.png"
3186,"E_M_yuda.png","P_M_buji.png","FALSE","pictures/stimuli/E","pictures/stimuli/P","M","M","6",1.37620428929716,"23","F","right","30454",1,1,0,0,FALSE,"semantic_n","E_M_yuda.png P_M_buji.png"
2726,"E_M_asi.png","P_M_smut.png","FALSE","pictures/stimuli/E","pictures/stimuli/P","M","M","6",1.37620428929716,"23","F","right","30454",1,1,0,0,FALSE,"semantic_n","E_M_asi.png P_M_smut.png"
3467,"P_M_benet.png","P_M_smut.png","TRUE","pictures/stimuli/P","pictures/stimuli/P","M","M","2",-1.0171944746979,"23","F","right","30454",1,1,0,0,FALSE,"semantic_n","P_M_benet.png P_M_smut.png"
2291,"P_M_lapid.png","P_M_smut.png","TRUE","pictures/stimuli/P","pictures/stimuli/P","M","M","2",-1.0171944746979,"23","F","right","30454",1,1,0,0,FALSE,"semantic_n","P_M_lapid.png P_M_smut.png"
7432,"E_F_ninet.png","P_M_gantz.png","FALSE","pictures/stimuli/E","pictures/stimuli/P","F","M","5",0.777854598298395,"23","F","right","30454",1,1,0,0,FALSE,"semantic_n","E_F_ninet.png P_M_gantz.png"
1857,"E_F_galit_gutman.png","E_M_liorA.png","TRUE","pictures/stimuli/E","pictures/stimuli/E","F","M","5",0.777854598298395,"23","F","right","30454",1,1,0,0,FALSE,"semantic_n","E_F_galit_gutman.png E_M_liorA.png"
3723,"E_F_ilanit.png","E_M_liorA.png","TRUE","pictures/stimuli/E","pictures/stimuli/E","F","M","5",0.777854598298395,"23","F","right","30454",1,1,0,0,FALSE,"semantic_n","E_F_ilanit.png E_M_liorA.png"
11280,"E_F_ninet.png","P_M_saar.png","FALSE","pictures/stimuli/E","pictures/stimuli/P","F","M","5",0.777854598298395,"23","F","right","30454",1,1,0,0,FALSE,"semantic_n","E_F_ninet.png P_M_saar.png"
2027,"E_M_danker.png","P_M_smut.png","FALSE","pictures/stimuli/E","pictures/stimuli/P","M","M","5",0.777854598298395,"23","F","right","30454",1,1,0,0,FALSE,"semantic_n","E_M_danker.png P_M_smut.png"
3205,"E_M_ido.png","P_F_shaked.png","FALSE","pictures/stimuli/E","pictures/stimuli/P","M","F","4",0.179504907299629,"23","F","right","30454",1,1,0,0,FALSE,"semantic_n","E_M_ido.png P_F_shaked.png"
1793,"E_F_rotem_sela.png","P_M_smut.png","FALSE","pictures/stimuli/E","pictures/stimuli/P","F","M","5",0.777854598298395,"23","F","right","30454",1,1,0,0,FALSE,"semantic_n","E_F_rotem_sela.png P_M_smut.png"
1823,"E_M_asi.png","P_F_shaked.png","FALSE","pictures/stimuli/E","pictures/stimuli/P","M","F","5",0.777854598298395,"23","F","right","30454",1,1,0,0,FALSE,"semantic_n","E_M_asi.png P_F_shaked.png"
1921,"E_F_ilanit.png","P_F_shaked.png","FALSE","pictures/stimuli/E","pictures/stimuli/P","F","F","5",0.777854598298395,"23","F","right","30454",1,1,0,0,FALSE,"semantic_n","E_F_ilanit.png P_F_shaked.png"
1965,"P_M_lapid.png","P_M_buji.png","TRUE","pictures/stimuli/P","pictures/stimuli/P","M","M","2",-1.0171944746979,"23","F","right","30454",1,1,0,0,FALSE,"semantic_n","P_M_buji.png P_M_lapid.png"
2784,"E_F_galit_gutman.png","E_M_ido.png","TRUE","pictures/stimuli/E","pictures/stimuli/E","F","M","3",-0.418844783699136,"23","F","right","30454",1,1,0,0,FALSE,"semantic_n","E_F_galit_gutman.png E_M_ido.png"
3582,"E_M_asi.png","E_M_ido.png","TRUE","pictures/stimuli/E","pictures/stimuli/E","M","M","1",-1.61554416569667,"23","F","right","30454",1,1,0,0,FALSE,"semantic_n","E_M_asi.png E_M_ido.png"
2009,"E_F_galit_gutman.png","P_F_shaked.png","FALSE","pictures/stimuli/E","pictures/stimuli/P","F","F","5",0.777854598298395,"23","F","right","30454",1,1,0,0,FALSE,"semantic_n","E_F_galit_gutman.png P_F_shaked.png"
2197,"E_F_ninet.png","E_F_rotem_sela.png","TRUE","pictures/stimuli/E","pictures/stimuli/E","F","F","1",-1.61554416569667,"23","F","right","30454",1,1,0,0,FALSE,"semantic_n","E_F_ninet.png E_F_rotem_sela.png"
1947,"P_M_buji.png","P_M_saar.png","TRUE","pictures/stimuli/P","pictures/stimuli/P","M","M","2",-1.0171944746979,"23","F","right","30454",1,1,0,0,FALSE,"semantic_n","P_M_buji.png P_M_saar.png"
2757,"E_M_danker.png","P_M_saar.png","FALSE","pictures/stimuli/E","pictures/stimuli/P","M","M","6",1.37620428929716,"23","F","right","30454",1,1,0,0,FALSE,"semantic_n","E_M_danker.png P_M_saar.png"
2535,"E_F_ninet.png","E_M_liorA.png","TRUE","pictures/stimuli/E","pictures/stimuli/E","F","M","2",-1.0171944746979,"23","F","right","30454",1,1,0,0,FALSE,"semantic_n","E_F_ninet.png E_M_liorA.png"
2797,"P_F_michaeli.png","P_M_buji.png","TRUE","pictures/stimuli/P","pictures/stimuli/P","F","M","2",-1.0171944746979,"23","F","right","30454",1,1,0,0,FALSE,"semantic_n","P_F_michaeli.png P_M_buji.png"
2115,"E_F_ninet.png","E_M_ido.png","TRUE","pictures/stimuli/E","pictures/stimuli/E","F","M","5",0.777854598298395,"23","F","right","30454",1,1,0,0,FALSE,"semantic_n","E_F_ninet.png E_M_ido.png"
2121,"E_F_shiri.png","P_M_smut.png","FALSE","pictures/stimuli/E","pictures/stimuli/P","F","M","5",0.777854598298395,"23","F","right","30454",1,1,0,0,FALSE,"semantic_n","E_F_shiri.png P_M_smut.png"
2305,"E_F_galit_gutman.png","E_F_ninet.png","TRUE","pictures/stimuli/E","pictures/stimuli/E","F","F","2",-1.0171944746979,"23","F","right","30454",1,1,0,0,FALSE,"semantic_n","E_F_galit_gutman.png E_F_ninet.png"
1703,"E_F_ninet.png","P_M_buji.png","FALSE","pictures/stimuli/E","pictures/stimuli/P","F","M","4",0.179504907299629,"23","F","right","30454",1,1,0,0,FALSE,"semantic_n","E_F_ninet.png P_M_buji.png"
1859,"E_F_galit_gutman.png","P_M_smut.png","FALSE","pictures/stimuli/E","pictures/stimuli/P","F","M","5",0.777854598298395,"23","F","right","30454",1,1,0,0,FALSE,"semantic_n","E_F_galit_gutman.png P_M_smut.png"
2391,"E_M_yuda.png","P_F_shaked.png","FALSE","pictures/stimuli/E","pictures/stimuli/P","M","F","5",0.777854598298395,"23","F","right","30454",1,1,0,0,FALSE,"semantic_n","E_M_yuda.png P_F_shaked.png"
2042,"E_M_danker.png","P_F_shaked.png","FALSE","pictures/stimuli/E","pictures/stimuli/P","M","F","5",0.777854598298395,"23","F","right","30454",1,1,0,0,FALSE,"semantic_n","E_M_danker.png P_F_shaked.png"
2320,"P_M_lapid.png","P_M_benet.png","TRUE","pictures/stimuli/P","pictures/stimuli/P","M","M","1",-1.61554416569667,"23","F","right","30454",1,1,0,0,FALSE,"semantic_n","P_M_benet.png P_M_lapid.png"
2018,"E_M_asi.png","P_F_regev.png","FALSE","pictures/stimuli/E","pictures/stimuli/P","M","F","5",0.777854598298395,"23","F","right","30454",1,1,0,0,FALSE,"semantic_n","E_M_asi.png P_F_regev.png"
2529,"E_M_asi.png","P_M_benet.png","FALSE","pictures/stimuli/E","pictures/stimuli/P","M","M","5",0.777854598298395,"23","F","right","30454",1,1,0,0,FALSE,"semantic_n","E_M_asi.png P_M_benet.png"
2187,"P_M_gantz.png","P_M_saar.png","TRUE","pictures/stimuli/P","pictures/stimuli/P","M","M","2",-1.0171944746979,"23","F","right","30454",1,1,0,0,FALSE,"semantic_n","P_M_gantz.png P_M_saar.png"
2686,"E_F_ilanit.png","E_M_danker.png","TRUE","pictures/stimuli/E","pictures/stimuli/E","F","M","2",-1.0171944746979,"23","F","right","30454",1,1,0,0,FALSE,"semantic_n","E_F_ilanit.png E_M_danker.png"
2150,"E_F_ilanit.png","P_M_benet.png","FALSE","pictures/stimuli/E","pictures/stimuli/P","F","M","5",0.777854598298395,"23","F","right","30454",1,1,0,0,FALSE,"semantic_n","E_F_ilanit.png P_M_benet.png"
2963,"E_F_ilanit.png","P_F_staiv.png","FALSE","pictures/stimuli/E","pictures/stimuli/P","F","F","5",0.777854598298395,"23","F","right","30454",1,1,0,0,FALSE,"semantic_n","E_F_ilanit.png P_F_staiv.png"
2440,"P_M_benet.png","P_M_buji.png","TRUE","pictures/stimuli/P","pictures/stimuli/P","M","M","2",-1.0171944746979,"23","F","right","30454",1,1,0,0,FALSE,"semantic_n","P_M_benet.png P_M_buji.png"
2628,"P_F_staiv.png","P_M_benet.png","TRUE","pictures/stimuli/P","pictures/stimuli/P","F","M","3",-0.418844783699136,"23","F","right","30454",1,1,0,0,FALSE,"semantic_n","P_F_staiv.png P_M_benet.png"
2552,"E_M_liorA.png","P_M_buji.png","FALSE","pictures/stimuli/E","pictures/stimuli/P","M","M","5",0.777854598298395,"23","F","right","30454",1,1,0,0,FALSE,"semantic_n","E_M_liorA.png P_M_buji.png"
1901,"E_F_shiri.png","P_F_michaeli.png","FALSE","pictures/stimuli/E","pictures/stimuli/P","F","F","5",0.777854598298395,"23","F","right","30454",1,1,0,0,FALSE,"semantic_n","E_F_shiri.png P_F_michaeli.png"
4740,"E_M_asi.png","P_M_lapid.png","FALSE","pictures/stimuli/E","pictures/stimuli/P","M","M","3",-0.418844783699136,"23","F","right","30454",1,1,0,0,FALSE,"semantic_n","E_M_asi.png P_M_lapid.png"
1651,"E_F_ilanit.png","P_M_buji.png","FALSE","pictures/stimuli/E","pictures/stimuli/P","F","M","4",0.179504907299629,"23","F","right","30454",1,1,0,0,FALSE,"semantic_n","E_F_ilanit.png P_M_buji.png"
2661,"E_M_yuda.png","P_F_michaeli.png","FALSE","pictures/stimuli/E","pictures/stimuli/P","M","F","5",0.777854598298395,"23","F","right","30454",1,1,0,0,FALSE,"semantic_n","E_M_yuda.png P_F_michaeli.png"
