"RT","img_1","img_2","isSameProffesion","img1proffesion","img2proffesion","img1Gender","img2Gender","keyPressed","normlised_keyPress","age","gender","handedness","participant","isFamiliar_img1","isFamiliar_img2","vividness_img1","vividness_img2","reject_trial","pair"
24363,"P_M_lapid.png","P_M_benet.png","TRUE","pictures/stimuli/P","pictures/stimuli/P","M","M","2",-1.28119209308346,"22","F","right","30214",1,1,0,0,FALSE,"P_M_benet.png P_M_lapid.png"
16332,"E_M_liorA.png","E_M_yuda.png","TRUE","pictures/stimuli/E","pictures/stimuli/E","M","M","4",-0.00336270890573074,"22","F","right","30214",1,1,0,0,FALSE,"E_M_liorA.png E_M_yuda.png"
17674,"E_F_rotem_sela.png","P_M_smut.png","FALSE","pictures/stimuli/E","pictures/stimuli/P","F","M","5",0.635551983183134,"22","F","right","30214",1,1,0,0,FALSE,"E_F_rotem_sela.png P_M_smut.png"
20781,"E_M_ido.png","P_M_buji.png","FALSE","pictures/stimuli/E","pictures/stimuli/P","M","M","5",0.635551983183134,"22","F","right","30214",1,1,0,0,FALSE,"E_M_ido.png P_M_buji.png"
5212,"E_M_danker.png","P_M_benet.png","FALSE","pictures/stimuli/E","pictures/stimuli/P","M","M","6",1.274466675272,"22","F","right","30214",1,1,0,0,FALSE,"E_M_danker.png P_M_benet.png"
12005,"P_M_lapid.png","P_M_smut.png","TRUE","pictures/stimuli/P","pictures/stimuli/P","M","M","2",-1.28119209308346,"22","F","right","30214",1,1,0,0,FALSE,"P_M_lapid.png P_M_smut.png"
15376,"E_F_rotem_sela.png","P_M_gantz.png","FALSE","pictures/stimuli/E","pictures/stimuli/P","F","M","5",0.635551983183134,"22","F","right","30214",1,1,0,0,FALSE,"E_F_rotem_sela.png P_M_gantz.png"
6891,"E_M_danker.png","P_M_lapid.png","FALSE","pictures/stimuli/E","pictures/stimuli/P","M","M","5",0.635551983183134,"22","F","right","30214",1,1,0,0,FALSE,"E_M_danker.png P_M_lapid.png"
14267,"E_F_ninet.png","P_F_regev.png","FALSE","pictures/stimuli/E","pictures/stimuli/P","F","F","5",0.635551983183134,"22","F","right","30214",1,1,0,0,FALSE,"E_F_ninet.png P_F_regev.png"
4824,"E_F_shiri.png","P_M_gantz.png","FALSE","pictures/stimuli/E","pictures/stimuli/P","F","M","6",1.274466675272,"22","F","right","30214",1,1,0,0,FALSE,"E_F_shiri.png P_M_gantz.png"
26309,"E_F_ilanit.png","E_F_ninet.png","TRUE","pictures/stimuli/E","pictures/stimuli/E","F","F","5",0.635551983183134,"22","F","right","30214",1,1,0,0,FALSE,"E_F_ilanit.png E_F_ninet.png"
15214,"E_F_shiri.png","E_M_asi.png","TRUE","pictures/stimuli/E","pictures/stimuli/E","F","M","4",-0.00336270890573074,"22","F","right","30214",1,1,0,0,FALSE,"E_F_shiri.png E_M_asi.png"
8721,"P_F_regev.png","P_F_staiv.png","TRUE","pictures/stimuli/P","pictures/stimuli/P","F","F","3",-0.642277400994596,"22","F","right","30214",1,1,0,0,FALSE,"P_F_regev.png P_F_staiv.png"
7619,"P_M_gantz.png","P_M_buji.png","TRUE","pictures/stimuli/P","pictures/stimuli/P","M","M","2",-1.28119209308346,"22","F","right","30214",1,1,0,0,FALSE,"P_M_buji.png P_M_gantz.png"
7463,"E_F_shiri.png","P_F_regev.png","FALSE","pictures/stimuli/E","pictures/stimuli/P","F","F","5",0.635551983183134,"22","F","right","30214",1,1,0,0,FALSE,"E_F_shiri.png P_F_regev.png"
2406,"E_F_shiri.png","P_M_smut.png","FALSE","pictures/stimuli/E","pictures/stimuli/P","F","M","6",1.274466675272,"22","F","right","30214",1,1,0,0,FALSE,"E_F_shiri.png P_M_smut.png"
7330,"E_F_ilanit.png","P_M_saar.png","FALSE","pictures/stimuli/E","pictures/stimuli/P","F","M","5",0.635551983183134,"22","F","right","30214",1,1,0,0,FALSE,"E_F_ilanit.png P_M_saar.png"
16626,"E_F_galit_gutman.png","P_M_lapid.png","FALSE","pictures/stimuli/E","pictures/stimuli/P","F","M","2",-1.28119209308346,"22","F","right","30214",1,1,0,0,FALSE,"E_F_galit_gutman.png P_M_lapid.png"
6927,"E_M_liorA.png","P_F_staiv.png","FALSE","pictures/stimuli/E","pictures/stimuli/P","M","F","6",1.274466675272,"22","F","right","30214",1,1,0,0,FALSE,"E_M_liorA.png P_F_staiv.png"
25511,"E_F_ilanit.png","E_M_ido.png","TRUE","pictures/stimuli/E","pictures/stimuli/E","F","M","4",-0.00336270890573074,"22","F","right","30214",1,1,0,0,FALSE,"E_F_ilanit.png E_M_ido.png"
6421,"P_F_staiv.png","P_M_lapid.png","TRUE","pictures/stimuli/P","pictures/stimuli/P","F","M","3",-0.642277400994596,"22","F","right","30214",1,1,0,0,FALSE,"P_F_staiv.png P_M_lapid.png"
2174,"P_F_regev.png","P_M_saar.png","TRUE","pictures/stimuli/P","pictures/stimuli/P","F","M","3",-0.642277400994596,"22","F","right","30214",1,1,0,0,FALSE,"P_F_regev.png P_M_saar.png"
10122,"E_M_danker.png","P_F_michaeli.png","FALSE","pictures/stimuli/E","pictures/stimuli/P","M","F","5",0.635551983183134,"22","F","right","30214",1,1,0,0,FALSE,"E_M_danker.png P_F_michaeli.png"
4438,"P_M_lapid.png","P_M_buji.png","TRUE","pictures/stimuli/P","pictures/stimuli/P","M","M","3",-0.642277400994596,"22","F","right","30214",1,1,0,0,FALSE,"P_M_buji.png P_M_lapid.png"
7635,"P_F_michaeli.png","P_M_saar.png","TRUE","pictures/stimuli/P","pictures/stimuli/P","F","M","4",-0.00336270890573074,"22","F","right","30214",1,1,0,0,FALSE,"P_F_michaeli.png P_M_saar.png"
4723,"P_F_michaeli.png","P_M_lapid.png","TRUE","pictures/stimuli/P","pictures/stimuli/P","F","M","5",0.635551983183134,"22","F","right","30214",1,1,0,0,FALSE,"P_F_michaeli.png P_M_lapid.png"
33915,"E_M_liorA.png","P_M_gantz.png","FALSE","pictures/stimuli/E","pictures/stimuli/P","M","M","5",0.635551983183134,"22","F","right","30214",1,1,0,0,TRUE,"E_M_liorA.png P_M_gantz.png"
3581,"E_F_galit_gutman.png","E_M_asi.png","TRUE","pictures/stimuli/E","pictures/stimuli/E","F","M","3",-0.642277400994596,"22","F","right","30214",1,1,0,0,FALSE,"E_F_galit_gutman.png E_M_asi.png"
3559,"E_M_yuda.png","P_F_michaeli.png","FALSE","pictures/stimuli/E","pictures/stimuli/P","M","F","6",1.274466675272,"22","F","right","30214",1,1,0,0,FALSE,"E_M_yuda.png P_F_michaeli.png"
5781,"E_M_asi.png","P_M_gantz.png","FALSE","pictures/stimuli/E","pictures/stimuli/P","M","M","5",0.635551983183134,"22","F","right","30214",1,1,0,0,FALSE,"E_M_asi.png P_M_gantz.png"
3884,"E_M_asi.png","P_F_regev.png","FALSE","pictures/stimuli/E","pictures/stimuli/P","M","F","5",0.635551983183134,"22","F","right","30214",1,1,0,0,FALSE,"E_M_asi.png P_F_regev.png"
3175,"E_M_yuda.png","P_M_smut.png","FALSE","pictures/stimuli/E","pictures/stimuli/P","M","M","6",1.274466675272,"22","F","right","30214",1,1,0,0,FALSE,"E_M_yuda.png P_M_smut.png"
4551,"E_F_galit_gutman.png","E_F_ninet.png","TRUE","pictures/stimuli/E","pictures/stimuli/E","F","F","4",-0.00336270890573074,"22","F","right","30214",1,1,0,0,FALSE,"E_F_galit_gutman.png E_F_ninet.png"
5072,"E_M_liorA.png","P_M_smut.png","FALSE","pictures/stimuli/E","pictures/stimuli/P","M","M","5",0.635551983183134,"22","F","right","30214",1,1,0,0,FALSE,"E_M_liorA.png P_M_smut.png"
4614,"P_M_benet.png","P_M_buji.png","TRUE","pictures/stimuli/P","pictures/stimuli/P","M","M","3",-0.642277400994596,"22","F","right","30214",1,1,0,0,FALSE,"P_M_benet.png P_M_buji.png"
4186,"E_F_rotem_sela.png","P_M_buji.png","FALSE","pictures/stimuli/E","pictures/stimuli/P","F","M","6",1.274466675272,"22","F","right","30214",1,1,0,0,FALSE,"E_F_rotem_sela.png P_M_buji.png"
6993,"P_F_michaeli.png","P_F_staiv.png","TRUE","pictures/stimuli/P","pictures/stimuli/P","F","F","2",-1.28119209308346,"22","F","right","30214",1,1,0,0,FALSE,"P_F_michaeli.png P_F_staiv.png"
5877,"E_F_ilanit.png","P_M_gantz.png","FALSE","pictures/stimuli/E","pictures/stimuli/P","F","M","5",0.635551983183134,"22","F","right","30214",1,1,0,0,FALSE,"E_F_ilanit.png P_M_gantz.png"
3447,"E_F_shiri.png","E_M_yuda.png","TRUE","pictures/stimuli/E","pictures/stimuli/E","F","M","3",-0.642277400994596,"22","F","right","30214",1,1,0,0,FALSE,"E_F_shiri.png E_M_yuda.png"
5964,"P_F_regev.png","P_M_benet.png","TRUE","pictures/stimuli/P","pictures/stimuli/P","F","M","3",-0.642277400994596,"22","F","right","30214",1,1,0,0,FALSE,"P_F_regev.png P_M_benet.png"
2625,"P_F_staiv.png","P_M_saar.png","TRUE","pictures/stimuli/P","pictures/stimuli/P","F","M","3",-0.642277400994596,"22","F","right","30214",1,1,0,0,FALSE,"P_F_staiv.png P_M_saar.png"
6134,"E_F_rotem_sela.png","P_F_staiv.png","FALSE","pictures/stimuli/E","pictures/stimuli/P","F","F","6",1.274466675272,"22","F","right","30214",1,1,0,0,FALSE,"E_F_rotem_sela.png P_F_staiv.png"
3241,"E_F_galit_gutman.png","P_M_buji.png","FALSE","pictures/stimuli/E","pictures/stimuli/P","F","M","6",1.274466675272,"22","F","right","30214",1,1,0,0,FALSE,"E_F_galit_gutman.png P_M_buji.png"
14064,"E_M_ido.png","P_F_staiv.png","FALSE","pictures/stimuli/E","pictures/stimuli/P","M","F","6",1.274466675272,"22","F","right","30214",1,1,0,0,FALSE,"E_M_ido.png P_F_staiv.png"
6057,"E_F_ninet.png","P_M_lapid.png","FALSE","pictures/stimuli/E","pictures/stimuli/P","F","M","5",0.635551983183134,"22","F","right","30214",1,1,0,0,FALSE,"E_F_ninet.png P_M_lapid.png"
2934,"E_F_ilanit.png","P_M_smut.png","FALSE","pictures/stimuli/E","pictures/stimuli/P","F","M","6",1.274466675272,"22","F","right","30214",1,1,0,0,FALSE,"E_F_ilanit.png P_M_smut.png"
3281,"E_F_shiri.png","P_M_saar.png","FALSE","pictures/stimuli/E","pictures/stimuli/P","F","M","6",1.274466675272,"22","F","right","30214",1,1,0,0,FALSE,"E_F_shiri.png P_M_saar.png"
6269,"E_F_galit_gutman.png","E_F_ilanit.png","TRUE","pictures/stimuli/E","pictures/stimuli/E","F","F","1",-1.92010678517233,"22","F","right","30214",1,1,0,0,FALSE,"E_F_galit_gutman.png E_F_ilanit.png"
5113,"E_F_rotem_sela.png","P_F_regev.png","FALSE","pictures/stimuli/E","pictures/stimuli/P","F","F","6",1.274466675272,"22","F","right","30214",1,1,0,0,FALSE,"E_F_rotem_sela.png P_F_regev.png"
5462,"E_M_asi.png","P_F_shaked.png","FALSE","pictures/stimuli/E","pictures/stimuli/P","M","F","6",1.274466675272,"22","F","right","30214",1,1,0,0,FALSE,"E_M_asi.png P_F_shaked.png"
6042,"E_F_rotem_sela.png","P_M_lapid.png","FALSE","pictures/stimuli/E","pictures/stimuli/P","F","M","5",0.635551983183134,"22","F","right","30214",1,1,0,0,FALSE,"E_F_rotem_sela.png P_M_lapid.png"
7604,"E_M_yuda.png","P_M_buji.png","FALSE","pictures/stimuli/E","pictures/stimuli/P","M","M","6",1.274466675272,"22","F","right","30214",1,1,0,0,FALSE,"E_M_yuda.png P_M_buji.png"
3889,"E_F_ninet.png","P_F_michaeli.png","FALSE","pictures/stimuli/E","pictures/stimuli/P","F","F","6",1.274466675272,"22","F","right","30214",1,1,0,0,FALSE,"E_F_ninet.png P_F_michaeli.png"
7639,"P_M_benet.png","P_M_saar.png","TRUE","pictures/stimuli/P","pictures/stimuli/P","M","M","2",-1.28119209308346,"22","F","right","30214",1,1,0,0,FALSE,"P_M_benet.png P_M_saar.png"
8899,"E_M_liorA.png","P_F_michaeli.png","FALSE","pictures/stimuli/E","pictures/stimuli/P","M","F","5",0.635551983183134,"22","F","right","30214",1,1,0,0,FALSE,"E_M_liorA.png P_F_michaeli.png"
4508,"P_F_michaeli.png","P_M_buji.png","TRUE","pictures/stimuli/P","pictures/stimuli/P","F","M","3",-0.642277400994596,"22","F","right","30214",1,1,0,0,FALSE,"P_F_michaeli.png P_M_buji.png"
4411,"E_M_danker.png","P_M_buji.png","FALSE","pictures/stimuli/E","pictures/stimuli/P","M","M","6",1.274466675272,"22","F","right","30214",1,1,0,0,FALSE,"E_M_danker.png P_M_buji.png"
5167,"E_F_rotem_sela.png","P_F_michaeli.png","FALSE","pictures/stimuli/E","pictures/stimuli/P","F","F","5",0.635551983183134,"22","F","right","30214",1,1,0,0,FALSE,"E_F_rotem_sela.png P_F_michaeli.png"
14632,"P_F_regev.png","P_M_smut.png","TRUE","pictures/stimuli/P","pictures/stimuli/P","F","M","3",-0.642277400994596,"22","F","right","30214",1,1,0,0,FALSE,"P_F_regev.png P_M_smut.png"
7628,"E_M_liorA.png","P_M_benet.png","FALSE","pictures/stimuli/E","pictures/stimuli/P","M","M","5",0.635551983183134,"22","F","right","30214",1,1,0,0,FALSE,"E_M_liorA.png P_M_benet.png"
3580,"E_M_ido.png","P_F_michaeli.png","FALSE","pictures/stimuli/E","pictures/stimuli/P","M","F","6",1.274466675272,"22","F","right","30214",1,1,0,0,FALSE,"E_M_ido.png P_F_michaeli.png"
5755,"P_F_shaked.png","P_M_benet.png","TRUE","pictures/stimuli/P","pictures/stimuli/P","F","M","2",-1.28119209308346,"22","F","right","30214",1,1,0,0,FALSE,"P_F_shaked.png P_M_benet.png"
4154,"E_F_rotem_sela.png","P_M_saar.png","FALSE","pictures/stimuli/E","pictures/stimuli/P","F","M","6",1.274466675272,"22","F","right","30214",1,1,0,0,FALSE,"E_F_rotem_sela.png P_M_saar.png"
3962,"E_F_rotem_sela.png","E_F_shiri.png","TRUE","pictures/stimuli/E","pictures/stimuli/E","F","F","2",-1.28119209308346,"22","F","right","30214",1,1,0,0,FALSE,"E_F_rotem_sela.png E_F_shiri.png"
4516,"P_F_michaeli.png","P_F_regev.png","TRUE","pictures/stimuli/P","pictures/stimuli/P","F","F","2",-1.28119209308346,"22","F","right","30214",1,1,0,0,FALSE,"P_F_michaeli.png P_F_regev.png"
3099,"E_F_ninet.png","E_F_rotem_sela.png","TRUE","pictures/stimuli/E","pictures/stimuli/E","F","F","3",-0.642277400994596,"22","F","right","30214",1,1,0,0,FALSE,"E_F_ninet.png E_F_rotem_sela.png"
5448,"P_M_buji.png","P_M_smut.png","TRUE","pictures/stimuli/P","pictures/stimuli/P","M","M","3",-0.642277400994596,"22","F","right","30214",1,1,0,0,FALSE,"P_M_buji.png P_M_smut.png"
16830,"E_F_galit_gutman.png","P_F_staiv.png","FALSE","pictures/stimuli/E","pictures/stimuli/P","F","F","3",-0.642277400994596,"22","F","right","30214",1,1,0,0,FALSE,"E_F_galit_gutman.png P_F_staiv.png"
14640,"E_M_ido.png","P_M_benet.png","FALSE","pictures/stimuli/E","pictures/stimuli/P","M","M","5",0.635551983183134,"22","F","right","30214",1,1,0,0,FALSE,"E_M_ido.png P_M_benet.png"
3543,"P_F_michaeli.png","P_M_benet.png","TRUE","pictures/stimuli/P","pictures/stimuli/P","F","M","2",-1.28119209308346,"22","F","right","30214",1,1,0,0,FALSE,"P_F_michaeli.png P_M_benet.png"
3207,"P_F_staiv.png","P_M_benet.png","TRUE","pictures/stimuli/P","pictures/stimuli/P","F","M","3",-0.642277400994596,"22","F","right","30214",1,1,0,0,FALSE,"P_F_staiv.png P_M_benet.png"
5743,"E_F_galit_gutman.png","E_M_yuda.png","TRUE","pictures/stimuli/E","pictures/stimuli/E","F","M","3",-0.642277400994596,"22","F","right","30214",1,1,0,0,FALSE,"E_F_galit_gutman.png E_M_yuda.png"
3378,"E_F_galit_gutman.png","E_M_ido.png","TRUE","pictures/stimuli/E","pictures/stimuli/E","F","M","3",-0.642277400994596,"22","F","right","30214",1,1,0,0,FALSE,"E_F_galit_gutman.png E_M_ido.png"
4016,"E_M_danker.png","P_M_gantz.png","FALSE","pictures/stimuli/E","pictures/stimuli/P","M","M","5",0.635551983183134,"22","F","right","30214",1,1,0,0,FALSE,"E_M_danker.png P_M_gantz.png"
12982,"E_F_ilanit.png","P_M_benet.png","FALSE","pictures/stimuli/E","pictures/stimuli/P","F","M","5",0.635551983183134,"22","F","right","30214",1,1,0,0,FALSE,"E_F_ilanit.png P_M_benet.png"
2900,"E_F_ninet.png","P_M_saar.png","FALSE","pictures/stimuli/E","pictures/stimuli/P","F","M","6",1.274466675272,"22","F","right","30214",1,1,0,0,FALSE,"E_F_ninet.png P_M_saar.png"
3646,"E_M_asi.png","E_M_yuda.png","TRUE","pictures/stimuli/E","pictures/stimuli/E","M","M","3",-0.642277400994596,"22","F","right","30214",1,1,0,0,FALSE,"E_M_asi.png E_M_yuda.png"
16286,"E_M_asi.png","E_M_ido.png","TRUE","pictures/stimuli/E","pictures/stimuli/E","M","M","2",-1.28119209308346,"22","F","right","30214",1,1,0,0,FALSE,"E_M_asi.png E_M_ido.png"
19655,"P_F_shaked.png","P_F_staiv.png","TRUE","pictures/stimuli/P","pictures/stimuli/P","F","F","3",-0.642277400994596,"22","F","right","30214",1,1,0,0,FALSE,"P_F_shaked.png P_F_staiv.png"
4683,"E_F_ninet.png","E_M_ido.png","TRUE","pictures/stimuli/E","pictures/stimuli/E","F","M","3",-0.642277400994596,"22","F","right","30214",1,1,0,0,FALSE,"E_F_ninet.png E_M_ido.png"
8488,"E_M_danker.png","P_M_smut.png","FALSE","pictures/stimuli/E","pictures/stimuli/P","M","M","4",-0.00336270890573074,"22","F","right","30214",1,1,0,0,FALSE,"E_M_danker.png P_M_smut.png"
5386,"E_F_ilanit.png","P_F_shaked.png","FALSE","pictures/stimuli/E","pictures/stimuli/P","F","F","4",-0.00336270890573074,"22","F","right","30214",1,1,0,0,FALSE,"E_F_ilanit.png P_F_shaked.png"
4869,"E_M_ido.png","P_F_shaked.png","FALSE","pictures/stimuli/E","pictures/stimuli/P","M","F","5",0.635551983183134,"22","F","right","30214",1,1,0,0,FALSE,"E_M_ido.png P_F_shaked.png"
3633,"E_M_yuda.png","P_M_saar.png","FALSE","pictures/stimuli/E","pictures/stimuli/P","M","M","5",0.635551983183134,"22","F","right","30214",1,1,0,0,FALSE,"E_M_yuda.png P_M_saar.png"
33265,"E_F_ilanit.png","E_F_rotem_sela.png","TRUE","pictures/stimuli/E","pictures/stimuli/E","F","F","2",-1.28119209308346,"22","F","right","30214",1,1,0,0,TRUE,"E_F_ilanit.png E_F_rotem_sela.png"
4168,"E_F_ninet.png","E_M_liorA.png","TRUE","pictures/stimuli/E","pictures/stimuli/E","F","M","3",-0.642277400994596,"22","F","right","30214",1,1,0,0,FALSE,"E_F_ninet.png E_M_liorA.png"
13320,"P_M_lapid.png","P_M_saar.png","TRUE","pictures/stimuli/P","pictures/stimuli/P","M","M","2",-1.28119209308346,"22","F","right","30214",1,1,0,0,FALSE,"P_M_lapid.png P_M_saar.png"
10797,"E_F_shiri.png","P_M_buji.png","FALSE","pictures/stimuli/E","pictures/stimuli/P","F","M","6",1.274466675272,"22","F","right","30214",1,1,0,0,FALSE,"E_F_shiri.png P_M_buji.png"
24082,"E_M_yuda.png","P_F_shaked.png","FALSE","pictures/stimuli/E","pictures/stimuli/P","M","F","5",0.635551983183134,"22","F","right","30214",1,1,0,0,FALSE,"E_M_yuda.png P_F_shaked.png"
5481,"E_F_shiri.png","E_M_liorA.png","TRUE","pictures/stimuli/E","pictures/stimuli/E","F","M","3",-0.642277400994596,"22","F","right","30214",1,1,0,0,FALSE,"E_F_shiri.png E_M_liorA.png"
3097,"E_F_shiri.png","E_M_ido.png","TRUE","pictures/stimuli/E","pictures/stimuli/E","F","M","3",-0.642277400994596,"22","F","right","30214",1,1,0,0,FALSE,"E_F_shiri.png E_M_ido.png"
18618,"P_F_regev.png","P_F_shaked.png","TRUE","pictures/stimuli/P","pictures/stimuli/P","F","F","2",-1.28119209308346,"22","F","right","30214",1,1,0,0,FALSE,"P_F_regev.png P_F_shaked.png"
17072,"P_F_staiv.png","P_M_smut.png","TRUE","pictures/stimuli/P","pictures/stimuli/P","F","M","3",-0.642277400994596,"22","F","right","30214",1,1,0,0,FALSE,"P_F_staiv.png P_M_smut.png"
8976,"E_F_galit_gutman.png","E_M_danker.png","TRUE","pictures/stimuli/E","pictures/stimuli/E","F","M","2",-1.28119209308346,"22","F","right","30214",1,1,0,0,FALSE,"E_F_galit_gutman.png E_M_danker.png"
35366,"E_F_shiri.png","P_F_michaeli.png","FALSE","pictures/stimuli/E","pictures/stimuli/P","F","F","4",-0.00336270890573074,"22","F","right","30214",1,1,0,0,TRUE,"E_F_shiri.png P_F_michaeli.png"
8544,"E_M_asi.png","P_M_smut.png","FALSE","pictures/stimuli/E","pictures/stimuli/P","M","M","5",0.635551983183134,"22","F","right","30214",1,1,0,0,FALSE,"E_M_asi.png P_M_smut.png"
20098,"E_M_ido.png","P_M_smut.png","FALSE","pictures/stimuli/E","pictures/stimuli/P","M","M","5",0.635551983183134,"22","F","right","30214",1,1,0,0,FALSE,"E_M_ido.png P_M_smut.png"
17262,"P_F_shaked.png","P_M_saar.png","TRUE","pictures/stimuli/P","pictures/stimuli/P","F","M","4",-0.00336270890573074,"22","F","right","30214",1,1,0,0,FALSE,"P_F_shaked.png P_M_saar.png"
13976,"E_M_yuda.png","P_M_lapid.png","FALSE","pictures/stimuli/E","pictures/stimuli/P","M","M","4",-0.00336270890573074,"22","F","right","30214",1,1,0,0,FALSE,"E_M_yuda.png P_M_lapid.png"
6868,"P_F_shaked.png","P_M_smut.png","TRUE","pictures/stimuli/P","pictures/stimuli/P","F","M","3",-0.642277400994596,"22","F","right","30214",1,1,0,0,FALSE,"P_F_shaked.png P_M_smut.png"
17667,"E_F_ilanit.png","E_M_danker.png","TRUE","pictures/stimuli/E","pictures/stimuli/E","F","M","2",-1.28119209308346,"22","F","right","30214",1,1,0,0,FALSE,"E_F_ilanit.png E_M_danker.png"
5245,"E_F_ilanit.png","E_M_liorA.png","TRUE","pictures/stimuli/E","pictures/stimuli/E","F","M","3",-0.642277400994596,"22","F","right","30214",1,1,0,0,FALSE,"E_F_ilanit.png E_M_liorA.png"
22647,"E_F_galit_gutman.png","E_F_shiri.png","TRUE","pictures/stimuli/E","pictures/stimuli/E","F","F","2",-1.28119209308346,"22","F","right","30214",1,1,0,0,FALSE,"E_F_galit_gutman.png E_F_shiri.png"
15929,"E_F_galit_gutman.png","E_F_rotem_sela.png","TRUE","pictures/stimuli/E","pictures/stimuli/E","F","F","1",-1.92010678517233,"22","F","right","30214",1,1,0,0,FALSE,"E_F_galit_gutman.png E_F_rotem_sela.png"
4254,"E_M_liorA.png","P_F_regev.png","FALSE","pictures/stimuli/E","pictures/stimuli/P","M","F","5",0.635551983183134,"22","F","right","30214",1,1,0,0,FALSE,"E_M_liorA.png P_F_regev.png"
3713,"P_F_michaeli.png","P_F_shaked.png","TRUE","pictures/stimuli/P","pictures/stimuli/P","F","F","5",0.635551983183134,"22","F","right","30214",1,1,0,0,FALSE,"P_F_michaeli.png P_F_shaked.png"
3418,"E_F_galit_gutman.png","P_F_regev.png","FALSE","pictures/stimuli/E","pictures/stimuli/P","F","F","4",-0.00336270890573074,"22","F","right","30214",1,1,0,0,FALSE,"E_F_galit_gutman.png P_F_regev.png"
7324,"P_F_staiv.png","P_M_buji.png","TRUE","pictures/stimuli/P","pictures/stimuli/P","F","M","4",-0.00336270890573074,"22","F","right","30214",1,1,0,0,FALSE,"P_F_staiv.png P_M_buji.png"
2888,"E_F_ninet.png","P_M_buji.png","FALSE","pictures/stimuli/E","pictures/stimuli/P","F","M","6",1.274466675272,"22","F","right","30214",1,1,0,0,FALSE,"E_F_ninet.png P_M_buji.png"
1674,"E_M_ido.png","P_M_saar.png","FALSE","pictures/stimuli/E","pictures/stimuli/P","M","M","5",0.635551983183134,"22","F","right","30214",1,1,0,0,FALSE,"E_M_ido.png P_M_saar.png"
3830,"E_F_galit_gutman.png","P_M_benet.png","FALSE","pictures/stimuli/E","pictures/stimuli/P","F","M","6",1.274466675272,"22","F","right","30214",1,1,0,0,FALSE,"E_F_galit_gutman.png P_M_benet.png"
3382,"E_F_shiri.png","P_F_staiv.png","FALSE","pictures/stimuli/E","pictures/stimuli/P","F","F","5",0.635551983183134,"22","F","right","30214",1,1,0,0,FALSE,"E_F_shiri.png P_F_staiv.png"
2203,"E_F_rotem_sela.png","P_M_benet.png","FALSE","pictures/stimuli/E","pictures/stimuli/P","F","M","6",1.274466675272,"22","F","right","30214",1,1,0,0,FALSE,"E_F_rotem_sela.png P_M_benet.png"
2592,"E_M_danker.png","P_F_shaked.png","FALSE","pictures/stimuli/E","pictures/stimuli/P","M","F","6",1.274466675272,"22","F","right","30214",1,1,0,0,FALSE,"E_M_danker.png P_F_shaked.png"
4049,"P_F_michaeli.png","P_M_gantz.png","TRUE","pictures/stimuli/P","pictures/stimuli/P","F","M","4",-0.00336270890573074,"22","F","right","30214",1,1,0,0,FALSE,"P_F_michaeli.png P_M_gantz.png"
3099,"E_M_asi.png","P_M_saar.png","FALSE","pictures/stimuli/E","pictures/stimuli/P","M","M","5",0.635551983183134,"22","F","right","30214",1,1,0,0,FALSE,"E_M_asi.png P_M_saar.png"
3802,"E_F_ilanit.png","P_F_michaeli.png","FALSE","pictures/stimuli/E","pictures/stimuli/P","F","F","5",0.635551983183134,"22","F","right","30214",1,1,0,0,FALSE,"E_F_ilanit.png P_F_michaeli.png"
2832,"E_F_rotem_sela.png","E_M_danker.png","TRUE","pictures/stimuli/E","pictures/stimuli/E","F","M","2",-1.28119209308346,"22","F","right","30214",1,1,0,0,FALSE,"E_F_rotem_sela.png E_M_danker.png"
1587,"E_M_asi.png","E_M_danker.png","TRUE","pictures/stimuli/E","pictures/stimuli/E","M","M","2",-1.28119209308346,"22","F","right","30214",1,1,0,0,FALSE,"E_M_asi.png E_M_danker.png"
4873,"E_M_liorA.png","P_F_shaked.png","FALSE","pictures/stimuli/E","pictures/stimuli/P","M","F","6",1.274466675272,"22","F","right","30214",1,1,0,0,FALSE,"E_M_liorA.png P_F_shaked.png"
10643,"E_F_shiri.png","P_M_benet.png","FALSE","pictures/stimuli/E","pictures/stimuli/P","F","M","6",1.274466675272,"22","F","right","30214",1,1,0,0,FALSE,"E_F_shiri.png P_M_benet.png"
5202,"E_M_danker.png","E_M_yuda.png","TRUE","pictures/stimuli/E","pictures/stimuli/E","M","M","3",-0.642277400994596,"22","F","right","30214",1,1,0,0,FALSE,"E_M_danker.png E_M_yuda.png"
2537,"E_M_yuda.png","P_F_staiv.png","FALSE","pictures/stimuli/E","pictures/stimuli/P","M","F","6",1.274466675272,"22","F","right","30214",1,1,0,0,FALSE,"E_M_yuda.png P_F_staiv.png"
3964,"E_F_galit_gutman.png","P_M_saar.png","FALSE","pictures/stimuli/E","pictures/stimuli/P","F","M","6",1.274466675272,"22","F","right","30214",1,1,0,0,FALSE,"E_F_galit_gutman.png P_M_saar.png"
3287,"E_F_rotem_sela.png","P_F_shaked.png","FALSE","pictures/stimuli/E","pictures/stimuli/P","F","F","5",0.635551983183134,"22","F","right","30214",1,1,0,0,FALSE,"E_F_rotem_sela.png P_F_shaked.png"
3359,"E_M_asi.png","P_M_benet.png","FALSE","pictures/stimuli/E","pictures/stimuli/P","M","M","5",0.635551983183134,"22","F","right","30214",1,1,0,0,FALSE,"E_M_asi.png P_M_benet.png"
9687,"E_M_ido.png","E_M_yuda.png","TRUE","pictures/stimuli/E","pictures/stimuli/E","M","M","2",-1.28119209308346,"22","F","right","30214",1,1,0,0,FALSE,"E_M_ido.png E_M_yuda.png"
7835,"E_M_yuda.png","P_M_gantz.png","FALSE","pictures/stimuli/E","pictures/stimuli/P","M","M","6",1.274466675272,"22","F","right","30214",1,1,0,0,FALSE,"E_M_yuda.png P_M_gantz.png"
7621,"E_F_ilanit.png","P_F_staiv.png","FALSE","pictures/stimuli/E","pictures/stimuli/P","F","F","5",0.635551983183134,"22","F","right","30214",1,1,0,0,FALSE,"E_F_ilanit.png P_F_staiv.png"
13793,"E_M_danker.png","P_M_saar.png","FALSE","pictures/stimuli/E","pictures/stimuli/P","M","M","6",1.274466675272,"22","F","right","30214",1,1,0,0,FALSE,"E_M_danker.png P_M_saar.png"
6820,"P_M_gantz.png","P_M_lapid.png","TRUE","pictures/stimuli/P","pictures/stimuli/P","M","M","2",-1.28119209308346,"22","F","right","30214",1,1,0,0,FALSE,"P_M_gantz.png P_M_lapid.png"
3449,"E_M_asi.png","P_M_lapid.png","FALSE","pictures/stimuli/E","pictures/stimuli/P","M","M","5",0.635551983183134,"22","F","right","30214",1,1,0,0,FALSE,"E_M_asi.png P_M_lapid.png"
2574,"E_F_ilanit.png","E_F_shiri.png","TRUE","pictures/stimuli/E","pictures/stimuli/E","F","F","2",-1.28119209308346,"22","F","right","30214",1,1,0,0,FALSE,"E_F_ilanit.png E_F_shiri.png"
3503,"E_F_rotem_sela.png","E_M_asi.png","TRUE","pictures/stimuli/E","pictures/stimuli/E","F","M","1",-1.92010678517233,"22","F","right","30214",1,1,0,0,FALSE,"E_F_rotem_sela.png E_M_asi.png"
12779,"P_M_gantz.png","P_M_saar.png","TRUE","pictures/stimuli/P","pictures/stimuli/P","M","M","2",-1.28119209308346,"22","F","right","30214",1,1,0,0,FALSE,"P_M_gantz.png P_M_saar.png"
3096,"E_F_ninet.png","E_M_yuda.png","TRUE","pictures/stimuli/E","pictures/stimuli/E","F","M","2",-1.28119209308346,"22","F","right","30214",1,1,0,0,FALSE,"E_F_ninet.png E_M_yuda.png"
11294,"E_F_ilanit.png","P_F_regev.png","FALSE","pictures/stimuli/E","pictures/stimuli/P","F","F","5",0.635551983183134,"22","F","right","30214",1,1,0,0,FALSE,"E_F_ilanit.png P_F_regev.png"
5531,"E_F_shiri.png","P_M_lapid.png","FALSE","pictures/stimuli/E","pictures/stimuli/P","F","M","4",-0.00336270890573074,"22","F","right","30214",1,1,0,0,FALSE,"E_F_shiri.png P_M_lapid.png"
6356,"E_M_yuda.png","P_M_benet.png","FALSE","pictures/stimuli/E","pictures/stimuli/P","M","M","5",0.635551983183134,"22","F","right","30214",1,1,0,0,FALSE,"E_M_yuda.png P_M_benet.png"
4289,"E_F_ninet.png","P_M_benet.png","FALSE","pictures/stimuli/E","pictures/stimuli/P","F","M","6",1.274466675272,"22","F","right","30214",1,1,0,0,FALSE,"E_F_ninet.png P_M_benet.png"
13951,"P_F_shaked.png","P_M_buji.png","TRUE","pictures/stimuli/P","pictures/stimuli/P","F","M","3",-0.642277400994596,"22","F","right","30214",1,1,0,0,FALSE,"P_F_shaked.png P_M_buji.png"
4250,"E_M_danker.png","P_F_staiv.png","FALSE","pictures/stimuli/E","pictures/stimuli/P","M","F","6",1.274466675272,"22","F","right","30214",1,1,0,0,FALSE,"E_M_danker.png P_F_staiv.png"
8174,"P_F_regev.png","P_M_lapid.png","TRUE","pictures/stimuli/P","pictures/stimuli/P","F","M","2",-1.28119209308346,"22","F","right","30214",1,1,0,0,FALSE,"P_F_regev.png P_M_lapid.png"
2797,"E_F_shiri.png","P_F_shaked.png","FALSE","pictures/stimuli/E","pictures/stimuli/P","F","F","4",-0.00336270890573074,"22","F","right","30214",1,1,0,0,FALSE,"E_F_shiri.png P_F_shaked.png"
4016,"E_M_liorA.png","P_M_saar.png","FALSE","pictures/stimuli/E","pictures/stimuli/P","M","M","6",1.274466675272,"22","F","right","30214",1,1,0,0,FALSE,"E_M_liorA.png P_M_saar.png"
3133,"P_F_shaked.png","P_M_gantz.png","TRUE","pictures/stimuli/P","pictures/stimuli/P","F","M","3",-0.642277400994596,"22","F","right","30214",1,1,0,0,FALSE,"P_F_shaked.png P_M_gantz.png"
11223,"P_F_shaked.png","P_M_lapid.png","TRUE","pictures/stimuli/P","pictures/stimuli/P","F","M","2",-1.28119209308346,"22","F","right","30214",1,1,0,0,FALSE,"P_F_shaked.png P_M_lapid.png"
5654,"E_M_asi.png","P_F_michaeli.png","FALSE","pictures/stimuli/E","pictures/stimuli/P","M","F","5",0.635551983183134,"22","F","right","30214",1,1,0,0,FALSE,"E_M_asi.png P_F_michaeli.png"
5435,"E_M_ido.png","E_M_liorA.png","TRUE","pictures/stimuli/E","pictures/stimuli/E","M","M","2",-1.28119209308346,"22","F","right","30214",1,1,0,0,FALSE,"E_M_ido.png E_M_liorA.png"
3253,"E_F_ilanit.png","E_M_asi.png","TRUE","pictures/stimuli/E","pictures/stimuli/E","F","M","2",-1.28119209308346,"22","F","right","30214",1,1,0,0,FALSE,"E_F_ilanit.png E_M_asi.png"
4740,"E_M_asi.png","P_F_staiv.png","FALSE","pictures/stimuli/E","pictures/stimuli/P","M","F","5",0.635551983183134,"22","F","right","30214",1,1,0,0,FALSE,"E_M_asi.png P_F_staiv.png"
5479,"E_M_yuda.png","P_F_regev.png","FALSE","pictures/stimuli/E","pictures/stimuli/P","M","F","6",1.274466675272,"22","F","right","30214",1,1,0,0,FALSE,"E_M_yuda.png P_F_regev.png"
7258,"E_F_rotem_sela.png","E_M_ido.png","TRUE","pictures/stimuli/E","pictures/stimuli/E","F","M","2",-1.28119209308346,"22","F","right","30214",1,1,0,0,FALSE,"E_F_rotem_sela.png E_M_ido.png"
2658,"E_M_asi.png","P_M_buji.png","FALSE","pictures/stimuli/E","pictures/stimuli/P","M","M","5",0.635551983183134,"22","F","right","30214",1,1,0,0,FALSE,"E_M_asi.png P_M_buji.png"
4837,"E_F_ninet.png","E_F_shiri.png","TRUE","pictures/stimuli/E","pictures/stimuli/E","F","F","1",-1.92010678517233,"22","F","right","30214",1,1,0,0,FALSE,"E_F_ninet.png E_F_shiri.png"
3780,"E_M_liorA.png","P_M_lapid.png","FALSE","pictures/stimuli/E","pictures/stimuli/P","M","M","5",0.635551983183134,"22","F","right","30214",1,1,0,0,FALSE,"E_M_liorA.png P_M_lapid.png"
9868,"E_M_asi.png","E_M_liorA.png","TRUE","pictures/stimuli/E","pictures/stimuli/E","M","M","3",-0.642277400994596,"22","F","right","30214",1,1,0,0,FALSE,"E_M_asi.png E_M_liorA.png"
10881,"E_F_galit_gutman.png","E_M_liorA.png","TRUE","pictures/stimuli/E","pictures/stimuli/E","F","M","3",-0.642277400994596,"22","F","right","30214",1,1,0,0,FALSE,"E_F_galit_gutman.png E_M_liorA.png"
4109,"P_M_gantz.png","P_M_benet.png","TRUE","pictures/stimuli/P","pictures/stimuli/P","M","M","2",-1.28119209308346,"22","F","right","30214",1,1,0,0,FALSE,"P_M_benet.png P_M_gantz.png"
2977,"E_M_danker.png","E_M_ido.png","TRUE","pictures/stimuli/E","pictures/stimuli/E","M","M","2",-1.28119209308346,"22","F","right","30214",1,1,0,0,FALSE,"E_M_danker.png E_M_ido.png"
5079,"P_M_gantz.png","P_M_smut.png","TRUE","pictures/stimuli/P","pictures/stimuli/P","M","M","2",-1.28119209308346,"22","F","right","30214",1,1,0,0,FALSE,"P_M_gantz.png P_M_smut.png"
5049,"E_F_ninet.png","E_M_danker.png","TRUE","pictures/stimuli/E","pictures/stimuli/E","F","M","2",-1.28119209308346,"22","F","right","30214",1,1,0,0,FALSE,"E_F_ninet.png E_M_danker.png"
4550,"E_F_ilanit.png","P_M_lapid.png","FALSE","pictures/stimuli/E","pictures/stimuli/P","F","M","4",-0.00336270890573074,"22","F","right","30214",1,1,0,0,FALSE,"E_F_ilanit.png P_M_lapid.png"
7659,"P_M_saar.png","P_M_smut.png","TRUE","pictures/stimuli/P","pictures/stimuli/P","M","M","2",-1.28119209308346,"22","F","right","30214",1,1,0,0,FALSE,"P_M_saar.png P_M_smut.png"
5491,"P_F_michaeli.png","P_M_smut.png","TRUE","pictures/stimuli/P","pictures/stimuli/P","F","M","2",-1.28119209308346,"22","F","right","30214",1,1,0,0,FALSE,"P_F_michaeli.png P_M_smut.png"
4659,"E_M_ido.png","P_F_regev.png","FALSE","pictures/stimuli/E","pictures/stimuli/P","M","F","6",1.274466675272,"22","F","right","30214",1,1,0,0,FALSE,"E_M_ido.png P_F_regev.png"
3506,"E_F_ninet.png","P_M_gantz.png","FALSE","pictures/stimuli/E","pictures/stimuli/P","F","M","6",1.274466675272,"22","F","right","30214",1,1,0,0,FALSE,"E_F_ninet.png P_M_gantz.png"
3300,"E_F_galit_gutman.png","P_F_shaked.png","FALSE","pictures/stimuli/E","pictures/stimuli/P","F","F","5",0.635551983183134,"22","F","right","30214",1,1,0,0,FALSE,"E_F_galit_gutman.png P_F_shaked.png"
4447,"E_F_ninet.png","P_M_smut.png","FALSE","pictures/stimuli/E","pictures/stimuli/P","F","M","6",1.274466675272,"22","F","right","30214",1,1,0,0,FALSE,"E_F_ninet.png P_M_smut.png"
7923,"P_F_regev.png","P_M_gantz.png","TRUE","pictures/stimuli/P","pictures/stimuli/P","F","M","2",-1.28119209308346,"22","F","right","30214",1,1,0,0,FALSE,"P_F_regev.png P_M_gantz.png"
9552,"E_F_ninet.png","P_F_shaked.png","FALSE","pictures/stimuli/E","pictures/stimuli/P","F","F","5",0.635551983183134,"22","F","right","30214",1,1,0,0,FALSE,"E_F_ninet.png P_F_shaked.png"
4424,"E_F_rotem_sela.png","E_M_yuda.png","TRUE","pictures/stimuli/E","pictures/stimuli/E","F","M","2",-1.28119209308346,"22","F","right","30214",1,1,0,0,FALSE,"E_F_rotem_sela.png E_M_yuda.png"
9220,"E_F_ninet.png","E_M_asi.png","TRUE","pictures/stimuli/E","pictures/stimuli/E","F","M","2",-1.28119209308346,"22","F","right","30214",1,1,0,0,FALSE,"E_F_ninet.png E_M_asi.png"
8440,"P_M_buji.png","P_M_saar.png","TRUE","pictures/stimuli/P","pictures/stimuli/P","M","M","2",-1.28119209308346,"22","F","right","30214",1,1,0,0,FALSE,"P_M_buji.png P_M_saar.png"
13360,"E_F_galit_gutman.png","P_F_michaeli.png","FALSE","pictures/stimuli/E","pictures/stimuli/P","F","F","5",0.635551983183134,"22","F","right","30214",1,1,0,0,FALSE,"E_F_galit_gutman.png P_F_michaeli.png"
5761,"E_M_danker.png","E_M_liorA.png","TRUE","pictures/stimuli/E","pictures/stimuli/E","M","M","2",-1.28119209308346,"22","F","right","30214",1,1,0,0,FALSE,"E_M_danker.png E_M_liorA.png"
14211,"E_F_ilanit.png","E_M_yuda.png","TRUE","pictures/stimuli/E","pictures/stimuli/E","F","M","2",-1.28119209308346,"22","F","right","30214",1,1,0,0,FALSE,"E_F_ilanit.png E_M_yuda.png"
28671,"E_M_ido.png","P_M_gantz.png","FALSE","pictures/stimuli/E","pictures/stimuli/P","M","M","5",0.635551983183134,"22","F","right","30214",1,1,0,0,FALSE,"E_M_ido.png P_M_gantz.png"
5030,"E_F_shiri.png","E_M_danker.png","TRUE","pictures/stimuli/E","pictures/stimuli/E","F","M","2",-1.28119209308346,"22","F","right","30214",1,1,0,0,FALSE,"E_F_shiri.png E_M_danker.png"
3385,"E_F_rotem_sela.png","E_M_liorA.png","TRUE","pictures/stimuli/E","pictures/stimuli/E","F","M","3",-0.642277400994596,"22","F","right","30214",1,1,0,0,FALSE,"E_F_rotem_sela.png E_M_liorA.png"
12087,"E_M_danker.png","P_F_regev.png","FALSE","pictures/stimuli/E","pictures/stimuli/P","M","F","6",1.274466675272,"22","F","right","30214",1,1,0,0,FALSE,"E_M_danker.png P_F_regev.png"
4774,"E_F_galit_gutman.png","P_M_smut.png","FALSE","pictures/stimuli/E","pictures/stimuli/P","F","M","6",1.274466675272,"22","F","right","30214",1,1,0,0,FALSE,"E_F_galit_gutman.png P_M_smut.png"
6410,"P_F_staiv.png","P_M_gantz.png","TRUE","pictures/stimuli/P","pictures/stimuli/P","F","M","3",-0.642277400994596,"22","F","right","30214",1,1,0,0,FALSE,"P_F_staiv.png P_M_gantz.png"
10790,"P_F_regev.png","P_M_buji.png","TRUE","pictures/stimuli/P","pictures/stimuli/P","F","M","2",-1.28119209308346,"22","F","right","30214",1,1,0,0,FALSE,"P_F_regev.png P_M_buji.png"
18995,"E_M_liorA.png","P_M_buji.png","FALSE","pictures/stimuli/E","pictures/stimuli/P","M","M","5",0.635551983183134,"22","F","right","30214",1,1,0,0,FALSE,"E_M_liorA.png P_M_buji.png"
2571,"E_F_ninet.png","P_F_staiv.png","FALSE","pictures/stimuli/E","pictures/stimuli/P","F","F","5",0.635551983183134,"22","F","right","30214",1,1,0,0,FALSE,"E_F_ninet.png P_F_staiv.png"
9227,"E_F_ilanit.png","P_M_buji.png","FALSE","pictures/stimuli/E","pictures/stimuli/P","F","M","6",1.274466675272,"22","F","right","30214",1,1,0,0,FALSE,"E_F_ilanit.png P_M_buji.png"
3602,"P_M_benet.png","P_M_smut.png","TRUE","pictures/stimuli/P","pictures/stimuli/P","M","M","2",-1.28119209308346,"22","F","right","30214",1,1,0,0,FALSE,"P_M_benet.png P_M_smut.png"
2832,"E_F_galit_gutman.png","P_M_gantz.png","FALSE","pictures/stimuli/E","pictures/stimuli/P","F","M","6",1.274466675272,"22","F","right","30214",1,1,0,0,FALSE,"E_F_galit_gutman.png P_M_gantz.png"
2689,"E_M_ido.png","P_M_lapid.png","FALSE","pictures/stimuli/E","pictures/stimuli/P","M","M","4",-0.00336270890573074,"22","F","right","30214",1,1,0,0,FALSE,"E_M_ido.png P_M_lapid.png"
5374,"E_F_ilanit.png","E_F_ninet.png","TRUE","pictures/stimuli/E","pictures/stimuli/E","F","F","4",0.179504907299629,"23","F","right","30454",1,1,0,0,FALSE,"E_F_ilanit.png E_F_ninet.png"
3930,"E_F_rotem_sela.png","P_M_lapid.png","FALSE","pictures/stimuli/E","pictures/stimuli/P","F","M","5",0.777854598298395,"23","F","right","30454",1,1,0,0,FALSE,"E_F_rotem_sela.png P_M_lapid.png"
3186,"E_M_yuda.png","P_M_buji.png","FALSE","pictures/stimuli/E","pictures/stimuli/P","M","M","6",1.37620428929716,"23","F","right","30454",1,1,0,0,FALSE,"E_M_yuda.png P_M_buji.png"
2726,"E_M_asi.png","P_M_smut.png","FALSE","pictures/stimuli/E","pictures/stimuli/P","M","M","6",1.37620428929716,"23","F","right","30454",1,1,0,0,FALSE,"E_M_asi.png P_M_smut.png"
3467,"P_M_benet.png","P_M_smut.png","TRUE","pictures/stimuli/P","pictures/stimuli/P","M","M","2",-1.0171944746979,"23","F","right","30454",1,1,0,0,FALSE,"P_M_benet.png P_M_smut.png"
2291,"P_M_lapid.png","P_M_smut.png","TRUE","pictures/stimuli/P","pictures/stimuli/P","M","M","2",-1.0171944746979,"23","F","right","30454",1,1,0,0,FALSE,"P_M_lapid.png P_M_smut.png"
7432,"E_F_ninet.png","P_M_gantz.png","FALSE","pictures/stimuli/E","pictures/stimuli/P","F","M","5",0.777854598298395,"23","F","right","30454",1,1,0,0,FALSE,"E_F_ninet.png P_M_gantz.png"
1857,"E_F_galit_gutman.png","E_M_liorA.png","TRUE","pictures/stimuli/E","pictures/stimuli/E","F","M","5",0.777854598298395,"23","F","right","30454",1,1,0,0,FALSE,"E_F_galit_gutman.png E_M_liorA.png"
3723,"E_F_ilanit.png","E_M_liorA.png","TRUE","pictures/stimuli/E","pictures/stimuli/E","F","M","5",0.777854598298395,"23","F","right","30454",1,1,0,0,FALSE,"E_F_ilanit.png E_M_liorA.png"
11280,"E_F_ninet.png","P_M_saar.png","FALSE","pictures/stimuli/E","pictures/stimuli/P","F","M","5",0.777854598298395,"23","F","right","30454",1,1,0,0,FALSE,"E_F_ninet.png P_M_saar.png"
2027,"E_M_danker.png","P_M_smut.png","FALSE","pictures/stimuli/E","pictures/stimuli/P","M","M","5",0.777854598298395,"23","F","right","30454",1,1,0,0,FALSE,"E_M_danker.png P_M_smut.png"
3205,"E_M_ido.png","P_F_shaked.png","FALSE","pictures/stimuli/E","pictures/stimuli/P","M","F","4",0.179504907299629,"23","F","right","30454",1,1,0,0,FALSE,"E_M_ido.png P_F_shaked.png"
1793,"E_F_rotem_sela.png","P_M_smut.png","FALSE","pictures/stimuli/E","pictures/stimuli/P","F","M","5",0.777854598298395,"23","F","right","30454",1,1,0,0,FALSE,"E_F_rotem_sela.png P_M_smut.png"
1823,"E_M_asi.png","P_F_shaked.png","FALSE","pictures/stimuli/E","pictures/stimuli/P","M","F","5",0.777854598298395,"23","F","right","30454",1,1,0,0,FALSE,"E_M_asi.png P_F_shaked.png"
1921,"E_F_ilanit.png","P_F_shaked.png","FALSE","pictures/stimuli/E","pictures/stimuli/P","F","F","5",0.777854598298395,"23","F","right","30454",1,1,0,0,FALSE,"E_F_ilanit.png P_F_shaked.png"
1965,"P_M_lapid.png","P_M_buji.png","TRUE","pictures/stimuli/P","pictures/stimuli/P","M","M","2",-1.0171944746979,"23","F","right","30454",1,1,0,0,FALSE,"P_M_buji.png P_M_lapid.png"
2784,"E_F_galit_gutman.png","E_M_ido.png","TRUE","pictures/stimuli/E","pictures/stimuli/E","F","M","3",-0.418844783699136,"23","F","right","30454",1,1,0,0,FALSE,"E_F_galit_gutman.png E_M_ido.png"
3582,"E_M_asi.png","E_M_ido.png","TRUE","pictures/stimuli/E","pictures/stimuli/E","M","M","1",-1.61554416569667,"23","F","right","30454",1,1,0,0,FALSE,"E_M_asi.png E_M_ido.png"
2009,"E_F_galit_gutman.png","P_F_shaked.png","FALSE","pictures/stimuli/E","pictures/stimuli/P","F","F","5",0.777854598298395,"23","F","right","30454",1,1,0,0,FALSE,"E_F_galit_gutman.png P_F_shaked.png"
2197,"E_F_ninet.png","E_F_rotem_sela.png","TRUE","pictures/stimuli/E","pictures/stimuli/E","F","F","1",-1.61554416569667,"23","F","right","30454",1,1,0,0,FALSE,"E_F_ninet.png E_F_rotem_sela.png"
1947,"P_M_buji.png","P_M_saar.png","TRUE","pictures/stimuli/P","pictures/stimuli/P","M","M","2",-1.0171944746979,"23","F","right","30454",1,1,0,0,FALSE,"P_M_buji.png P_M_saar.png"
2757,"E_M_danker.png","P_M_saar.png","FALSE","pictures/stimuli/E","pictures/stimuli/P","M","M","6",1.37620428929716,"23","F","right","30454",1,1,0,0,FALSE,"E_M_danker.png P_M_saar.png"
2535,"E_F_ninet.png","E_M_liorA.png","TRUE","pictures/stimuli/E","pictures/stimuli/E","F","M","2",-1.0171944746979,"23","F","right","30454",1,1,0,0,FALSE,"E_F_ninet.png E_M_liorA.png"
2797,"P_F_michaeli.png","P_M_buji.png","TRUE","pictures/stimuli/P","pictures/stimuli/P","F","M","2",-1.0171944746979,"23","F","right","30454",1,1,0,0,FALSE,"P_F_michaeli.png P_M_buji.png"
2115,"E_F_ninet.png","E_M_ido.png","TRUE","pictures/stimuli/E","pictures/stimuli/E","F","M","5",0.777854598298395,"23","F","right","30454",1,1,0,0,FALSE,"E_F_ninet.png E_M_ido.png"
2121,"E_F_shiri.png","P_M_smut.png","FALSE","pictures/stimuli/E","pictures/stimuli/P","F","M","5",0.777854598298395,"23","F","right","30454",1,1,0,0,FALSE,"E_F_shiri.png P_M_smut.png"
2305,"E_F_galit_gutman.png","E_F_ninet.png","TRUE","pictures/stimuli/E","pictures/stimuli/E","F","F","2",-1.0171944746979,"23","F","right","30454",1,1,0,0,FALSE,"E_F_galit_gutman.png E_F_ninet.png"
1703,"E_F_ninet.png","P_M_buji.png","FALSE","pictures/stimuli/E","pictures/stimuli/P","F","M","4",0.179504907299629,"23","F","right","30454",1,1,0,0,FALSE,"E_F_ninet.png P_M_buji.png"
1859,"E_F_galit_gutman.png","P_M_smut.png","FALSE","pictures/stimuli/E","pictures/stimuli/P","F","M","5",0.777854598298395,"23","F","right","30454",1,1,0,0,FALSE,"E_F_galit_gutman.png P_M_smut.png"
2391,"E_M_yuda.png","P_F_shaked.png","FALSE","pictures/stimuli/E","pictures/stimuli/P","M","F","5",0.777854598298395,"23","F","right","30454",1,1,0,0,FALSE,"E_M_yuda.png P_F_shaked.png"
2042,"E_M_danker.png","P_F_shaked.png","FALSE","pictures/stimuli/E","pictures/stimuli/P","M","F","5",0.777854598298395,"23","F","right","30454",1,1,0,0,FALSE,"E_M_danker.png P_F_shaked.png"
2320,"P_M_lapid.png","P_M_benet.png","TRUE","pictures/stimuli/P","pictures/stimuli/P","M","M","1",-1.61554416569667,"23","F","right","30454",1,1,0,0,FALSE,"P_M_benet.png P_M_lapid.png"
2018,"E_M_asi.png","P_F_regev.png","FALSE","pictures/stimuli/E","pictures/stimuli/P","M","F","5",0.777854598298395,"23","F","right","30454",1,1,0,0,FALSE,"E_M_asi.png P_F_regev.png"
2529,"E_M_asi.png","P_M_benet.png","FALSE","pictures/stimuli/E","pictures/stimuli/P","M","M","5",0.777854598298395,"23","F","right","30454",1,1,0,0,FALSE,"E_M_asi.png P_M_benet.png"
2187,"P_M_gantz.png","P_M_saar.png","TRUE","pictures/stimuli/P","pictures/stimuli/P","M","M","2",-1.0171944746979,"23","F","right","30454",1,1,0,0,FALSE,"P_M_gantz.png P_M_saar.png"
2686,"E_F_ilanit.png","E_M_danker.png","TRUE","pictures/stimuli/E","pictures/stimuli/E","F","M","2",-1.0171944746979,"23","F","right","30454",1,1,0,0,FALSE,"E_F_ilanit.png E_M_danker.png"
2150,"E_F_ilanit.png","P_M_benet.png","FALSE","pictures/stimuli/E","pictures/stimuli/P","F","M","5",0.777854598298395,"23","F","right","30454",1,1,0,0,FALSE,"E_F_ilanit.png P_M_benet.png"
2963,"E_F_ilanit.png","P_F_staiv.png","FALSE","pictures/stimuli/E","pictures/stimuli/P","F","F","5",0.777854598298395,"23","F","right","30454",1,1,0,0,FALSE,"E_F_ilanit.png P_F_staiv.png"
2440,"P_M_benet.png","P_M_buji.png","TRUE","pictures/stimuli/P","pictures/stimuli/P","M","M","2",-1.0171944746979,"23","F","right","30454",1,1,0,0,FALSE,"P_M_benet.png P_M_buji.png"
2628,"P_F_staiv.png","P_M_benet.png","TRUE","pictures/stimuli/P","pictures/stimuli/P","F","M","3",-0.418844783699136,"23","F","right","30454",1,1,0,0,FALSE,"P_F_staiv.png P_M_benet.png"
2552,"E_M_liorA.png","P_M_buji.png","FALSE","pictures/stimuli/E","pictures/stimuli/P","M","M","5",0.777854598298395,"23","F","right","30454",1,1,0,0,FALSE,"E_M_liorA.png P_M_buji.png"
1901,"E_F_shiri.png","P_F_michaeli.png","FALSE","pictures/stimuli/E","pictures/stimuli/P","F","F","5",0.777854598298395,"23","F","right","30454",1,1,0,0,FALSE,"E_F_shiri.png P_F_michaeli.png"
4740,"E_M_asi.png","P_M_lapid.png","FALSE","pictures/stimuli/E","pictures/stimuli/P","M","M","3",-0.418844783699136,"23","F","right","30454",1,1,0,0,FALSE,"E_M_asi.png P_M_lapid.png"
1651,"E_F_ilanit.png","P_M_buji.png","FALSE","pictures/stimuli/E","pictures/stimuli/P","F","M","4",0.179504907299629,"23","F","right","30454",1,1,0,0,FALSE,"E_F_ilanit.png P_M_buji.png"
2661,"E_M_yuda.png","P_F_michaeli.png","FALSE","pictures/stimuli/E","pictures/stimuli/P","M","F","5",0.777854598298395,"23","F","right","30454",1,1,0,0,FALSE,"E_M_yuda.png P_F_michaeli.png"
1897,"E_M_danker.png","P_F_michaeli.png","FALSE","pictures/stimuli/E","pictures/stimuli/P","M","F","5",0.777854598298395,"23","F","right","30454",1,1,0,0,FALSE,"E_M_danker.png P_F_michaeli.png"
1857,"E_F_ilanit.png","E_M_ido.png","TRUE","pictures/stimuli/E","pictures/stimuli/E","F","M","2",-1.0171944746979,"23","F","right","30454",1,1,0,0,FALSE,"E_F_ilanit.png E_M_ido.png"
3102,"E_F_ilanit.png","P_F_michaeli.png","FALSE","pictures/stimuli/E","pictures/stimuli/P","F","F","4",0.179504907299629,"23","F","right","30454",1,1,0,0,FALSE,"E_F_ilanit.png P_F_michaeli.png"
3203,"E_M_ido.png","E_M_liorA.png","TRUE","pictures/stimuli/E","pictures/stimuli/E","M","M","2",-1.0171944746979,"23","F","right","30454",1,1,0,0,FALSE,"E_M_ido.png E_M_liorA.png"
2253,"P_F_michaeli.png","P_M_lapid.png","TRUE","pictures/stimuli/P","pictures/stimuli/P","F","M","2",-1.0171944746979,"23","F","right","30454",1,1,0,0,FALSE,"P_F_michaeli.png P_M_lapid.png"
4346,"E_M_asi.png","E_M_yuda.png","TRUE","pictures/stimuli/E","pictures/stimuli/E","M","M","2",-1.0171944746979,"23","F","right","30454",1,1,0,0,FALSE,"E_M_asi.png E_M_yuda.png"
2293,"E_M_liorA.png","P_F_regev.png","FALSE","pictures/stimuli/E","pictures/stimuli/P","M","F","4",0.179504907299629,"23","F","right","30454",1,1,0,0,FALSE,"E_M_liorA.png P_F_regev.png"
3422,"E_M_yuda.png","P_M_saar.png","FALSE","pictures/stimuli/E","pictures/stimuli/P","M","M","4",0.179504907299629,"23","F","right","30454",1,1,0,0,FALSE,"E_M_yuda.png P_M_saar.png"
4123,"P_F_michaeli.png","P_M_saar.png","TRUE","pictures/stimuli/P","pictures/stimuli/P","F","M","1",-1.61554416569667,"23","F","right","30454",1,1,0,0,FALSE,"P_F_michaeli.png P_M_saar.png"
1991,"E_M_ido.png","P_M_gantz.png","FALSE","pictures/stimuli/E","pictures/stimuli/P","M","M","5",0.777854598298395,"23","F","right","30454",1,1,0,0,FALSE,"E_M_ido.png P_M_gantz.png"
4140,"P_M_gantz.png","P_M_benet.png","TRUE","pictures/stimuli/P","pictures/stimuli/P","M","M","1",-1.61554416569667,"23","F","right","30454",1,1,0,0,FALSE,"P_M_benet.png P_M_gantz.png"
2316,"E_F_ilanit.png","P_M_gantz.png","FALSE","pictures/stimuli/E","pictures/stimuli/P","F","M","5",0.777854598298395,"23","F","right","30454",1,1,0,0,FALSE,"E_F_ilanit.png P_M_gantz.png"
2870,"P_F_regev.png","P_F_staiv.png","TRUE","pictures/stimuli/P","pictures/stimuli/P","F","F","2",-1.0171944746979,"23","F","right","30454",1,1,0,0,FALSE,"P_F_regev.png P_F_staiv.png"
2564,"E_F_shiri.png","P_M_gantz.png","FALSE","pictures/stimuli/E","pictures/stimuli/P","F","M","5",0.777854598298395,"23","F","right","30454",1,1,0,0,FALSE,"E_F_shiri.png P_M_gantz.png"
3500,"E_M_asi.png","E_M_danker.png","TRUE","pictures/stimuli/E","pictures/stimuli/E","M","M","1",-1.61554416569667,"23","F","right","30454",1,1,0,0,FALSE,"E_M_asi.png E_M_danker.png"
2830,"E_F_galit_gutman.png","E_F_shiri.png","TRUE","pictures/stimuli/E","pictures/stimuli/E","F","F","2",-1.0171944746979,"23","F","right","30454",1,1,0,0,FALSE,"E_F_galit_gutman.png E_F_shiri.png"
2199,"E_F_ilanit.png","E_M_asi.png","TRUE","pictures/stimuli/E","pictures/stimuli/E","F","M","2",-1.0171944746979,"23","F","right","30454",1,1,0,0,FALSE,"E_F_ilanit.png E_M_asi.png"
1783,"E_M_asi.png","P_F_staiv.png","FALSE","pictures/stimuli/E","pictures/stimuli/P","M","F","5",0.777854598298395,"23","F","right","30454",1,1,0,0,FALSE,"E_M_asi.png P_F_staiv.png"
2560,"E_F_ilanit.png","E_M_yuda.png","TRUE","pictures/stimuli/E","pictures/stimuli/E","F","M","2",-1.0171944746979,"23","F","right","30454",1,1,0,0,FALSE,"E_F_ilanit.png E_M_yuda.png"
2063,"P_M_buji.png","P_M_smut.png","TRUE","pictures/stimuli/P","pictures/stimuli/P","M","M","2",-1.0171944746979,"23","F","right","30454",1,1,0,0,FALSE,"P_M_buji.png P_M_smut.png"
1989,"E_M_liorA.png","P_M_smut.png","FALSE","pictures/stimuli/E","pictures/stimuli/P","M","M","5",0.777854598298395,"23","F","right","30454",1,1,0,0,FALSE,"E_M_liorA.png P_M_smut.png"
2383,"E_F_galit_gutman.png","E_M_asi.png","TRUE","pictures/stimuli/E","pictures/stimuli/E","F","M","2",-1.0171944746979,"23","F","right","30454",1,1,0,0,FALSE,"E_F_galit_gutman.png E_M_asi.png"
2512,"E_M_yuda.png","P_M_smut.png","FALSE","pictures/stimuli/E","pictures/stimuli/P","M","M","5",0.777854598298395,"23","F","right","30454",1,1,0,0,FALSE,"E_M_yuda.png P_M_smut.png"
2255,"E_M_ido.png","P_F_regev.png","FALSE","pictures/stimuli/E","pictures/stimuli/P","M","F","5",0.777854598298395,"23","F","right","30454",1,1,0,0,FALSE,"E_M_ido.png P_F_regev.png"
6888,"E_M_danker.png","P_F_regev.png","FALSE","pictures/stimuli/E","pictures/stimuli/P","M","F","6",1.37620428929716,"23","F","right","30454",1,1,0,0,FALSE,"E_M_danker.png P_F_regev.png"
2815,"E_F_ninet.png","E_F_shiri.png","TRUE","pictures/stimuli/E","pictures/stimuli/E","F","F","1",-1.61554416569667,"23","F","right","30454",1,1,0,0,FALSE,"E_F_ninet.png E_F_shiri.png"
2845,"P_F_regev.png","P_M_buji.png","TRUE","pictures/stimuli/P","pictures/stimuli/P","F","M","2",-1.0171944746979,"23","F","right","30454",1,1,0,0,FALSE,"P_F_regev.png P_M_buji.png"
3624,"E_F_shiri.png","P_M_lapid.png","FALSE","pictures/stimuli/E","pictures/stimuli/P","F","M","5",0.777854598298395,"23","F","right","30454",1,1,0,0,FALSE,"E_F_shiri.png P_M_lapid.png"
2353,"E_F_ninet.png","P_F_regev.png","FALSE","pictures/stimuli/E","pictures/stimuli/P","F","F","5",0.777854598298395,"23","F","right","30454",1,1,0,0,FALSE,"E_F_ninet.png P_F_regev.png"
3772,"P_F_michaeli.png","P_M_smut.png","TRUE","pictures/stimuli/P","pictures/stimuli/P","F","M","5",0.777854598298395,"23","F","right","30454",1,1,0,0,FALSE,"P_F_michaeli.png P_M_smut.png"
2081,"E_F_ilanit.png","P_M_lapid.png","FALSE","pictures/stimuli/E","pictures/stimuli/P","F","M","5",0.777854598298395,"23","F","right","30454",1,1,0,0,FALSE,"E_F_ilanit.png P_M_lapid.png"
2006,"E_M_yuda.png","P_F_regev.png","FALSE","pictures/stimuli/E","pictures/stimuli/P","M","F","5",0.777854598298395,"23","F","right","30454",1,1,0,0,FALSE,"E_M_yuda.png P_F_regev.png"
2698,"E_F_galit_gutman.png","P_M_saar.png","FALSE","pictures/stimuli/E","pictures/stimuli/P","F","M","5",0.777854598298395,"23","F","right","30454",1,1,0,0,FALSE,"E_F_galit_gutman.png P_M_saar.png"
2333,"P_F_regev.png","P_M_saar.png","TRUE","pictures/stimuli/P","pictures/stimuli/P","F","M","1",-1.61554416569667,"23","F","right","30454",1,1,0,0,FALSE,"P_F_regev.png P_M_saar.png"
2495,"E_M_liorA.png","P_M_saar.png","FALSE","pictures/stimuli/E","pictures/stimuli/P","M","M","5",0.777854598298395,"23","F","right","30454",1,1,0,0,FALSE,"E_M_liorA.png P_M_saar.png"
3630,"E_M_danker.png","E_M_ido.png","TRUE","pictures/stimuli/E","pictures/stimuli/E","M","M","1",-1.61554416569667,"23","F","right","30454",1,1,0,0,FALSE,"E_M_danker.png E_M_ido.png"
2827,"E_M_yuda.png","P_M_gantz.png","FALSE","pictures/stimuli/E","pictures/stimuli/P","M","M","5",0.777854598298395,"23","F","right","30454",1,1,0,0,FALSE,"E_M_yuda.png P_M_gantz.png"
8795,"P_F_staiv.png","P_M_gantz.png","TRUE","pictures/stimuli/P","pictures/stimuli/P","F","M","2",-1.0171944746979,"23","F","right","30454",1,1,0,0,FALSE,"P_F_staiv.png P_M_gantz.png"
3191,"E_F_shiri.png","P_M_saar.png","FALSE","pictures/stimuli/E","pictures/stimuli/P","F","M","5",0.777854598298395,"23","F","right","30454",1,1,0,0,FALSE,"E_F_shiri.png P_M_saar.png"
5017,"E_F_rotem_sela.png","E_F_shiri.png","TRUE","pictures/stimuli/E","pictures/stimuli/E","F","F","2",-1.0171944746979,"23","F","right","30454",1,1,0,0,FALSE,"E_F_rotem_sela.png E_F_shiri.png"
10504,"E_M_ido.png","P_M_smut.png","FALSE","pictures/stimuli/E","pictures/stimuli/P","M","M","5",0.777854598298395,"23","F","right","30454",1,1,0,0,FALSE,"E_M_ido.png P_M_smut.png"
3919,"E_M_asi.png","P_M_buji.png","FALSE","pictures/stimuli/E","pictures/stimuli/P","M","M","5",0.777854598298395,"23","F","right","30454",1,1,0,0,FALSE,"E_M_asi.png P_M_buji.png"
8482,"E_M_asi.png","P_M_saar.png","FALSE","pictures/stimuli/E","pictures/stimuli/P","M","M","5",0.777854598298395,"23","F","right","30454",1,1,0,0,FALSE,"E_M_asi.png P_M_saar.png"
9009,"E_M_asi.png","P_F_michaeli.png","FALSE","pictures/stimuli/E","pictures/stimuli/P","M","F","5",0.777854598298395,"23","F","right","30454",1,1,0,0,FALSE,"E_M_asi.png P_F_michaeli.png"
2722,"E_M_liorA.png","P_M_benet.png","FALSE","pictures/stimuli/E","pictures/stimuli/P","M","M","5",0.777854598298395,"23","F","right","30454",1,1,0,0,FALSE,"E_M_liorA.png P_M_benet.png"
3028,"E_F_rotem_sela.png","E_M_danker.png","TRUE","pictures/stimuli/E","pictures/stimuli/E","F","M","3",-0.418844783699136,"23","F","right","30454",1,1,0,0,FALSE,"E_F_rotem_sela.png E_M_danker.png"
1871,"E_M_danker.png","P_M_buji.png","FALSE","pictures/stimuli/E","pictures/stimuli/P","M","M","5",0.777854598298395,"23","F","right","30454",1,1,0,0,FALSE,"E_M_danker.png P_M_buji.png"
1925,"E_F_ilanit.png","E_F_rotem_sela.png","TRUE","pictures/stimuli/E","pictures/stimuli/E","F","F","2",-1.0171944746979,"23","F","right","30454",1,1,0,0,FALSE,"E_F_ilanit.png E_F_rotem_sela.png"
2213,"E_F_galit_gutman.png","P_F_michaeli.png","FALSE","pictures/stimuli/E","pictures/stimuli/P","F","F","5",0.777854598298395,"23","F","right","30454",1,1,0,0,FALSE,"E_F_galit_gutman.png P_F_michaeli.png"
1564,"E_F_ninet.png","P_F_michaeli.png","FALSE","pictures/stimuli/E","pictures/stimuli/P","F","F","5",0.777854598298395,"23","F","right","30454",1,1,0,0,FALSE,"E_F_ninet.png P_F_michaeli.png"
2676,"P_M_gantz.png","P_M_buji.png","TRUE","pictures/stimuli/P","pictures/stimuli/P","M","M","2",-1.0171944746979,"23","F","right","30454",1,1,0,0,FALSE,"P_M_buji.png P_M_gantz.png"
3028,"P_F_michaeli.png","P_M_gantz.png","TRUE","pictures/stimuli/P","pictures/stimuli/P","F","M","2",-1.0171944746979,"23","F","right","30454",1,1,0,0,FALSE,"P_F_michaeli.png P_M_gantz.png"
1939,"E_F_ninet.png","P_F_staiv.png","FALSE","pictures/stimuli/E","pictures/stimuli/P","F","F","5",0.777854598298395,"23","F","right","30454",1,1,0,0,FALSE,"E_F_ninet.png P_F_staiv.png"
2698,"P_F_shaked.png","P_M_benet.png","TRUE","pictures/stimuli/P","pictures/stimuli/P","F","M","1",-1.61554416569667,"23","F","right","30454",1,1,0,0,FALSE,"P_F_shaked.png P_M_benet.png"
3326,"E_F_ninet.png","E_M_danker.png","TRUE","pictures/stimuli/E","pictures/stimuli/E","F","M","1",-1.61554416569667,"23","F","right","30454",1,1,0,0,FALSE,"E_F_ninet.png E_M_danker.png"
4712,"P_F_regev.png","P_F_shaked.png","TRUE","pictures/stimuli/P","pictures/stimuli/P","F","F","2",-1.0171944746979,"23","F","right","30454",1,1,0,0,FALSE,"P_F_regev.png P_F_shaked.png"
6110,"P_F_regev.png","P_M_benet.png","TRUE","pictures/stimuli/P","pictures/stimuli/P","F","M","2",-1.0171944746979,"23","F","right","30454",1,1,0,0,FALSE,"P_F_regev.png P_M_benet.png"
3045,"E_M_danker.png","E_M_liorA.png","TRUE","pictures/stimuli/E","pictures/stimuli/E","M","M","2",-1.0171944746979,"23","F","right","30454",1,1,0,0,FALSE,"E_M_danker.png E_M_liorA.png"
6143,"P_F_michaeli.png","P_F_staiv.png","TRUE","pictures/stimuli/P","pictures/stimuli/P","F","F","1",-1.61554416569667,"23","F","right","30454",1,1,0,0,FALSE,"P_F_michaeli.png P_F_staiv.png"
3535,"E_F_shiri.png","P_F_shaked.png","FALSE","pictures/stimuli/E","pictures/stimuli/P","F","F","6",1.37620428929716,"23","F","right","30454",1,1,0,0,FALSE,"E_F_shiri.png P_F_shaked.png"
3109,"E_F_ilanit.png","E_F_shiri.png","TRUE","pictures/stimuli/E","pictures/stimuli/E","F","F","3",-0.418844783699136,"23","F","right","30454",1,1,0,0,FALSE,"E_F_ilanit.png E_F_shiri.png"
3428,"E_M_danker.png","P_M_gantz.png","FALSE","pictures/stimuli/E","pictures/stimuli/P","M","M","6",1.37620428929716,"23","F","right","30454",1,1,0,0,FALSE,"E_M_danker.png P_M_gantz.png"
2855,"E_F_galit_gutman.png","P_M_buji.png","FALSE","pictures/stimuli/E","pictures/stimuli/P","F","M","6",1.37620428929716,"23","F","right","30454",1,1,0,0,FALSE,"E_F_galit_gutman.png P_M_buji.png"
2449,"P_M_saar.png","P_M_smut.png","TRUE","pictures/stimuli/P","pictures/stimuli/P","M","M","2",-1.0171944746979,"23","F","right","30454",1,1,0,0,FALSE,"P_M_saar.png P_M_smut.png"
2468,"E_F_galit_gutman.png","E_F_rotem_sela.png","TRUE","pictures/stimuli/E","pictures/stimuli/E","F","F","2",-1.0171944746979,"23","F","right","30454",1,1,0,0,FALSE,"E_F_galit_gutman.png E_F_rotem_sela.png"
2395,"E_M_danker.png","E_M_yuda.png","TRUE","pictures/stimuli/E","pictures/stimuli/E","M","M","2",-1.0171944746979,"23","F","right","30454",1,1,0,0,FALSE,"E_M_danker.png E_M_yuda.png"
2802,"P_F_shaked.png","P_M_gantz.png","TRUE","pictures/stimuli/P","pictures/stimuli/P","F","M","2",-1.0171944746979,"23","F","right","30454",1,1,0,0,FALSE,"P_F_shaked.png P_M_gantz.png"
2142,"P_F_shaked.png","P_M_smut.png","TRUE","pictures/stimuli/P","pictures/stimuli/P","F","M","2",-1.0171944746979,"23","F","right","30454",1,1,0,0,FALSE,"P_F_shaked.png P_M_smut.png"
1918,"E_M_ido.png","P_M_lapid.png","FALSE","pictures/stimuli/E","pictures/stimuli/P","M","M","5",0.777854598298395,"23","F","right","30454",1,1,0,0,FALSE,"E_M_ido.png P_M_lapid.png"
1986,"E_M_danker.png","P_M_benet.png","FALSE","pictures/stimuli/E","pictures/stimuli/P","M","M","5",0.777854598298395,"23","F","right","30454",1,1,0,0,FALSE,"E_M_danker.png P_M_benet.png"
3240,"E_M_yuda.png","P_M_benet.png","FALSE","pictures/stimuli/E","pictures/stimuli/P","M","M","6",1.37620428929716,"23","F","right","30454",1,1,0,0,FALSE,"E_M_yuda.png P_M_benet.png"
4077,"E_F_ninet.png","P_F_shaked.png","FALSE","pictures/stimuli/E","pictures/stimuli/P","F","F","5",0.777854598298395,"23","F","right","30454",1,1,0,0,FALSE,"E_F_ninet.png P_F_shaked.png"
3320,"P_M_lapid.png","P_M_saar.png","TRUE","pictures/stimuli/P","pictures/stimuli/P","M","M","2",-1.0171944746979,"23","F","right","30454",1,1,0,0,FALSE,"P_M_lapid.png P_M_saar.png"
3222,"P_F_shaked.png","P_M_lapid.png","TRUE","pictures/stimuli/P","pictures/stimuli/P","F","M","2",-1.0171944746979,"23","F","right","30454",1,1,0,0,FALSE,"P_F_shaked.png P_M_lapid.png"
2268,"E_F_galit_gutman.png","E_M_danker.png","TRUE","pictures/stimuli/E","pictures/stimuli/E","F","M","2",-1.0171944746979,"23","F","right","30454",1,1,0,0,FALSE,"E_F_galit_gutman.png E_M_danker.png"
3112,"E_F_shiri.png","E_M_asi.png","TRUE","pictures/stimuli/E","pictures/stimuli/E","F","M","3",-0.418844783699136,"23","F","right","30454",1,1,0,0,FALSE,"E_F_shiri.png E_M_asi.png"
2187,"P_F_michaeli.png","P_F_shaked.png","TRUE","pictures/stimuli/P","pictures/stimuli/P","F","F","2",-1.0171944746979,"23","F","right","30454",1,1,0,0,FALSE,"P_F_michaeli.png P_F_shaked.png"
2052,"E_F_rotem_sela.png","P_F_shaked.png","FALSE","pictures/stimuli/E","pictures/stimuli/P","F","F","5",0.777854598298395,"23","F","right","30454",1,1,0,0,FALSE,"E_F_rotem_sela.png P_F_shaked.png"
2761,"E_M_ido.png","P_F_michaeli.png","FALSE","pictures/stimuli/E","pictures/stimuli/P","M","F","5",0.777854598298395,"23","F","right","30454",1,1,0,0,FALSE,"E_M_ido.png P_F_michaeli.png"
3620,"E_F_ilanit.png","P_M_saar.png","FALSE","pictures/stimuli/E","pictures/stimuli/P","F","M","6",1.37620428929716,"23","F","right","30454",1,1,0,0,FALSE,"E_F_ilanit.png P_M_saar.png"
2223,"E_F_ilanit.png","P_F_regev.png","FALSE","pictures/stimuli/E","pictures/stimuli/P","F","F","6",1.37620428929716,"23","F","right","30454",1,1,0,0,FALSE,"E_F_ilanit.png P_F_regev.png"
2417,"E_F_ninet.png","P_M_benet.png","FALSE","pictures/stimuli/E","pictures/stimuli/P","F","M","6",1.37620428929716,"23","F","right","30454",1,1,0,0,FALSE,"E_F_ninet.png P_M_benet.png"
5416,"E_M_ido.png","P_F_staiv.png","FALSE","pictures/stimuli/E","pictures/stimuli/P","M","F","5",0.777854598298395,"23","F","right","30454",1,1,0,0,FALSE,"E_M_ido.png P_F_staiv.png"
6408,"E_F_ninet.png","P_M_smut.png","FALSE","pictures/stimuli/E","pictures/stimuli/P","F","M","5",0.777854598298395,"23","F","right","30454",1,1,0,0,FALSE,"E_F_ninet.png P_M_smut.png"
5988,"E_F_shiri.png","E_M_danker.png","TRUE","pictures/stimuli/E","pictures/stimuli/E","F","M","2",-1.0171944746979,"23","F","right","30454",1,1,0,0,FALSE,"E_F_shiri.png E_M_danker.png"
2429,"E_F_shiri.png","E_M_liorA.png","TRUE","pictures/stimuli/E","pictures/stimuli/E","F","M","3",-0.418844783699136,"23","F","right","30454",1,1,0,0,FALSE,"E_F_shiri.png E_M_liorA.png"
1882,"E_F_galit_gutman.png","P_F_staiv.png","FALSE","pictures/stimuli/E","pictures/stimuli/P","F","F","5",0.777854598298395,"23","F","right","30454",1,1,0,0,FALSE,"E_F_galit_gutman.png P_F_staiv.png"
1588,"E_F_rotem_sela.png","P_M_benet.png","FALSE","pictures/stimuli/E","pictures/stimuli/P","F","M","5",0.777854598298395,"23","F","right","30454",1,1,0,0,FALSE,"E_F_rotem_sela.png P_M_benet.png"
2294,"E_M_ido.png","P_M_saar.png","FALSE","pictures/stimuli/E","pictures/stimuli/P","M","M","5",0.777854598298395,"23","F","right","30454",1,1,0,0,FALSE,"E_M_ido.png P_M_saar.png"
2050,"E_F_ninet.png","E_M_asi.png","TRUE","pictures/stimuli/E","pictures/stimuli/E","F","M","2",-1.0171944746979,"23","F","right","30454",1,1,0,0,FALSE,"E_F_ninet.png E_M_asi.png"
3245,"E_F_rotem_sela.png","P_F_regev.png","FALSE","pictures/stimuli/E","pictures/stimuli/P","F","F","6",1.37620428929716,"23","F","right","30454",1,1,0,0,FALSE,"E_F_rotem_sela.png P_F_regev.png"
2269,"P_F_staiv.png","P_M_smut.png","TRUE","pictures/stimuli/P","pictures/stimuli/P","F","M","3",-0.418844783699136,"23","F","right","30454",1,1,0,0,FALSE,"P_F_staiv.png P_M_smut.png"
3875,"E_F_ninet.png","E_M_yuda.png","TRUE","pictures/stimuli/E","pictures/stimuli/E","F","M","2",-1.0171944746979,"23","F","right","30454",1,1,0,0,FALSE,"E_F_ninet.png E_M_yuda.png"
2135,"P_F_michaeli.png","P_F_regev.png","TRUE","pictures/stimuli/P","pictures/stimuli/P","F","F","2",-1.0171944746979,"23","F","right","30454",1,1,0,0,FALSE,"P_F_michaeli.png P_F_regev.png"
4141,"E_M_yuda.png","P_F_staiv.png","FALSE","pictures/stimuli/E","pictures/stimuli/P","M","F","5",0.777854598298395,"23","F","right","30454",1,1,0,0,FALSE,"E_M_yuda.png P_F_staiv.png"
3206,"P_F_shaked.png","P_M_buji.png","TRUE","pictures/stimuli/P","pictures/stimuli/P","F","M","1",-1.61554416569667,"23","F","right","30454",1,1,0,0,FALSE,"P_F_shaked.png P_M_buji.png"
2436,"E_M_ido.png","P_M_benet.png","FALSE","pictures/stimuli/E","pictures/stimuli/P","M","M","5",0.777854598298395,"23","F","right","30454",1,1,0,0,FALSE,"E_M_ido.png P_M_benet.png"
3676,"E_F_galit_gutman.png","P_M_benet.png","FALSE","pictures/stimuli/E","pictures/stimuli/P","F","M","5",0.777854598298395,"23","F","right","30454",1,1,0,0,FALSE,"E_F_galit_gutman.png P_M_benet.png"
1969,"P_F_staiv.png","P_M_buji.png","TRUE","pictures/stimuli/P","pictures/stimuli/P","F","M","2",-1.0171944746979,"23","F","right","30454",1,1,0,0,FALSE,"P_F_staiv.png P_M_buji.png"
2017,"E_F_shiri.png","P_F_staiv.png","FALSE","pictures/stimuli/E","pictures/stimuli/P","F","F","5",0.777854598298395,"23","F","right","30454",1,1,0,0,FALSE,"E_F_shiri.png P_F_staiv.png"
1945,"E_M_liorA.png","P_M_gantz.png","FALSE","pictures/stimuli/E","pictures/stimuli/P","M","M","5",0.777854598298395,"23","F","right","30454",1,1,0,0,FALSE,"E_M_liorA.png P_M_gantz.png"
3961,"E_M_danker.png","P_F_staiv.png","FALSE","pictures/stimuli/E","pictures/stimuli/P","M","F","5",0.777854598298395,"23","F","right","30454",1,1,0,0,FALSE,"E_M_danker.png P_F_staiv.png"
3029,"E_M_liorA.png","P_F_shaked.png","FALSE","pictures/stimuli/E","pictures/stimuli/P","M","F","5",0.777854598298395,"23","F","right","30454",1,1,0,0,FALSE,"E_M_liorA.png P_F_shaked.png"
2406,"E_F_ilanit.png","P_M_smut.png","FALSE","pictures/stimuli/E","pictures/stimuli/P","F","M","5",0.777854598298395,"23","F","right","30454",1,1,0,0,FALSE,"E_F_ilanit.png P_M_smut.png"
3241,"E_F_rotem_sela.png","P_F_michaeli.png","FALSE","pictures/stimuli/E","pictures/stimuli/P","F","F","5",0.777854598298395,"23","F","right","30454",1,1,0,0,FALSE,"E_F_rotem_sela.png P_F_michaeli.png"
1880,"E_F_rotem_sela.png","P_M_saar.png","FALSE","pictures/stimuli/E","pictures/stimuli/P","F","M","5",0.777854598298395,"23","F","right","30454",1,1,0,0,FALSE,"E_F_rotem_sela.png P_M_saar.png"
1916,"E_F_rotem_sela.png","P_M_gantz.png","FALSE","pictures/stimuli/E","pictures/stimuli/P","F","M","5",0.777854598298395,"23","F","right","30454",1,1,0,0,FALSE,"E_F_rotem_sela.png P_M_gantz.png"
2643,"P_F_regev.png","P_M_smut.png","TRUE","pictures/stimuli/P","pictures/stimuli/P","F","M","2",-1.0171944746979,"23","F","right","30454",1,1,0,0,FALSE,"P_F_regev.png P_M_smut.png"
1795,"E_F_shiri.png","P_M_buji.png","FALSE","pictures/stimuli/E","pictures/stimuli/P","F","M","5",0.777854598298395,"23","F","right","30454",1,1,0,0,FALSE,"E_F_shiri.png P_M_buji.png"
2038,"P_F_shaked.png","P_M_saar.png","TRUE","pictures/stimuli/P","pictures/stimuli/P","F","M","2",-1.0171944746979,"23","F","right","30454",1,1,0,0,FALSE,"P_F_shaked.png P_M_saar.png"
2063,"E_F_galit_gutman.png","P_M_lapid.png","FALSE","pictures/stimuli/E","pictures/stimuli/P","F","M","5",0.777854598298395,"23","F","right","30454",1,1,0,0,FALSE,"E_F_galit_gutman.png P_M_lapid.png"
2349,"E_F_rotem_sela.png","E_M_ido.png","TRUE","pictures/stimuli/E","pictures/stimuli/E","F","M","2",-1.0171944746979,"23","F","right","30454",1,1,0,0,FALSE,"E_F_rotem_sela.png E_M_ido.png"
1857,"E_M_liorA.png","P_F_staiv.png","FALSE","pictures/stimuli/E","pictures/stimuli/P","M","F","5",0.777854598298395,"23","F","right","30454",1,1,0,0,FALSE,"E_M_liorA.png P_F_staiv.png"
1724,"P_M_gantz.png","P_M_lapid.png","TRUE","pictures/stimuli/P","pictures/stimuli/P","M","M","2",-1.0171944746979,"23","F","right","30454",1,1,0,0,FALSE,"P_M_gantz.png P_M_lapid.png"
1699,"E_F_rotem_sela.png","P_F_staiv.png","FALSE","pictures/stimuli/E","pictures/stimuli/P","F","F","5",0.777854598298395,"23","F","right","30454",1,1,0,0,FALSE,"E_F_rotem_sela.png P_F_staiv.png"
4304,"E_F_rotem_sela.png","E_M_yuda.png","TRUE","pictures/stimuli/E","pictures/stimuli/E","F","M","3",-0.418844783699136,"23","F","right","30454",1,1,0,0,FALSE,"E_F_rotem_sela.png E_M_yuda.png"
2432,"P_M_benet.png","P_M_saar.png","TRUE","pictures/stimuli/P","pictures/stimuli/P","M","M","2",-1.0171944746979,"23","F","right","30454",1,1,0,0,FALSE,"P_M_benet.png P_M_saar.png"
2459,"E_F_shiri.png","P_M_benet.png","FALSE","pictures/stimuli/E","pictures/stimuli/P","F","M","5",0.777854598298395,"23","F","right","30454",1,1,0,0,FALSE,"E_F_shiri.png P_M_benet.png"
2374,"P_F_regev.png","P_M_lapid.png","TRUE","pictures/stimuli/P","pictures/stimuli/P","F","M","2",-1.0171944746979,"23","F","right","30454",1,1,0,0,FALSE,"P_F_regev.png P_M_lapid.png"
3160,"P_M_gantz.png","P_M_smut.png","TRUE","pictures/stimuli/P","pictures/stimuli/P","M","M","1",-1.61554416569667,"23","F","right","30454",1,1,0,0,FALSE,"P_M_gantz.png P_M_smut.png"
1957,"P_F_michaeli.png","P_M_benet.png","TRUE","pictures/stimuli/P","pictures/stimuli/P","F","M","1",-1.61554416569667,"23","F","right","30454",1,1,0,0,FALSE,"P_F_michaeli.png P_M_benet.png"
2826,"E_M_liorA.png","E_M_yuda.png","TRUE","pictures/stimuli/E","pictures/stimuli/E","M","M","2",-1.0171944746979,"23","F","right","30454",1,1,0,0,FALSE,"E_M_liorA.png E_M_yuda.png"
3331,"P_F_staiv.png","P_M_saar.png","TRUE","pictures/stimuli/P","pictures/stimuli/P","F","M","2",-1.0171944746979,"23","F","right","30454",1,1,0,0,FALSE,"P_F_staiv.png P_M_saar.png"
2712,"E_F_rotem_sela.png","E_M_asi.png","TRUE","pictures/stimuli/E","pictures/stimuli/E","F","M","1",-1.61554416569667,"23","F","right","30454",1,1,0,0,FALSE,"E_F_rotem_sela.png E_M_asi.png"
3114,"E_M_ido.png","E_M_yuda.png","TRUE","pictures/stimuli/E","pictures/stimuli/E","M","M","1",-1.61554416569667,"23","F","right","30454",1,1,0,0,FALSE,"E_M_ido.png E_M_yuda.png"
16240,"E_F_galit_gutman.png","E_M_yuda.png","TRUE","pictures/stimuli/E","pictures/stimuli/E","F","M","2",-1.0171944746979,"23","F","right","30454",1,1,0,0,FALSE,"E_F_galit_gutman.png E_M_yuda.png"
10355,"E_M_liorA.png","P_M_lapid.png","FALSE","pictures/stimuli/E","pictures/stimuli/P","M","M","5",0.777854598298395,"23","F","right","30454",1,1,0,0,FALSE,"E_M_liorA.png P_M_lapid.png"
2843,"E_F_rotem_sela.png","P_M_buji.png","FALSE","pictures/stimuli/E","pictures/stimuli/P","F","M","5",0.777854598298395,"23","F","right","30454",1,1,0,0,FALSE,"E_F_rotem_sela.png P_M_buji.png"
2718,"E_M_yuda.png","P_M_lapid.png","FALSE","pictures/stimuli/E","pictures/stimuli/P","M","M","5",0.777854598298395,"23","F","right","30454",1,1,0,0,FALSE,"E_M_yuda.png P_M_lapid.png"
1619,"E_M_asi.png","P_M_gantz.png","FALSE","pictures/stimuli/E","pictures/stimuli/P","M","M","5",0.777854598298395,"23","F","right","30454",1,1,0,0,FALSE,"E_M_asi.png P_M_gantz.png"
1484,"E_F_shiri.png","E_M_yuda.png","TRUE","pictures/stimuli/E","pictures/stimuli/E","F","M","5",0.777854598298395,"23","F","right","30454",1,1,0,0,FALSE,"E_F_shiri.png E_M_yuda.png"
3065,"E_F_shiri.png","P_F_regev.png","FALSE","pictures/stimuli/E","pictures/stimuli/P","F","F","6",1.37620428929716,"23","F","right","30454",1,1,0,0,FALSE,"E_F_shiri.png P_F_regev.png"
2892,"E_F_galit_gutman.png","P_M_gantz.png","FALSE","pictures/stimuli/E","pictures/stimuli/P","F","M","6",1.37620428929716,"23","F","right","30454",1,1,0,0,FALSE,"E_F_galit_gutman.png P_M_gantz.png"
4989,"P_F_shaked.png","P_F_staiv.png","TRUE","pictures/stimuli/P","pictures/stimuli/P","F","F","2",-1.0171944746979,"23","F","right","30454",1,1,0,0,FALSE,"P_F_shaked.png P_F_staiv.png"
2758,"E_F_galit_gutman.png","P_F_regev.png","FALSE","pictures/stimuli/E","pictures/stimuli/P","F","F","5",0.777854598298395,"23","F","right","30454",1,1,0,0,FALSE,"E_F_galit_gutman.png P_F_regev.png"
5038,"E_M_ido.png","P_M_buji.png","FALSE","pictures/stimuli/E","pictures/stimuli/P","M","M","5",0.777854598298395,"23","F","right","30454",1,1,0,0,FALSE,"E_M_ido.png P_M_buji.png"
6200,"E_M_danker.png","P_M_lapid.png","FALSE","pictures/stimuli/E","pictures/stimuli/P","M","M","5",0.777854598298395,"23","F","right","30454",1,1,0,0,FALSE,"E_M_danker.png P_M_lapid.png"
2417,"E_M_liorA.png","P_F_michaeli.png","FALSE","pictures/stimuli/E","pictures/stimuli/P","M","F","5",0.777854598298395,"23","F","right","30454",1,1,0,0,FALSE,"E_M_liorA.png P_F_michaeli.png"
3037,"E_M_asi.png","E_M_liorA.png","TRUE","pictures/stimuli/E","pictures/stimuli/E","M","M","6",1.37620428929716,"23","F","right","30454",1,1,0,0,FALSE,"E_M_asi.png E_M_liorA.png"
2114,"E_F_rotem_sela.png","E_M_liorA.png","TRUE","pictures/stimuli/E","pictures/stimuli/E","F","M","6",1.37620428929716,"23","F","right","30454",1,1,0,0,FALSE,"E_F_rotem_sela.png E_M_liorA.png"
4292,"P_F_staiv.png","P_M_lapid.png","TRUE","pictures/stimuli/P","pictures/stimuli/P","F","M","2",-1.0171944746979,"23","F","right","30454",1,1,0,0,FALSE,"P_F_staiv.png P_M_lapid.png"
3034,"E_F_ninet.png","P_M_lapid.png","FALSE","pictures/stimuli/E","pictures/stimuli/P","F","M","5",0.777854598298395,"23","F","right","30454",1,1,0,0,FALSE,"E_F_ninet.png P_M_lapid.png"
3734,"E_F_galit_gutman.png","E_F_ilanit.png","TRUE","pictures/stimuli/E","pictures/stimuli/E","F","F","1",-1.61554416569667,"23","F","right","30454",1,1,0,0,FALSE,"E_F_galit_gutman.png E_F_ilanit.png"
3166,"P_F_regev.png","P_M_gantz.png","TRUE","pictures/stimuli/P","pictures/stimuli/P","F","M","1",-1.61554416569667,"23","F","right","30454",1,1,0,0,FALSE,"P_F_regev.png P_M_gantz.png"
1995,"E_F_shiri.png","E_M_ido.png","TRUE","pictures/stimuli/E","pictures/stimuli/E","F","M","5",0.777854598298395,"23","F","right","30454",1,1,0,0,FALSE,"E_F_shiri.png E_M_ido.png"
8368,"P_F_regev.png","P_M_buji.png","TRUE","pictures/stimuli/P","pictures/stimuli/P","F","M","3",-0.766597810905257,"22","F","left","30073",1,1,0,0,FALSE,"P_F_regev.png P_M_buji.png"
6480,"E_M_liorA.png","P_M_buji.png","FALSE","pictures/stimuli/E","pictures/stimuli/P","M","M","5",0.478304617060545,"22","F","left","30073",0,1,0,0,TRUE,"E_M_liorA.png P_M_buji.png"
7709,"E_M_ido.png","P_F_shaked.png","FALSE","pictures/stimuli/E","pictures/stimuli/P","M","F","5",0.478304617060545,"22","F","left","30073",0,1,0,0,TRUE,"E_M_ido.png P_F_shaked.png"
3521,"E_F_ninet.png","P_F_michaeli.png","FALSE","pictures/stimuli/E","pictures/stimuli/P","F","F","6",1.10075583104345,"22","F","left","30073",1,1,0,0,FALSE,"E_F_ninet.png P_F_michaeli.png"
4024,"E_F_ilanit.png","P_M_buji.png","FALSE","pictures/stimuli/E","pictures/stimuli/P","F","M","5",0.478304617060545,"22","F","left","30073",1,1,0,0,FALSE,"E_F_ilanit.png P_M_buji.png"
2966,"E_M_asi.png","P_M_benet.png","FALSE","pictures/stimuli/E","pictures/stimuli/P","M","M","6",1.10075583104345,"22","F","left","30073",1,1,0,0,FALSE,"E_M_asi.png P_M_benet.png"
4129,"E_M_yuda.png","P_F_staiv.png","FALSE","pictures/stimuli/E","pictures/stimuli/P","M","F","3",-0.766597810905257,"22","F","left","30073",1,0,0,0,TRUE,"E_M_yuda.png P_F_staiv.png"
4659,"E_M_yuda.png","P_M_lapid.png","FALSE","pictures/stimuli/E","pictures/stimuli/P","M","M","5",0.478304617060545,"22","F","left","30073",1,1,0,0,FALSE,"E_M_yuda.png P_M_lapid.png"
2728,"E_F_ninet.png","P_M_benet.png","FALSE","pictures/stimuli/E","pictures/stimuli/P","F","M","6",1.10075583104345,"22","F","left","30073",1,1,0,0,FALSE,"E_F_ninet.png P_M_benet.png"
3648,"E_F_ilanit.png","P_F_michaeli.png","FALSE","pictures/stimuli/E","pictures/stimuli/P","F","F","5",0.478304617060545,"22","F","left","30073",1,1,0,0,FALSE,"E_F_ilanit.png P_F_michaeli.png"
6590,"E_F_galit_gutman.png","P_F_regev.png","FALSE","pictures/stimuli/E","pictures/stimuli/P","F","F","6",1.10075583104345,"22","F","left","30073",1,1,0,0,FALSE,"E_F_galit_gutman.png P_F_regev.png"
3088,"E_F_ninet.png","E_F_shiri.png","TRUE","pictures/stimuli/E","pictures/stimuli/E","F","F","1",-2.01150023887106,"22","F","left","30073",1,1,0,0,FALSE,"E_F_ninet.png E_F_shiri.png"
4668,"E_M_ido.png","P_F_michaeli.png","FALSE","pictures/stimuli/E","pictures/stimuli/P","M","F","3",-0.766597810905257,"22","F","left","30073",0,1,0,0,TRUE,"E_M_ido.png P_F_michaeli.png"
4138,"P_F_michaeli.png","P_M_benet.png","TRUE","pictures/stimuli/P","pictures/stimuli/P","F","M","2",-1.38904902488816,"22","F","left","30073",1,1,0,0,FALSE,"P_F_michaeli.png P_M_benet.png"
2750,"P_F_regev.png","P_M_lapid.png","TRUE","pictures/stimuli/P","pictures/stimuli/P","F","M","4",-0.144146596922356,"22","F","left","30073",1,1,0,0,FALSE,"P_F_regev.png P_M_lapid.png"
3611,"E_F_galit_gutman.png","E_M_ido.png","TRUE","pictures/stimuli/E","pictures/stimuli/E","F","M","3",-0.766597810905257,"22","F","left","30073",1,0,0,0,TRUE,"E_F_galit_gutman.png E_M_ido.png"
3443,"P_F_staiv.png","P_M_lapid.png","TRUE","pictures/stimuli/P","pictures/stimuli/P","F","M","4",-0.144146596922356,"22","F","left","30073",0,1,0,0,TRUE,"P_F_staiv.png P_M_lapid.png"
3815,"E_F_ilanit.png","P_M_gantz.png","FALSE","pictures/stimuli/E","pictures/stimuli/P","F","M","5",0.478304617060545,"22","F","left","30073",1,1,0,0,FALSE,"E_F_ilanit.png P_M_gantz.png"
4088,"E_F_ilanit.png","E_M_danker.png","TRUE","pictures/stimuli/E","pictures/stimuli/E","F","M","3",-0.766597810905257,"22","F","left","30073",1,1,0,0,FALSE,"E_F_ilanit.png E_M_danker.png"
4863,"E_F_shiri.png","P_F_shaked.png","FALSE","pictures/stimuli/E","pictures/stimuli/P","F","F","6",1.10075583104345,"22","F","left","30073",1,1,0,0,FALSE,"E_F_shiri.png P_F_shaked.png"
4588,"E_M_danker.png","P_M_buji.png","FALSE","pictures/stimuli/E","pictures/stimuli/P","M","M","6",1.10075583104345,"22","F","left","30073",1,1,0,0,FALSE,"E_M_danker.png P_M_buji.png"
3487,"E_M_asi.png","P_M_smut.png","FALSE","pictures/stimuli/E","pictures/stimuli/P","M","M","6",1.10075583104345,"22","F","left","30073",1,1,0,0,FALSE,"E_M_asi.png P_M_smut.png"
5285,"E_F_ilanit.png","E_M_asi.png","TRUE","pictures/stimuli/E","pictures/stimuli/E","F","M","3",-0.766597810905257,"22","F","left","30073",1,1,0,0,FALSE,"E_F_ilanit.png E_M_asi.png"
3229,"E_F_ilanit.png","P_F_regev.png","FALSE","pictures/stimuli/E","pictures/stimuli/P","F","F","5",0.478304617060545,"22","F","left","30073",1,1,0,0,FALSE,"E_F_ilanit.png P_F_regev.png"
3934,"P_F_staiv.png","P_M_benet.png","TRUE","pictures/stimuli/P","pictures/stimuli/P","F","M","4",-0.144146596922356,"22","F","left","30073",0,1,0,0,TRUE,"P_F_staiv.png P_M_benet.png"
4815,"E_F_galit_gutman.png","P_F_michaeli.png","FALSE","pictures/stimuli/E","pictures/stimuli/P","F","F","6",1.10075583104345,"22","F","left","30073",1,1,0,0,FALSE,"E_F_galit_gutman.png P_F_michaeli.png"
3784,"E_F_galit_gutman.png","P_M_saar.png","FALSE","pictures/stimuli/E","pictures/stimuli/P","F","M","6",1.10075583104345,"22","F","left","30073",1,1,0,0,FALSE,"E_F_galit_gutman.png P_M_saar.png"
2436,"P_M_buji.png","P_M_saar.png","TRUE","pictures/stimuli/P","pictures/stimuli/P","M","M","3",-0.766597810905257,"22","F","left","30073",1,1,0,0,FALSE,"P_M_buji.png P_M_saar.png"
5195,"E_M_yuda.png","P_M_buji.png","FALSE","pictures/stimuli/E","pictures/stimuli/P","M","M","6",1.10075583104345,"22","F","left","30073",1,1,0,0,FALSE,"E_M_yuda.png P_M_buji.png"
2762,"P_F_regev.png","P_F_staiv.png","TRUE","pictures/stimuli/P","pictures/stimuli/P","F","F","5",0.478304617060545,"22","F","left","30073",1,0,0,0,TRUE,"P_F_regev.png P_F_staiv.png"
4852,"E_M_liorA.png","P_F_shaked.png","FALSE","pictures/stimuli/E","pictures/stimuli/P","M","F","5",0.478304617060545,"22","F","left","30073",0,1,0,0,TRUE,"E_M_liorA.png P_F_shaked.png"
2252,"E_M_yuda.png","P_M_benet.png","FALSE","pictures/stimuli/E","pictures/stimuli/P","M","M","6",1.10075583104345,"22","F","left","30073",1,1,0,0,FALSE,"E_M_yuda.png P_M_benet.png"
2263,"E_F_rotem_sela.png","P_F_shaked.png","FALSE","pictures/stimuli/E","pictures/stimuli/P","F","F","6",1.10075583104345,"22","F","left","30073",1,1,0,0,FALSE,"E_F_rotem_sela.png P_F_shaked.png"
3095,"E_F_rotem_sela.png","P_M_smut.png","FALSE","pictures/stimuli/E","pictures/stimuli/P","F","M","6",1.10075583104345,"22","F","left","30073",1,1,0,0,FALSE,"E_F_rotem_sela.png P_M_smut.png"
3706,"E_M_danker.png","P_M_smut.png","FALSE","pictures/stimuli/E","pictures/stimuli/P","M","M","6",1.10075583104345,"22","F","left","30073",1,1,0,0,FALSE,"E_M_danker.png P_M_smut.png"
1802,"E_F_ninet.png","P_M_smut.png","FALSE","pictures/stimuli/E","pictures/stimuli/P","F","M","6",1.10075583104345,"22","F","left","30073",1,1,0,0,FALSE,"E_F_ninet.png P_M_smut.png"
2323,"P_F_shaked.png","P_M_benet.png","TRUE","pictures/stimuli/P","pictures/stimuli/P","F","M","2",-1.38904902488816,"22","F","left","30073",1,1,0,0,FALSE,"P_F_shaked.png P_M_benet.png"
2357,"P_M_gantz.png","P_M_lapid.png","TRUE","pictures/stimuli/P","pictures/stimuli/P","M","M","1",-2.01150023887106,"22","F","left","30073",1,1,0,0,FALSE,"P_M_gantz.png P_M_lapid.png"
2837,"E_M_asi.png","P_M_saar.png","FALSE","pictures/stimuli/E","pictures/stimuli/P","M","M","6",1.10075583104345,"22","F","left","30073",1,1,0,0,FALSE,"E_M_asi.png P_M_saar.png"
2427,"E_F_shiri.png","P_F_regev.png","FALSE","pictures/stimuli/E","pictures/stimuli/P","F","F","6",1.10075583104345,"22","F","left","30073",1,1,0,0,FALSE,"E_F_shiri.png P_F_regev.png"
1960,"E_F_galit_gutman.png","P_M_smut.png","FALSE","pictures/stimuli/E","pictures/stimuli/P","F","M","6",1.10075583104345,"22","F","left","30073",1,1,0,0,FALSE,"E_F_galit_gutman.png P_M_smut.png"
2964,"P_M_lapid.png","P_M_saar.png","TRUE","pictures/stimuli/P","pictures/stimuli/P","M","M","2",-1.38904902488816,"22","F","left","30073",1,1,0,0,FALSE,"P_M_lapid.png P_M_saar.png"
3360,"E_F_rotem_sela.png","E_M_yuda.png","TRUE","pictures/stimuli/E","pictures/stimuli/E","F","M","2",-1.38904902488816,"22","F","left","30073",1,1,0,0,FALSE,"E_F_rotem_sela.png E_M_yuda.png"
2191,"E_F_shiri.png","P_M_saar.png","FALSE","pictures/stimuli/E","pictures/stimuli/P","F","M","6",1.10075583104345,"22","F","left","30073",1,1,0,0,FALSE,"E_F_shiri.png P_M_saar.png"
2742,"P_F_regev.png","P_M_smut.png","TRUE","pictures/stimuli/P","pictures/stimuli/P","F","M","2",-1.38904902488816,"22","F","left","30073",1,1,0,0,FALSE,"P_F_regev.png P_M_smut.png"
2542,"E_M_asi.png","P_M_buji.png","FALSE","pictures/stimuli/E","pictures/stimuli/P","M","M","6",1.10075583104345,"22","F","left","30073",1,1,0,0,FALSE,"E_M_asi.png P_M_buji.png"
2527,"E_M_yuda.png","P_F_regev.png","FALSE","pictures/stimuli/E","pictures/stimuli/P","M","F","6",1.10075583104345,"22","F","left","30073",1,1,0,0,FALSE,"E_M_yuda.png P_F_regev.png"
2896,"P_F_michaeli.png","P_M_gantz.png","TRUE","pictures/stimuli/P","pictures/stimuli/P","F","M","2",-1.38904902488816,"22","F","left","30073",1,1,0,0,FALSE,"P_F_michaeli.png P_M_gantz.png"
3974,"E_F_rotem_sela.png","E_M_asi.png","TRUE","pictures/stimuli/E","pictures/stimuli/E","F","M","1",-2.01150023887106,"22","F","left","30073",1,1,0,0,FALSE,"E_F_rotem_sela.png E_M_asi.png"
2870,"E_M_yuda.png","P_M_smut.png","FALSE","pictures/stimuli/E","pictures/stimuli/P","M","M","6",1.10075583104345,"22","F","left","30073",1,1,0,0,FALSE,"E_M_yuda.png P_M_smut.png"
2231,"E_F_galit_gutman.png","P_F_shaked.png","FALSE","pictures/stimuli/E","pictures/stimuli/P","F","F","6",1.10075583104345,"22","F","left","30073",1,1,0,0,FALSE,"E_F_galit_gutman.png P_F_shaked.png"
1985,"E_M_yuda.png","P_F_shaked.png","FALSE","pictures/stimuli/E","pictures/stimuli/P","M","F","6",1.10075583104345,"22","F","left","30073",1,1,0,0,FALSE,"E_M_yuda.png P_F_shaked.png"
1970,"E_F_galit_gutman.png","P_M_benet.png","FALSE","pictures/stimuli/E","pictures/stimuli/P","F","M","6",1.10075583104345,"22","F","left","30073",1,1,0,0,FALSE,"E_F_galit_gutman.png P_M_benet.png"
4077,"P_F_michaeli.png","P_F_regev.png","TRUE","pictures/stimuli/P","pictures/stimuli/P","F","F","2",-1.38904902488816,"22","F","left","30073",1,1,0,0,FALSE,"P_F_michaeli.png P_F_regev.png"
2134,"E_F_ninet.png","P_M_gantz.png","FALSE","pictures/stimuli/E","pictures/stimuli/P","F","M","6",1.10075583104345,"22","F","left","30073",1,1,0,0,FALSE,"E_F_ninet.png P_M_gantz.png"
3991,"E_F_rotem_sela.png","P_M_benet.png","FALSE","pictures/stimuli/E","pictures/stimuli/P","F","M","6",1.10075583104345,"22","F","left","30073",1,1,0,0,FALSE,"E_F_rotem_sela.png P_M_benet.png"
2530,"P_F_regev.png","P_F_shaked.png","TRUE","pictures/stimuli/P","pictures/stimuli/P","F","F","2",-1.38904902488816,"22","F","left","30073",1,1,0,0,FALSE,"P_F_regev.png P_F_shaked.png"
3757,"E_F_galit_gutman.png","E_F_ninet.png","TRUE","pictures/stimuli/E","pictures/stimuli/E","F","F","2",-1.38904902488816,"22","F","left","30073",1,1,0,0,FALSE,"E_F_galit_gutman.png E_F_ninet.png"
2537,"P_F_regev.png","P_M_gantz.png","TRUE","pictures/stimuli/P","pictures/stimuli/P","F","M","2",-1.38904902488816,"22","F","left","30073",1,1,0,0,FALSE,"P_F_regev.png P_M_gantz.png"
4413,"E_F_ilanit.png","P_F_shaked.png","FALSE","pictures/stimuli/E","pictures/stimuli/P","F","F","5",0.478304617060545,"22","F","left","30073",1,1,0,0,FALSE,"E_F_ilanit.png P_F_shaked.png"
2396,"P_F_michaeli.png","P_F_shaked.png","TRUE","pictures/stimuli/P","pictures/stimuli/P","F","F","2",-1.38904902488816,"22","F","left","30073",1,1,0,0,FALSE,"P_F_michaeli.png P_F_shaked.png"
2843,"P_F_staiv.png","P_M_saar.png","TRUE","pictures/stimuli/P","pictures/stimuli/P","F","M","5",0.478304617060545,"22","F","left","30073",0,1,0,0,TRUE,"P_F_staiv.png P_M_saar.png"
2958,"E_F_shiri.png","P_M_buji.png","FALSE","pictures/stimuli/E","pictures/stimuli/P","F","M","6",1.10075583104345,"22","F","left","30073",1,1,0,0,FALSE,"E_F_shiri.png P_M_buji.png"
4624,"P_M_gantz.png","P_M_smut.png","TRUE","pictures/stimuli/P","pictures/stimuli/P","M","M","3",-0.766597810905257,"22","F","left","30073",1,1,0,0,FALSE,"P_M_gantz.png P_M_smut.png"
2369,"E_M_danker.png","P_F_shaked.png","FALSE","pictures/stimuli/E","pictures/stimuli/P","M","F","6",1.10075583104345,"22","F","left","30073",1,1,0,0,FALSE,"E_M_danker.png P_F_shaked.png"
4099,"E_F_rotem_sela.png","P_M_gantz.png","FALSE","pictures/stimuli/E","pictures/stimuli/P","F","M","6",1.10075583104345,"22","F","left","30073",1,1,0,0,FALSE,"E_F_rotem_sela.png P_M_gantz.png"
2319,"E_F_rotem_sela.png","P_F_staiv.png","FALSE","pictures/stimuli/E","pictures/stimuli/P","F","F","5",0.478304617060545,"22","F","left","30073",1,0,0,0,TRUE,"E_F_rotem_sela.png P_F_staiv.png"
4760,"E_F_ninet.png","E_M_yuda.png","TRUE","pictures/stimuli/E","pictures/stimuli/E","F","M","2",-1.38904902488816,"22","F","left","30073",1,1,0,0,FALSE,"E_F_ninet.png E_M_yuda.png"
3308,"E_F_galit_gutman.png","P_F_staiv.png","FALSE","pictures/stimuli/E","pictures/stimuli/P","F","F","4",-0.144146596922356,"22","F","left","30073",1,0,0,0,TRUE,"E_F_galit_gutman.png P_F_staiv.png"
5016,"E_M_yuda.png","P_M_gantz.png","FALSE","pictures/stimuli/E","pictures/stimuli/P","M","M","6",1.10075583104345,"22","F","left","30073",1,1,0,0,FALSE,"E_M_yuda.png P_M_gantz.png"
4153,"P_F_michaeli.png","P_M_lapid.png","TRUE","pictures/stimuli/P","pictures/stimuli/P","F","M","3",-0.766597810905257,"22","F","left","30073",1,1,0,0,FALSE,"P_F_michaeli.png P_M_lapid.png"
3831,"E_F_galit_gutman.png","E_F_shiri.png","TRUE","pictures/stimuli/E","pictures/stimuli/E","F","F","2",-1.38904902488816,"22","F","left","30073",1,1,0,0,FALSE,"E_F_galit_gutman.png E_F_shiri.png"
3478,"E_M_danker.png","E_M_liorA.png","TRUE","pictures/stimuli/E","pictures/stimuli/E","M","M","3",-0.766597810905257,"22","F","left","30073",1,0,0,0,TRUE,"E_M_danker.png E_M_liorA.png"
2594,"E_M_asi.png","P_F_michaeli.png","FALSE","pictures/stimuli/E","pictures/stimuli/P","M","F","6",1.10075583104345,"22","F","left","30073",1,1,0,0,FALSE,"E_M_asi.png P_F_michaeli.png"
3323,"P_M_gantz.png","P_M_saar.png","TRUE","pictures/stimuli/P","pictures/stimuli/P","M","M","2",-1.38904902488816,"22","F","left","30073",1,1,0,0,FALSE,"P_M_gantz.png P_M_saar.png"
3324,"E_F_shiri.png","E_M_liorA.png","TRUE","pictures/stimuli/E","pictures/stimuli/E","F","M","3",-0.766597810905257,"22","F","left","30073",1,0,0,0,TRUE,"E_F_shiri.png E_M_liorA.png"
6976,"E_F_galit_gutman.png","P_M_lapid.png","FALSE","pictures/stimuli/E","pictures/stimuli/P","F","M","6",1.10075583104345,"22","F","left","30073",1,1,0,0,FALSE,"E_F_galit_gutman.png P_M_lapid.png"
5596,"E_F_ninet.png","E_F_rotem_sela.png","TRUE","pictures/stimuli/E","pictures/stimuli/E","F","F","2",-1.38904902488816,"22","F","left","30073",1,1,0,0,FALSE,"E_F_ninet.png E_F_rotem_sela.png"
3653,"E_F_ninet.png","P_M_buji.png","FALSE","pictures/stimuli/E","pictures/stimuli/P","F","M","6",1.10075583104345,"22","F","left","30073",1,1,0,0,FALSE,"E_F_ninet.png P_M_buji.png"
3445,"E_F_ninet.png","E_M_danker.png","TRUE","pictures/stimuli/E","pictures/stimuli/E","F","M","1",-2.01150023887106,"22","F","left","30073",1,1,0,0,FALSE,"E_F_ninet.png E_M_danker.png"
5183,"P_M_lapid.png","P_M_benet.png","TRUE","pictures/stimuli/P","pictures/stimuli/P","M","M","3",-0.766597810905257,"22","F","left","30073",1,1,0,0,FALSE,"P_M_benet.png P_M_lapid.png"
3807,"E_M_danker.png","P_F_michaeli.png","FALSE","pictures/stimuli/E","pictures/stimuli/P","M","F","6",1.10075583104345,"22","F","left","30073",1,1,0,0,FALSE,"E_M_danker.png P_F_michaeli.png"
3514,"P_M_benet.png","P_M_buji.png","TRUE","pictures/stimuli/P","pictures/stimuli/P","M","M","2",-1.38904902488816,"22","F","left","30073",1,1,0,0,FALSE,"P_M_benet.png P_M_buji.png"
5294,"E_M_ido.png","P_F_regev.png","FALSE","pictures/stimuli/E","pictures/stimuli/P","M","F","5",0.478304617060545,"22","F","left","30073",0,1,0,0,TRUE,"E_M_ido.png P_F_regev.png"
3117,"E_F_ninet.png","P_F_shaked.png","FALSE","pictures/stimuli/E","pictures/stimuli/P","F","F","6",1.10075583104345,"22","F","left","30073",1,1,0,0,FALSE,"E_F_ninet.png P_F_shaked.png"
3838,"E_M_liorA.png","P_F_michaeli.png","FALSE","pictures/stimuli/E","pictures/stimuli/P","M","F","4",-0.144146596922356,"22","F","left","30073",0,1,0,0,TRUE,"E_M_liorA.png P_F_michaeli.png"
2975,"E_F_ilanit.png","P_M_saar.png","FALSE","pictures/stimuli/E","pictures/stimuli/P","F","M","5",0.478304617060545,"22","F","left","30073",1,1,0,0,FALSE,"E_F_ilanit.png P_M_saar.png"
4006,"E_M_liorA.png","P_M_gantz.png","FALSE","pictures/stimuli/E","pictures/stimuli/P","M","M","4",-0.144146596922356,"22","F","left","30073",0,1,0,0,TRUE,"E_M_liorA.png P_M_gantz.png"
3049,"E_M_danker.png","P_M_saar.png","FALSE","pictures/stimuli/E","pictures/stimuli/P","M","M","6",1.10075583104345,"22","F","left","30073",1,1,0,0,FALSE,"E_M_danker.png P_M_saar.png"
3589,"E_F_rotem_sela.png","E_M_danker.png","TRUE","pictures/stimuli/E","pictures/stimuli/E","F","M","2",-1.38904902488816,"22","F","left","30073",1,1,0,0,FALSE,"E_F_rotem_sela.png E_M_danker.png"
3124,"E_F_shiri.png","P_M_smut.png","FALSE","pictures/stimuli/E","pictures/stimuli/P","F","M","6",1.10075583104345,"22","F","left","30073",1,1,0,0,FALSE,"E_F_shiri.png P_M_smut.png"
4515,"E_F_rotem_sela.png","E_M_ido.png","TRUE","pictures/stimuli/E","pictures/stimuli/E","F","M","4",-0.144146596922356,"22","F","left","30073",1,0,0,0,TRUE,"E_F_rotem_sela.png E_M_ido.png"
6206,"E_M_asi.png","P_F_shaked.png","FALSE","pictures/stimuli/E","pictures/stimuli/P","M","F","6",1.10075583104345,"22","F","left","30073",1,1,0,0,FALSE,"E_M_asi.png P_F_shaked.png"
5063,"E_F_ilanit.png","E_F_rotem_sela.png","TRUE","pictures/stimuli/E","pictures/stimuli/E","F","F","5",0.478304617060545,"22","F","left","30073",1,1,0,0,FALSE,"E_F_ilanit.png E_F_rotem_sela.png"
6616,"P_F_regev.png","P_M_saar.png","TRUE","pictures/stimuli/P","pictures/stimuli/P","F","M","3",-0.766597810905257,"22","F","left","30073",1,1,0,0,FALSE,"P_F_regev.png P_M_saar.png"
5978,"E_M_ido.png","P_M_gantz.png","FALSE","pictures/stimuli/E","pictures/stimuli/P","M","M","4",-0.144146596922356,"22","F","left","30073",0,1,0,0,TRUE,"E_M_ido.png P_M_gantz.png"
4512,"E_F_ninet.png","P_F_regev.png","FALSE","pictures/stimuli/E","pictures/stimuli/P","F","F","6",1.10075583104345,"22","F","left","30073",1,1,0,0,FALSE,"E_F_ninet.png P_F_regev.png"
3034,"E_M_liorA.png","P_M_saar.png","FALSE","pictures/stimuli/E","pictures/stimuli/P","M","M","4",-0.144146596922356,"22","F","left","30073",0,1,0,0,TRUE,"E_M_liorA.png P_M_saar.png"
3420,"P_M_lapid.png","P_M_buji.png","TRUE","pictures/stimuli/P","pictures/stimuli/P","M","M","3",-0.766597810905257,"22","F","left","30073",1,1,0,0,FALSE,"P_M_buji.png P_M_lapid.png"
2279,"E_M_asi.png","P_M_gantz.png","FALSE","pictures/stimuli/E","pictures/stimuli/P","M","M","6",1.10075583104345,"22","F","left","30073",1,1,0,0,FALSE,"E_M_asi.png P_M_gantz.png"
1939,"E_M_ido.png","P_M_smut.png","FALSE","pictures/stimuli/E","pictures/stimuli/P","M","M","4",-0.144146596922356,"22","F","left","30073",0,1,0,0,TRUE,"E_M_ido.png P_M_smut.png"
2546,"E_M_liorA.png","P_F_regev.png","FALSE","pictures/stimuli/E","pictures/stimuli/P","M","F","4",-0.144146596922356,"22","F","left","30073",0,1,0,0,TRUE,"E_M_liorA.png P_F_regev.png"
1785,"E_F_ninet.png","E_M_liorA.png","TRUE","pictures/stimuli/E","pictures/stimuli/E","F","M","4",-0.144146596922356,"22","F","left","30073",1,0,0,0,TRUE,"E_F_ninet.png E_M_liorA.png"
3016,"E_F_galit_gutman.png","E_M_yuda.png","TRUE","pictures/stimuli/E","pictures/stimuli/E","F","M","3",-0.766597810905257,"22","F","left","30073",1,1,0,0,FALSE,"E_F_galit_gutman.png E_M_yuda.png"
2560,"E_M_ido.png","E_M_liorA.png","TRUE","pictures/stimuli/E","pictures/stimuli/E","M","M","4",-0.144146596922356,"22","F","left","30073",0,0,0,0,TRUE,"E_M_ido.png E_M_liorA.png"
2770,"E_F_ilanit.png","E_M_yuda.png","TRUE","pictures/stimuli/E","pictures/stimuli/E","F","M","5",0.478304617060545,"22","F","left","30073",1,1,0,0,FALSE,"E_F_ilanit.png E_M_yuda.png"
3469,"E_M_ido.png","P_M_lapid.png","FALSE","pictures/stimuli/E","pictures/stimuli/P","M","M","4",-0.144146596922356,"22","F","left","30073",0,1,0,0,TRUE,"E_M_ido.png P_M_lapid.png"
3774,"E_M_danker.png","P_F_regev.png","FALSE","pictures/stimuli/E","pictures/stimuli/P","M","F","6",1.10075583104345,"22","F","left","30073",1,1,0,0,FALSE,"E_M_danker.png P_F_regev.png"
3286,"P_F_michaeli.png","P_M_buji.png","TRUE","pictures/stimuli/P","pictures/stimuli/P","F","M","4",-0.144146596922356,"22","F","left","30073",1,1,0,0,FALSE,"P_F_michaeli.png P_M_buji.png"
2878,"E_M_asi.png","E_M_liorA.png","TRUE","pictures/stimuli/E","pictures/stimuli/E","M","M","4",-0.144146596922356,"22","F","left","30073",1,0,0,0,TRUE,"E_M_asi.png E_M_liorA.png"
3977,"E_F_ilanit.png","P_M_smut.png","FALSE","pictures/stimuli/E","pictures/stimuli/P","F","M","5",0.478304617060545,"22","F","left","30073",1,1,0,0,FALSE,"E_F_ilanit.png P_M_smut.png"
2615,"E_F_rotem_sela.png","P_M_saar.png","FALSE","pictures/stimuli/E","pictures/stimuli/P","F","M","6",1.10075583104345,"22","F","left","30073",1,1,0,0,FALSE,"E_F_rotem_sela.png P_M_saar.png"
6033,"E_F_rotem_sela.png","E_M_liorA.png","TRUE","pictures/stimuli/E","pictures/stimuli/E","F","M","4",-0.144146596922356,"22","F","left","30073",1,0,0,0,TRUE,"E_F_rotem_sela.png E_M_liorA.png"
5044,"E_F_shiri.png","E_M_asi.png","TRUE","pictures/stimuli/E","pictures/stimuli/E","F","M","2",-1.38904902488816,"22","F","left","30073",1,1,0,0,FALSE,"E_F_shiri.png E_M_asi.png"
2964,"E_F_shiri.png","E_M_danker.png","TRUE","pictures/stimuli/E","pictures/stimuli/E","F","M","1",-2.01150023887106,"22","F","left","30073",1,1,0,0,FALSE,"E_F_shiri.png E_M_danker.png"
3904,"E_F_galit_gutman.png","E_M_asi.png","TRUE","pictures/stimuli/E","pictures/stimuli/E","F","M","2",-1.38904902488816,"22","F","left","30073",1,1,0,0,FALSE,"E_F_galit_gutman.png E_M_asi.png"
3385,"E_F_shiri.png","P_F_michaeli.png","FALSE","pictures/stimuli/E","pictures/stimuli/P","F","F","6",1.10075583104345,"22","F","left","30073",1,1,0,0,FALSE,"E_F_shiri.png P_F_michaeli.png"
1859,"P_F_staiv.png","P_M_smut.png","TRUE","pictures/stimuli/P","pictures/stimuli/P","F","M","4",-0.144146596922356,"22","F","left","30073",0,1,0,0,TRUE,"P_F_staiv.png P_M_smut.png"
4197,"E_F_rotem_sela.png","P_F_regev.png","FALSE","pictures/stimuli/E","pictures/stimuli/P","F","F","6",1.10075583104345,"22","F","left","30073",1,1,0,0,FALSE,"E_F_rotem_sela.png P_F_regev.png"
1950,"E_M_danker.png","P_F_staiv.png","FALSE","pictures/stimuli/E","pictures/stimuli/P","M","F","4",-0.144146596922356,"22","F","left","30073",1,0,0,0,TRUE,"E_M_danker.png P_F_staiv.png"
2898,"E_F_galit_gutman.png","E_F_rotem_sela.png","TRUE","pictures/stimuli/E","pictures/stimuli/E","F","F","1",-2.01150023887106,"22","F","left","30073",1,1,0,0,FALSE,"E_F_galit_gutman.png E_F_rotem_sela.png"
2565,"P_F_staiv.png","P_M_gantz.png","TRUE","pictures/stimuli/P","pictures/stimuli/P","F","M","4",-0.144146596922356,"22","F","left","30073",0,1,0,0,TRUE,"P_F_staiv.png P_M_gantz.png"
2573,"E_F_ilanit.png","P_F_staiv.png","FALSE","pictures/stimuli/E","pictures/stimuli/P","F","F","4",-0.144146596922356,"22","F","left","30073",1,0,0,0,TRUE,"E_F_ilanit.png P_F_staiv.png"
2647,"E_F_ninet.png","E_M_ido.png","TRUE","pictures/stimuli/E","pictures/stimuli/E","F","M","4",-0.144146596922356,"22","F","left","30073",1,0,0,0,TRUE,"E_F_ninet.png E_M_ido.png"
1944,"E_M_ido.png","P_M_buji.png","FALSE","pictures/stimuli/E","pictures/stimuli/P","M","M","4",-0.144146596922356,"22","F","left","30073",0,1,0,0,TRUE,"E_M_ido.png P_M_buji.png"
2820,"E_M_danker.png","P_M_benet.png","FALSE","pictures/stimuli/E","pictures/stimuli/P","M","M","6",1.10075583104345,"22","F","left","30073",1,1,0,0,FALSE,"E_M_danker.png P_M_benet.png"
2016,"E_F_shiri.png","P_F_staiv.png","FALSE","pictures/stimuli/E","pictures/stimuli/P","F","F","4",-0.144146596922356,"22","F","left","30073",1,0,0,0,TRUE,"E_F_shiri.png P_F_staiv.png"
1663,"E_F_ninet.png","P_F_staiv.png","FALSE","pictures/stimuli/E","pictures/stimuli/P","F","F","4",-0.144146596922356,"22","F","left","30073",1,0,0,0,TRUE,"E_F_ninet.png P_F_staiv.png"
2414,"E_F_galit_gutman.png","P_M_buji.png","FALSE","pictures/stimuli/E","pictures/stimuli/P","F","M","6",1.10075583104345,"22","F","left","30073",1,1,0,0,FALSE,"E_F_galit_gutman.png P_M_buji.png"
2606,"E_M_yuda.png","P_F_michaeli.png","FALSE","pictures/stimuli/E","pictures/stimuli/P","M","F","6",1.10075583104345,"22","F","left","30073",1,1,0,0,FALSE,"E_M_yuda.png P_F_michaeli.png"
3416,"P_M_gantz.png","P_M_buji.png","TRUE","pictures/stimuli/P","pictures/stimuli/P","M","M","3",-0.766597810905257,"22","F","left","30073",1,1,0,0,FALSE,"P_M_buji.png P_M_gantz.png"
2814,"E_F_shiri.png","E_M_yuda.png","TRUE","pictures/stimuli/E","pictures/stimuli/E","F","M","1",-2.01150023887106,"22","F","left","30073",1,1,0,0,FALSE,"E_F_shiri.png E_M_yuda.png"
2784,"E_F_ninet.png","E_M_asi.png","TRUE","pictures/stimuli/E","pictures/stimuli/E","F","M","2",-1.38904902488816,"22","F","left","30073",1,1,0,0,FALSE,"E_F_ninet.png E_M_asi.png"
2364,"P_M_benet.png","P_M_saar.png","TRUE","pictures/stimuli/P","pictures/stimuli/P","M","M","2",-1.38904902488816,"22","F","left","30073",1,1,0,0,FALSE,"P_M_benet.png P_M_saar.png"
2225,"E_M_asi.png","P_M_lapid.png","FALSE","pictures/stimuli/E","pictures/stimuli/P","M","M","6",1.10075583104345,"22","F","left","30073",1,1,0,0,FALSE,"E_M_asi.png P_M_lapid.png"
2669,"E_F_shiri.png","P_M_benet.png","FALSE","pictures/stimuli/E","pictures/stimuli/P","F","M","6",1.10075583104345,"22","F","left","30073",1,1,0,0,FALSE,"E_F_shiri.png P_M_benet.png"
1989,"P_M_gantz.png","P_M_benet.png","TRUE","pictures/stimuli/P","pictures/stimuli/P","M","M","6",1.10075583104345,"22","F","left","30073",1,1,0,0,FALSE,"P_M_benet.png P_M_gantz.png"
3005,"P_F_shaked.png","P_M_gantz.png","TRUE","pictures/stimuli/P","pictures/stimuli/P","F","M","5",0.478304617060545,"22","F","left","30073",1,1,0,0,FALSE,"P_F_shaked.png P_M_gantz.png"
2112,"P_F_shaked.png","P_M_saar.png","TRUE","pictures/stimuli/P","pictures/stimuli/P","F","M","5",0.478304617060545,"22","F","left","30073",1,1,0,0,FALSE,"P_F_shaked.png P_M_saar.png"
3078,"E_F_galit_gutman.png","E_M_danker.png","TRUE","pictures/stimuli/E","pictures/stimuli/E","F","M","2",-1.38904902488816,"22","F","left","30073",1,1,0,0,FALSE,"E_F_galit_gutman.png E_M_danker.png"
2896,"P_F_regev.png","P_M_benet.png","TRUE","pictures/stimuli/P","pictures/stimuli/P","F","M","2",-1.38904902488816,"22","F","left","30073",1,1,0,0,FALSE,"P_F_regev.png P_M_benet.png"
3613,"E_M_asi.png","P_F_regev.png","FALSE","pictures/stimuli/E","pictures/stimuli/P","M","F","6",1.10075583104345,"22","F","left","30073",1,1,0,0,FALSE,"E_M_asi.png P_F_regev.png"
2239,"E_F_shiri.png","E_M_ido.png","TRUE","pictures/stimuli/E","pictures/stimuli/E","F","M","4",-0.144146596922356,"22","F","left","30073",1,0,0,0,TRUE,"E_F_shiri.png E_M_ido.png"
1557,"E_M_asi.png","P_F_staiv.png","FALSE","pictures/stimuli/E","pictures/stimuli/P","M","F","4",-0.144146596922356,"22","F","left","30073",1,0,0,0,TRUE,"E_M_asi.png P_F_staiv.png"
2535,"P_M_saar.png","P_M_smut.png","TRUE","pictures/stimuli/P","pictures/stimuli/P","M","M","2",-1.38904902488816,"22","F","left","30073",1,1,0,0,FALSE,"P_M_saar.png P_M_smut.png"
2137,"E_F_ilanit.png","E_M_ido.png","TRUE","pictures/stimuli/E","pictures/stimuli/E","F","M","4",-0.144146596922356,"22","F","left","30073",1,0,0,0,TRUE,"E_F_ilanit.png E_M_ido.png"
3723,"E_M_yuda.png","P_M_saar.png","FALSE","pictures/stimuli/E","pictures/stimuli/P","M","M","6",1.10075583104345,"22","F","left","30073",1,1,0,0,FALSE,"E_M_yuda.png P_M_saar.png"
4425,"E_F_ilanit.png","P_M_lapid.png","FALSE","pictures/stimuli/E","pictures/stimuli/P","F","M","5",0.478304617060545,"22","F","left","30073",1,1,0,0,FALSE,"E_F_ilanit.png P_M_lapid.png"
7656,"P_F_shaked.png","P_M_smut.png","TRUE","pictures/stimuli/P","pictures/stimuli/P","F","M","5",0.478304617060545,"22","F","left","30073",1,1,0,0,FALSE,"P_F_shaked.png P_M_smut.png"
4084,"E_F_rotem_sela.png","P_M_buji.png","FALSE","pictures/stimuli/E","pictures/stimuli/P","F","M","6",1.10075583104345,"22","F","left","30073",1,1,0,0,FALSE,"E_F_rotem_sela.png P_M_buji.png"
3138,"E_M_ido.png","P_M_saar.png","FALSE","pictures/stimuli/E","pictures/stimuli/P","M","M","4",-0.144146596922356,"22","F","left","30073",0,1,0,0,TRUE,"E_M_ido.png P_M_saar.png"
4645,"P_F_shaked.png","P_M_buji.png","TRUE","pictures/stimuli/P","pictures/stimuli/P","F","M","2",-1.38904902488816,"22","F","left","30073",1,1,0,0,FALSE,"P_F_shaked.png P_M_buji.png"
2040,"E_M_danker.png","E_M_ido.png","TRUE","pictures/stimuli/E","pictures/stimuli/E","M","M","4",-0.144146596922356,"22","F","left","30073",1,0,0,0,TRUE,"E_M_danker.png E_M_ido.png"
