"RT","img_1","img_2","isSameProffesion","img1proffesion","img2proffesion","img1Gender","img2Gender","keyPressed","normlised_keyPress","age","gender","handedness","participant","isFamiliar_img1","isFamiliar_img2","vividness_img1","vividness_img2","reject_trial","condition","pair"
NA,"E_F_galit_gutman.png","E_F_ilanit.png",NA,NA,NA,NA,NA,0.795926392,NA,NA,NA,NA,NA,NA,NA,NA,NA,FALSE,"VGG","E_F_galit_gutman.png E_F_ilanit.png"
NA,"E_F_galit_gutman.png","E_F_ninet.png",NA,NA,NA,NA,NA,0.888835564,NA,NA,NA,NA,NA,NA,NA,NA,NA,FALSE,"VGG","E_F_galit_gutman.png E_F_ninet.png"
NA,"E_F_galit_gutman.png","E_F_rotem_sela.png",NA,NA,NA,NA,NA,0.852775887,NA,NA,NA,NA,NA,NA,NA,NA,NA,FALSE,"VGG","E_F_galit_gutman.png E_F_rotem_sela.png"
NA,"E_F_galit_gutman.png","E_F_shiri.png",NA,NA,NA,NA,NA,0.788440928,NA,NA,NA,NA,NA,NA,NA,NA,NA,FALSE,"VGG","E_F_galit_gutman.png E_F_shiri.png"
NA,"E_F_galit_gutman.png","E_M_asi.png",NA,NA,NA,NA,NA,0.93547602,NA,NA,NA,NA,NA,NA,NA,NA,NA,FALSE,"VGG","E_F_galit_gutman.png E_M_asi.png"
NA,"E_F_galit_gutman.png","E_M_danker.png",NA,NA,NA,NA,NA,0.925935194,NA,NA,NA,NA,NA,NA,NA,NA,NA,FALSE,"VGG","E_F_galit_gutman.png E_M_danker.png"
NA,"E_F_galit_gutman.png","E_M_ido.png",NA,NA,NA,NA,NA,0.852137819,NA,NA,NA,NA,NA,NA,NA,NA,NA,FALSE,"VGG","E_F_galit_gutman.png E_M_ido.png"
NA,"E_F_galit_gutman.png","E_M_liorA.png",NA,NA,NA,NA,NA,0.883670658,NA,NA,NA,NA,NA,NA,NA,NA,NA,FALSE,"VGG","E_F_galit_gutman.png E_M_liorA.png"
NA,"E_F_galit_gutman.png","E_M_yuda.png",NA,NA,NA,NA,NA,0.918765761,NA,NA,NA,NA,NA,NA,NA,NA,NA,FALSE,"VGG","E_F_galit_gutman.png E_M_yuda.png"
NA,"E_F_galit_gutman.png","P_F_michaeli.png",NA,NA,NA,NA,NA,0.770283476,NA,NA,NA,NA,NA,NA,NA,NA,NA,FALSE,"VGG","E_F_galit_gutman.png P_F_michaeli.png"
NA,"E_F_galit_gutman.png","P_F_regev.png",NA,NA,NA,NA,NA,0.879482217,NA,NA,NA,NA,NA,NA,NA,NA,NA,FALSE,"VGG","E_F_galit_gutman.png P_F_regev.png"
NA,"E_F_galit_gutman.png","P_F_shaked.png",NA,NA,NA,NA,NA,0.810034901,NA,NA,NA,NA,NA,NA,NA,NA,NA,FALSE,"VGG","E_F_galit_gutman.png P_F_shaked.png"
NA,"E_F_galit_gutman.png","P_F_staiv.png",NA,NA,NA,NA,NA,0.864913091,NA,NA,NA,NA,NA,NA,NA,NA,NA,FALSE,"VGG","E_F_galit_gutman.png P_F_staiv.png"
NA,"E_F_galit_gutman.png","P_M_benet.png",NA,NA,NA,NA,NA,0.817926481,NA,NA,NA,NA,NA,NA,NA,NA,NA,FALSE,"VGG","E_F_galit_gutman.png P_M_benet.png"
NA,"E_F_galit_gutman.png","P_M_buji.png",NA,NA,NA,NA,NA,0.911037736,NA,NA,NA,NA,NA,NA,NA,NA,NA,FALSE,"VGG","E_F_galit_gutman.png P_M_buji.png"
NA,"E_F_galit_gutman.png","P_M_gantz.png",NA,NA,NA,NA,NA,0.886454985,NA,NA,NA,NA,NA,NA,NA,NA,NA,FALSE,"VGG","E_F_galit_gutman.png P_M_gantz.png"
NA,"E_F_galit_gutman.png","P_M_lapid.png",NA,NA,NA,NA,NA,0.904525876,NA,NA,NA,NA,NA,NA,NA,NA,NA,FALSE,"VGG","E_F_galit_gutman.png P_M_lapid.png"
NA,"E_F_galit_gutman.png","P_M_saar.png",NA,NA,NA,NA,NA,0.926203996,NA,NA,NA,NA,NA,NA,NA,NA,NA,FALSE,"VGG","E_F_galit_gutman.png P_M_saar.png"
NA,"E_F_galit_gutman.png","P_M_smut.png",NA,NA,NA,NA,NA,0.912383109,NA,NA,NA,NA,NA,NA,NA,NA,NA,FALSE,"VGG","E_F_galit_gutman.png P_M_smut.png"
NA,"E_F_ilanit.png","E_F_ninet.png",NA,NA,NA,NA,NA,0.867162392,NA,NA,NA,NA,NA,NA,NA,NA,NA,FALSE,"VGG","E_F_ilanit.png E_F_ninet.png"
NA,"E_F_ilanit.png","E_F_rotem_sela.png",NA,NA,NA,NA,NA,0.736317992,NA,NA,NA,NA,NA,NA,NA,NA,NA,FALSE,"VGG","E_F_ilanit.png E_F_rotem_sela.png"
NA,"E_F_ilanit.png","E_F_shiri.png",NA,NA,NA,NA,NA,0.811018258,NA,NA,NA,NA,NA,NA,NA,NA,NA,FALSE,"VGG","E_F_ilanit.png E_F_shiri.png"
NA,"E_F_ilanit.png","E_M_asi.png",NA,NA,NA,NA,NA,0.904005378,NA,NA,NA,NA,NA,NA,NA,NA,NA,FALSE,"VGG","E_F_ilanit.png E_M_asi.png"
NA,"E_F_ilanit.png","E_M_danker.png",NA,NA,NA,NA,NA,0.951267153,NA,NA,NA,NA,NA,NA,NA,NA,NA,FALSE,"VGG","E_F_ilanit.png E_M_danker.png"
NA,"E_F_ilanit.png","E_M_ido.png",NA,NA,NA,NA,NA,0.802493811,NA,NA,NA,NA,NA,NA,NA,NA,NA,FALSE,"VGG","E_F_ilanit.png E_M_ido.png"
NA,"E_F_ilanit.png","E_M_liorA.png",NA,NA,NA,NA,NA,0.86540474,NA,NA,NA,NA,NA,NA,NA,NA,NA,FALSE,"VGG","E_F_ilanit.png E_M_liorA.png"
NA,"E_F_ilanit.png","E_M_yuda.png",NA,NA,NA,NA,NA,0.852329448,NA,NA,NA,NA,NA,NA,NA,NA,NA,FALSE,"VGG","E_F_ilanit.png E_M_yuda.png"
NA,"E_F_ilanit.png","P_F_michaeli.png",NA,NA,NA,NA,NA,0.806853324,NA,NA,NA,NA,NA,NA,NA,NA,NA,FALSE,"VGG","E_F_ilanit.png P_F_michaeli.png"
NA,"E_F_ilanit.png","P_F_regev.png",NA,NA,NA,NA,NA,0.806072697,NA,NA,NA,NA,NA,NA,NA,NA,NA,FALSE,"VGG","E_F_ilanit.png P_F_regev.png"
NA,"E_F_ilanit.png","P_F_shaked.png",NA,NA,NA,NA,NA,0.850041673,NA,NA,NA,NA,NA,NA,NA,NA,NA,FALSE,"VGG","E_F_ilanit.png P_F_shaked.png"
NA,"E_F_ilanit.png","P_F_staiv.png",NA,NA,NA,NA,NA,0.898797281,NA,NA,NA,NA,NA,NA,NA,NA,NA,FALSE,"VGG","E_F_ilanit.png P_F_staiv.png"
NA,"E_F_ilanit.png","P_M_benet.png",NA,NA,NA,NA,NA,0.854347512,NA,NA,NA,NA,NA,NA,NA,NA,NA,FALSE,"VGG","E_F_ilanit.png P_M_benet.png"
NA,"E_F_ilanit.png","P_M_buji.png",NA,NA,NA,NA,NA,0.91581288,NA,NA,NA,NA,NA,NA,NA,NA,NA,FALSE,"VGG","E_F_ilanit.png P_M_buji.png"
NA,"E_F_ilanit.png","P_M_gantz.png",NA,NA,NA,NA,NA,0.922098994,NA,NA,NA,NA,NA,NA,NA,NA,NA,FALSE,"VGG","E_F_ilanit.png P_M_gantz.png"
NA,"E_F_ilanit.png","P_M_lapid.png",NA,NA,NA,NA,NA,0.891927339,NA,NA,NA,NA,NA,NA,NA,NA,NA,FALSE,"VGG","E_F_ilanit.png P_M_lapid.png"
NA,"E_F_ilanit.png","P_M_saar.png",NA,NA,NA,NA,NA,0.87834771,NA,NA,NA,NA,NA,NA,NA,NA,NA,FALSE,"VGG","E_F_ilanit.png P_M_saar.png"
NA,"E_F_ilanit.png","P_M_smut.png",NA,NA,NA,NA,NA,0.896312468,NA,NA,NA,NA,NA,NA,NA,NA,NA,FALSE,"VGG","E_F_ilanit.png P_M_smut.png"
NA,"E_F_ninet.png","E_F_rotem_sela.png",NA,NA,NA,NA,NA,0.838571563,NA,NA,NA,NA,NA,NA,NA,NA,NA,FALSE,"VGG","E_F_ninet.png E_F_rotem_sela.png"
NA,"E_F_ninet.png","E_F_shiri.png",NA,NA,NA,NA,NA,0.817035958,NA,NA,NA,NA,NA,NA,NA,NA,NA,FALSE,"VGG","E_F_ninet.png E_F_shiri.png"
NA,"E_F_ninet.png","E_M_asi.png",NA,NA,NA,NA,NA,0.809035257,NA,NA,NA,NA,NA,NA,NA,NA,NA,FALSE,"VGG","E_F_ninet.png E_M_asi.png"
NA,"E_F_ninet.png","E_M_danker.png",NA,NA,NA,NA,NA,0.808034286,NA,NA,NA,NA,NA,NA,NA,NA,NA,FALSE,"VGG","E_F_ninet.png E_M_danker.png"
NA,"E_F_ninet.png","E_M_ido.png",NA,NA,NA,NA,NA,0.914939553,NA,NA,NA,NA,NA,NA,NA,NA,NA,FALSE,"VGG","E_F_ninet.png E_M_ido.png"
NA,"E_F_ninet.png","E_M_liorA.png",NA,NA,NA,NA,NA,0.890770391,NA,NA,NA,NA,NA,NA,NA,NA,NA,FALSE,"VGG","E_F_ninet.png E_M_liorA.png"
NA,"E_F_ninet.png","E_M_yuda.png",NA,NA,NA,NA,NA,0.863517329,NA,NA,NA,NA,NA,NA,NA,NA,NA,FALSE,"VGG","E_F_ninet.png E_M_yuda.png"
NA,"E_F_ninet.png","P_F_michaeli.png",NA,NA,NA,NA,NA,0.845237747,NA,NA,NA,NA,NA,NA,NA,NA,NA,FALSE,"VGG","E_F_ninet.png P_F_michaeli.png"
NA,"E_F_ninet.png","P_F_regev.png",NA,NA,NA,NA,NA,0.792849749,NA,NA,NA,NA,NA,NA,NA,NA,NA,FALSE,"VGG","E_F_ninet.png P_F_regev.png"
NA,"E_F_ninet.png","P_F_shaked.png",NA,NA,NA,NA,NA,0.763967857,NA,NA,NA,NA,NA,NA,NA,NA,NA,FALSE,"VGG","E_F_ninet.png P_F_shaked.png"
NA,"E_F_ninet.png","P_F_staiv.png",NA,NA,NA,NA,NA,0.836720899,NA,NA,NA,NA,NA,NA,NA,NA,NA,FALSE,"VGG","E_F_ninet.png P_F_staiv.png"
NA,"E_F_ninet.png","P_M_benet.png",NA,NA,NA,NA,NA,0.952196956,NA,NA,NA,NA,NA,NA,NA,NA,NA,FALSE,"VGG","E_F_ninet.png P_M_benet.png"
NA,"E_F_ninet.png","P_M_buji.png",NA,NA,NA,NA,NA,0.85722658,NA,NA,NA,NA,NA,NA,NA,NA,NA,FALSE,"VGG","E_F_ninet.png P_M_buji.png"
NA,"E_F_ninet.png","P_M_gantz.png",NA,NA,NA,NA,NA,0.856408462,NA,NA,NA,NA,NA,NA,NA,NA,NA,FALSE,"VGG","E_F_ninet.png P_M_gantz.png"
NA,"E_F_ninet.png","P_M_lapid.png",NA,NA,NA,NA,NA,0.897102967,NA,NA,NA,NA,NA,NA,NA,NA,NA,FALSE,"VGG","E_F_ninet.png P_M_lapid.png"
NA,"E_F_ninet.png","P_M_saar.png",NA,NA,NA,NA,NA,0.891035452,NA,NA,NA,NA,NA,NA,NA,NA,NA,FALSE,"VGG","E_F_ninet.png P_M_saar.png"
NA,"E_F_ninet.png","P_M_smut.png",NA,NA,NA,NA,NA,0.967696879,NA,NA,NA,NA,NA,NA,NA,NA,NA,FALSE,"VGG","E_F_ninet.png P_M_smut.png"
NA,"E_F_rotem_sela.png","E_F_shiri.png",NA,NA,NA,NA,NA,0.79296501,NA,NA,NA,NA,NA,NA,NA,NA,NA,FALSE,"VGG","E_F_rotem_sela.png E_F_shiri.png"
NA,"E_F_rotem_sela.png","E_M_asi.png",NA,NA,NA,NA,NA,0.901999272,NA,NA,NA,NA,NA,NA,NA,NA,NA,FALSE,"VGG","E_F_rotem_sela.png E_M_asi.png"
NA,"E_F_rotem_sela.png","E_M_danker.png",NA,NA,NA,NA,NA,0.853922516,NA,NA,NA,NA,NA,NA,NA,NA,NA,FALSE,"VGG","E_F_rotem_sela.png E_M_danker.png"
NA,"E_F_rotem_sela.png","E_M_ido.png",NA,NA,NA,NA,NA,0.804830238,NA,NA,NA,NA,NA,NA,NA,NA,NA,FALSE,"VGG","E_F_rotem_sela.png E_M_ido.png"
NA,"E_F_rotem_sela.png","E_M_liorA.png",NA,NA,NA,NA,NA,0.883671723,NA,NA,NA,NA,NA,NA,NA,NA,NA,FALSE,"VGG","E_F_rotem_sela.png E_M_liorA.png"
NA,"E_F_rotem_sela.png","E_M_yuda.png",NA,NA,NA,NA,NA,0.82390812,NA,NA,NA,NA,NA,NA,NA,NA,NA,FALSE,"VGG","E_F_rotem_sela.png E_M_yuda.png"
NA,"E_F_rotem_sela.png","P_F_michaeli.png",NA,NA,NA,NA,NA,0.879215151,NA,NA,NA,NA,NA,NA,NA,NA,NA,FALSE,"VGG","E_F_rotem_sela.png P_F_michaeli.png"
NA,"E_F_rotem_sela.png","P_F_regev.png",NA,NA,NA,NA,NA,0.67179805,NA,NA,NA,NA,NA,NA,NA,NA,NA,FALSE,"VGG","E_F_rotem_sela.png P_F_regev.png"
NA,"E_F_rotem_sela.png","P_F_shaked.png",NA,NA,NA,NA,NA,0.537661582,NA,NA,NA,NA,NA,NA,NA,NA,NA,FALSE,"VGG","E_F_rotem_sela.png P_F_shaked.png"
NA,"E_F_rotem_sela.png","P_F_staiv.png",NA,NA,NA,NA,NA,0.822179794,NA,NA,NA,NA,NA,NA,NA,NA,NA,FALSE,"VGG","E_F_rotem_sela.png P_F_staiv.png"
NA,"E_F_rotem_sela.png","P_M_benet.png",NA,NA,NA,NA,NA,0.829418063,NA,NA,NA,NA,NA,NA,NA,NA,NA,FALSE,"VGG","E_F_rotem_sela.png P_M_benet.png"
NA,"E_F_rotem_sela.png","P_M_buji.png",NA,NA,NA,NA,NA,0.882486753,NA,NA,NA,NA,NA,NA,NA,NA,NA,FALSE,"VGG","E_F_rotem_sela.png P_M_buji.png"
NA,"E_F_rotem_sela.png","P_M_gantz.png",NA,NA,NA,NA,NA,0.96523549,NA,NA,NA,NA,NA,NA,NA,NA,NA,FALSE,"VGG","E_F_rotem_sela.png P_M_gantz.png"
NA,"E_F_rotem_sela.png","P_M_lapid.png",NA,NA,NA,NA,NA,0.912992179,NA,NA,NA,NA,NA,NA,NA,NA,NA,FALSE,"VGG","E_F_rotem_sela.png P_M_lapid.png"
NA,"E_F_rotem_sela.png","P_M_saar.png",NA,NA,NA,NA,NA,0.913581535,NA,NA,NA,NA,NA,NA,NA,NA,NA,FALSE,"VGG","E_F_rotem_sela.png P_M_saar.png"
NA,"E_F_rotem_sela.png","P_M_smut.png",NA,NA,NA,NA,NA,0.902311653,NA,NA,NA,NA,NA,NA,NA,NA,NA,FALSE,"VGG","E_F_rotem_sela.png P_M_smut.png"
NA,"E_F_shiri.png","E_M_asi.png",NA,NA,NA,NA,NA,0.949624591,NA,NA,NA,NA,NA,NA,NA,NA,NA,FALSE,"VGG","E_F_shiri.png E_M_asi.png"
NA,"E_F_shiri.png","E_M_danker.png",NA,NA,NA,NA,NA,0.900000654,NA,NA,NA,NA,NA,NA,NA,NA,NA,FALSE,"VGG","E_F_shiri.png E_M_danker.png"
NA,"E_F_shiri.png","E_M_ido.png",NA,NA,NA,NA,NA,0.939607669,NA,NA,NA,NA,NA,NA,NA,NA,NA,FALSE,"VGG","E_F_shiri.png E_M_ido.png"
NA,"E_F_shiri.png","E_M_liorA.png",NA,NA,NA,NA,NA,0.877864003,NA,NA,NA,NA,NA,NA,NA,NA,NA,FALSE,"VGG","E_F_shiri.png E_M_liorA.png"
NA,"E_F_shiri.png","E_M_yuda.png",NA,NA,NA,NA,NA,0.934652366,NA,NA,NA,NA,NA,NA,NA,NA,NA,FALSE,"VGG","E_F_shiri.png E_M_yuda.png"
NA,"E_F_shiri.png","P_F_michaeli.png",NA,NA,NA,NA,NA,0.810914069,NA,NA,NA,NA,NA,NA,NA,NA,NA,FALSE,"VGG","E_F_shiri.png P_F_michaeli.png"
NA,"E_F_shiri.png","P_F_regev.png",NA,NA,NA,NA,NA,0.765222013,NA,NA,NA,NA,NA,NA,NA,NA,NA,FALSE,"VGG","E_F_shiri.png P_F_regev.png"
NA,"E_F_shiri.png","P_F_shaked.png",NA,NA,NA,NA,NA,0.807051927,NA,NA,NA,NA,NA,NA,NA,NA,NA,FALSE,"VGG","E_F_shiri.png P_F_shaked.png"
NA,"E_F_shiri.png","P_F_staiv.png",NA,NA,NA,NA,NA,0.872523129,NA,NA,NA,NA,NA,NA,NA,NA,NA,FALSE,"VGG","E_F_shiri.png P_F_staiv.png"
NA,"E_F_shiri.png","P_M_benet.png",NA,NA,NA,NA,NA,0.932063945,NA,NA,NA,NA,NA,NA,NA,NA,NA,FALSE,"VGG","E_F_shiri.png P_M_benet.png"
NA,"E_F_shiri.png","P_M_buji.png",NA,NA,NA,NA,NA,0.892333671,NA,NA,NA,NA,NA,NA,NA,NA,NA,FALSE,"VGG","E_F_shiri.png P_M_buji.png"
NA,"E_F_shiri.png","P_M_gantz.png",NA,NA,NA,NA,NA,0.839830771,NA,NA,NA,NA,NA,NA,NA,NA,NA,FALSE,"VGG","E_F_shiri.png P_M_gantz.png"
NA,"E_F_shiri.png","P_M_lapid.png",NA,NA,NA,NA,NA,0.84846662,NA,NA,NA,NA,NA,NA,NA,NA,NA,FALSE,"VGG","E_F_shiri.png P_M_lapid.png"
NA,"E_F_shiri.png","P_M_saar.png",NA,NA,NA,NA,NA,0.914288908,NA,NA,NA,NA,NA,NA,NA,NA,NA,FALSE,"VGG","E_F_shiri.png P_M_saar.png"
NA,"E_F_shiri.png","P_M_smut.png",NA,NA,NA,NA,NA,0.877733484,NA,NA,NA,NA,NA,NA,NA,NA,NA,FALSE,"VGG","E_F_shiri.png P_M_smut.png"
NA,"E_M_asi.png","E_M_danker.png",NA,NA,NA,NA,NA,0.734777212,NA,NA,NA,NA,NA,NA,NA,NA,NA,FALSE,"VGG","E_M_asi.png E_M_danker.png"
NA,"E_M_asi.png","E_M_ido.png",NA,NA,NA,NA,NA,0.859531581,NA,NA,NA,NA,NA,NA,NA,NA,NA,FALSE,"VGG","E_M_asi.png E_M_ido.png"
NA,"E_M_asi.png","E_M_liorA.png",NA,NA,NA,NA,NA,0.942176152,NA,NA,NA,NA,NA,NA,NA,NA,NA,FALSE,"VGG","E_M_asi.png E_M_liorA.png"
NA,"E_M_asi.png","E_M_yuda.png",NA,NA,NA,NA,NA,0.842171326,NA,NA,NA,NA,NA,NA,NA,NA,NA,FALSE,"VGG","E_M_asi.png E_M_yuda.png"
NA,"E_M_asi.png","P_F_michaeli.png",NA,NA,NA,NA,NA,0.939626373,NA,NA,NA,NA,NA,NA,NA,NA,NA,FALSE,"VGG","E_M_asi.png P_F_michaeli.png"
NA,"E_M_asi.png","P_F_regev.png",NA,NA,NA,NA,NA,0.913398117,NA,NA,NA,NA,NA,NA,NA,NA,NA,FALSE,"VGG","E_M_asi.png P_F_regev.png"
NA,"E_M_asi.png","P_F_shaked.png",NA,NA,NA,NA,NA,0.921344668,NA,NA,NA,NA,NA,NA,NA,NA,NA,FALSE,"VGG","E_M_asi.png P_F_shaked.png"
NA,"E_M_asi.png","P_F_staiv.png",NA,NA,NA,NA,NA,0.798022941,NA,NA,NA,NA,NA,NA,NA,NA,NA,FALSE,"VGG","E_M_asi.png P_F_staiv.png"
NA,"E_M_asi.png","P_M_benet.png",NA,NA,NA,NA,NA,0.866723865,NA,NA,NA,NA,NA,NA,NA,NA,NA,FALSE,"VGG","E_M_asi.png P_M_benet.png"
NA,"E_M_asi.png","P_M_buji.png",NA,NA,NA,NA,NA,0.909634776,NA,NA,NA,NA,NA,NA,NA,NA,NA,FALSE,"VGG","E_M_asi.png P_M_buji.png"
NA,"E_M_asi.png","P_M_gantz.png",NA,NA,NA,NA,NA,0.8702932,NA,NA,NA,NA,NA,NA,NA,NA,NA,FALSE,"VGG","E_M_asi.png P_M_gantz.png"
NA,"E_M_asi.png","P_M_lapid.png",NA,NA,NA,NA,NA,0.894339301,NA,NA,NA,NA,NA,NA,NA,NA,NA,FALSE,"VGG","E_M_asi.png P_M_lapid.png"
NA,"E_M_asi.png","P_M_saar.png",NA,NA,NA,NA,NA,0.8527814,NA,NA,NA,NA,NA,NA,NA,NA,NA,FALSE,"VGG","E_M_asi.png P_M_saar.png"
NA,"E_M_asi.png","P_M_smut.png",NA,NA,NA,NA,NA,0.869589001,NA,NA,NA,NA,NA,NA,NA,NA,NA,FALSE,"VGG","E_M_asi.png P_M_smut.png"
NA,"E_M_danker.png","E_M_ido.png",NA,NA,NA,NA,NA,0.828991264,NA,NA,NA,NA,NA,NA,NA,NA,NA,FALSE,"VGG","E_M_danker.png E_M_ido.png"
NA,"E_M_danker.png","E_M_liorA.png",NA,NA,NA,NA,NA,0.905402854,NA,NA,NA,NA,NA,NA,NA,NA,NA,FALSE,"VGG","E_M_danker.png E_M_liorA.png"
NA,"E_M_danker.png","E_M_yuda.png",NA,NA,NA,NA,NA,0.814598843,NA,NA,NA,NA,NA,NA,NA,NA,NA,FALSE,"VGG","E_M_danker.png E_M_yuda.png"
NA,"E_M_danker.png","P_F_michaeli.png",NA,NA,NA,NA,NA,0.94231705,NA,NA,NA,NA,NA,NA,NA,NA,NA,FALSE,"VGG","E_M_danker.png P_F_michaeli.png"
NA,"E_M_danker.png","P_F_regev.png",NA,NA,NA,NA,NA,0.802302435,NA,NA,NA,NA,NA,NA,NA,NA,NA,FALSE,"VGG","E_M_danker.png P_F_regev.png"
NA,"E_M_danker.png","P_F_shaked.png",NA,NA,NA,NA,NA,0.799437642,NA,NA,NA,NA,NA,NA,NA,NA,NA,FALSE,"VGG","E_M_danker.png P_F_shaked.png"
NA,"E_M_danker.png","P_F_staiv.png",NA,NA,NA,NA,NA,0.815459266,NA,NA,NA,NA,NA,NA,NA,NA,NA,FALSE,"VGG","E_M_danker.png P_F_staiv.png"
NA,"E_M_danker.png","P_M_benet.png",NA,NA,NA,NA,NA,0.959514804,NA,NA,NA,NA,NA,NA,NA,NA,NA,FALSE,"VGG","E_M_danker.png P_M_benet.png"
NA,"E_M_danker.png","P_M_buji.png",NA,NA,NA,NA,NA,0.866363555,NA,NA,NA,NA,NA,NA,NA,NA,NA,FALSE,"VGG","E_M_danker.png P_M_buji.png"
NA,"E_M_danker.png","P_M_gantz.png",NA,NA,NA,NA,NA,0.916828804,NA,NA,NA,NA,NA,NA,NA,NA,NA,FALSE,"VGG","E_M_danker.png P_M_gantz.png"
NA,"E_M_danker.png","P_M_lapid.png",NA,NA,NA,NA,NA,0.848715216,NA,NA,NA,NA,NA,NA,NA,NA,NA,FALSE,"VGG","E_M_danker.png P_M_lapid.png"
NA,"E_M_danker.png","P_M_saar.png",NA,NA,NA,NA,NA,0.905431293,NA,NA,NA,NA,NA,NA,NA,NA,NA,FALSE,"VGG","E_M_danker.png P_M_saar.png"
NA,"E_M_danker.png","P_M_smut.png",NA,NA,NA,NA,NA,0.826494113,NA,NA,NA,NA,NA,NA,NA,NA,NA,FALSE,"VGG","E_M_danker.png P_M_smut.png"
NA,"E_M_ido.png","E_M_liorA.png",NA,NA,NA,NA,NA,0.906907484,NA,NA,NA,NA,NA,NA,NA,NA,NA,FALSE,"VGG","E_M_ido.png E_M_liorA.png"
NA,"E_M_ido.png","E_M_yuda.png",NA,NA,NA,NA,NA,0.625998288,NA,NA,NA,NA,NA,NA,NA,NA,NA,FALSE,"VGG","E_M_ido.png E_M_yuda.png"
NA,"E_M_ido.png","P_F_michaeli.png",NA,NA,NA,NA,NA,0.727421165,NA,NA,NA,NA,NA,NA,NA,NA,NA,FALSE,"VGG","E_M_ido.png P_F_michaeli.png"
NA,"E_M_ido.png","P_F_regev.png",NA,NA,NA,NA,NA,0.813032374,NA,NA,NA,NA,NA,NA,NA,NA,NA,FALSE,"VGG","E_M_ido.png P_F_regev.png"
NA,"E_M_ido.png","P_F_shaked.png",NA,NA,NA,NA,NA,0.802013651,NA,NA,NA,NA,NA,NA,NA,NA,NA,FALSE,"VGG","E_M_ido.png P_F_shaked.png"
NA,"E_M_ido.png","P_F_staiv.png",NA,NA,NA,NA,NA,0.872793823,NA,NA,NA,NA,NA,NA,NA,NA,NA,FALSE,"VGG","E_M_ido.png P_F_staiv.png"
NA,"E_M_ido.png","P_M_benet.png",NA,NA,NA,NA,NA,0.772851914,NA,NA,NA,NA,NA,NA,NA,NA,NA,FALSE,"VGG","E_M_ido.png P_M_benet.png"
NA,"E_M_ido.png","P_M_buji.png",NA,NA,NA,NA,NA,0.839236498,NA,NA,NA,NA,NA,NA,NA,NA,NA,FALSE,"VGG","E_M_ido.png P_M_buji.png"
NA,"E_M_ido.png","P_M_gantz.png",NA,NA,NA,NA,NA,0.927812271,NA,NA,NA,NA,NA,NA,NA,NA,NA,FALSE,"VGG","E_M_ido.png P_M_gantz.png"
NA,"E_M_ido.png","P_M_lapid.png",NA,NA,NA,NA,NA,0.884534217,NA,NA,NA,NA,NA,NA,NA,NA,NA,FALSE,"VGG","E_M_ido.png P_M_lapid.png"
NA,"E_M_ido.png","P_M_saar.png",NA,NA,NA,NA,NA,0.842000291,NA,NA,NA,NA,NA,NA,NA,NA,NA,FALSE,"VGG","E_M_ido.png P_M_saar.png"
NA,"E_M_ido.png","P_M_smut.png",NA,NA,NA,NA,NA,0.761245295,NA,NA,NA,NA,NA,NA,NA,NA,NA,FALSE,"VGG","E_M_ido.png P_M_smut.png"
NA,"E_M_liorA.png","E_M_yuda.png",NA,NA,NA,NA,NA,0.857989356,NA,NA,NA,NA,NA,NA,NA,NA,NA,FALSE,"VGG","E_M_liorA.png E_M_yuda.png"
NA,"E_M_liorA.png","P_F_michaeli.png",NA,NA,NA,NA,NA,0.957847957,NA,NA,NA,NA,NA,NA,NA,NA,NA,FALSE,"VGG","E_M_liorA.png P_F_michaeli.png"
NA,"E_M_liorA.png","P_F_regev.png",NA,NA,NA,NA,NA,0.928143941,NA,NA,NA,NA,NA,NA,NA,NA,NA,FALSE,"VGG","E_M_liorA.png P_F_regev.png"
NA,"E_M_liorA.png","P_F_shaked.png",NA,NA,NA,NA,NA,0.918886773,NA,NA,NA,NA,NA,NA,NA,NA,NA,FALSE,"VGG","E_M_liorA.png P_F_shaked.png"
NA,"E_M_liorA.png","P_F_staiv.png",NA,NA,NA,NA,NA,0.884765014,NA,NA,NA,NA,NA,NA,NA,NA,NA,FALSE,"VGG","E_M_liorA.png P_F_staiv.png"
NA,"E_M_liorA.png","P_M_benet.png",NA,NA,NA,NA,NA,0.825722739,NA,NA,NA,NA,NA,NA,NA,NA,NA,FALSE,"VGG","E_M_liorA.png P_M_benet.png"
NA,"E_M_liorA.png","P_M_buji.png",NA,NA,NA,NA,NA,0.834876403,NA,NA,NA,NA,NA,NA,NA,NA,NA,FALSE,"VGG","E_M_liorA.png P_M_buji.png"
NA,"E_M_liorA.png","P_M_gantz.png",NA,NA,NA,NA,NA,0.821186393,NA,NA,NA,NA,NA,NA,NA,NA,NA,FALSE,"VGG","E_M_liorA.png P_M_gantz.png"
NA,"E_M_liorA.png","P_M_lapid.png",NA,NA,NA,NA,NA,0.860981822,NA,NA,NA,NA,NA,NA,NA,NA,NA,FALSE,"VGG","E_M_liorA.png P_M_lapid.png"
NA,"E_M_liorA.png","P_M_saar.png",NA,NA,NA,NA,NA,0.770210549,NA,NA,NA,NA,NA,NA,NA,NA,NA,FALSE,"VGG","E_M_liorA.png P_M_saar.png"
NA,"E_M_liorA.png","P_M_smut.png",NA,NA,NA,NA,NA,0.948028903,NA,NA,NA,NA,NA,NA,NA,NA,NA,FALSE,"VGG","E_M_liorA.png P_M_smut.png"
NA,"E_M_yuda.png","P_F_michaeli.png",NA,NA,NA,NA,NA,0.817716941,NA,NA,NA,NA,NA,NA,NA,NA,NA,FALSE,"VGG","E_M_yuda.png P_F_michaeli.png"
NA,"E_M_yuda.png","P_F_regev.png",NA,NA,NA,NA,NA,0.907350801,NA,NA,NA,NA,NA,NA,NA,NA,NA,FALSE,"VGG","E_M_yuda.png P_F_regev.png"
NA,"E_M_yuda.png","P_F_shaked.png",NA,NA,NA,NA,NA,0.907679059,NA,NA,NA,NA,NA,NA,NA,NA,NA,FALSE,"VGG","E_M_yuda.png P_F_shaked.png"
NA,"E_M_yuda.png","P_F_staiv.png",NA,NA,NA,NA,NA,0.945587907,NA,NA,NA,NA,NA,NA,NA,NA,NA,FALSE,"VGG","E_M_yuda.png P_F_staiv.png"
NA,"E_M_yuda.png","P_M_benet.png",NA,NA,NA,NA,NA,0.885432601,NA,NA,NA,NA,NA,NA,NA,NA,NA,FALSE,"VGG","E_M_yuda.png P_M_benet.png"
NA,"E_M_yuda.png","P_M_buji.png",NA,NA,NA,NA,NA,0.790978819,NA,NA,NA,NA,NA,NA,NA,NA,NA,FALSE,"VGG","E_M_yuda.png P_M_buji.png"
NA,"E_M_yuda.png","P_M_gantz.png",NA,NA,NA,NA,NA,0.92753385,NA,NA,NA,NA,NA,NA,NA,NA,NA,FALSE,"VGG","E_M_yuda.png P_M_gantz.png"
NA,"E_M_yuda.png","P_M_lapid.png",NA,NA,NA,NA,NA,0.908668473,NA,NA,NA,NA,NA,NA,NA,NA,NA,FALSE,"VGG","E_M_yuda.png P_M_lapid.png"
NA,"E_M_yuda.png","P_M_saar.png",NA,NA,NA,NA,NA,0.87802881,NA,NA,NA,NA,NA,NA,NA,NA,NA,FALSE,"VGG","E_M_yuda.png P_M_saar.png"
NA,"E_M_yuda.png","P_M_smut.png",NA,NA,NA,NA,NA,0.87582282,NA,NA,NA,NA,NA,NA,NA,NA,NA,FALSE,"VGG","E_M_yuda.png P_M_smut.png"
NA,"P_F_michaeli.png","P_F_regev.png",NA,NA,NA,NA,NA,0.800841436,NA,NA,NA,NA,NA,NA,NA,NA,NA,FALSE,"VGG","P_F_michaeli.png P_F_regev.png"
NA,"P_F_michaeli.png","P_F_shaked.png",NA,NA,NA,NA,NA,0.881471865,NA,NA,NA,NA,NA,NA,NA,NA,NA,FALSE,"VGG","P_F_michaeli.png P_F_shaked.png"
NA,"P_F_michaeli.png","P_F_staiv.png",NA,NA,NA,NA,NA,0.951703161,NA,NA,NA,NA,NA,NA,NA,NA,NA,FALSE,"VGG","P_F_michaeli.png P_F_staiv.png"
NA,"P_F_michaeli.png","P_M_benet.png",NA,NA,NA,NA,NA,0.849060938,NA,NA,NA,NA,NA,NA,NA,NA,NA,FALSE,"VGG","P_F_michaeli.png P_M_benet.png"
NA,"P_F_michaeli.png","P_M_buji.png",NA,NA,NA,NA,NA,0.817445457,NA,NA,NA,NA,NA,NA,NA,NA,NA,FALSE,"VGG","P_F_michaeli.png P_M_buji.png"
NA,"P_F_michaeli.png","P_M_gantz.png",NA,NA,NA,NA,NA,0.908610433,NA,NA,NA,NA,NA,NA,NA,NA,NA,FALSE,"VGG","P_F_michaeli.png P_M_gantz.png"
NA,"P_F_michaeli.png","P_M_lapid.png",NA,NA,NA,NA,NA,0.846504286,NA,NA,NA,NA,NA,NA,NA,NA,NA,FALSE,"VGG","P_F_michaeli.png P_M_lapid.png"
NA,"P_F_michaeli.png","P_M_saar.png",NA,NA,NA,NA,NA,0.86373888,NA,NA,NA,NA,NA,NA,NA,NA,NA,FALSE,"VGG","P_F_michaeli.png P_M_saar.png"
NA,"P_F_michaeli.png","P_M_smut.png",NA,NA,NA,NA,NA,0.788252354,NA,NA,NA,NA,NA,NA,NA,NA,NA,FALSE,"VGG","P_F_michaeli.png P_M_smut.png"
NA,"P_F_regev.png","P_F_shaked.png",NA,NA,NA,NA,NA,0.803441778,NA,NA,NA,NA,NA,NA,NA,NA,NA,FALSE,"VGG","P_F_regev.png P_F_shaked.png"
NA,"P_F_regev.png","P_F_staiv.png",NA,NA,NA,NA,NA,0.810573041,NA,NA,NA,NA,NA,NA,NA,NA,NA,FALSE,"VGG","P_F_regev.png P_F_staiv.png"
NA,"P_F_regev.png","P_M_benet.png",NA,NA,NA,NA,NA,0.942693744,NA,NA,NA,NA,NA,NA,NA,NA,NA,FALSE,"VGG","P_F_regev.png P_M_benet.png"
NA,"P_F_regev.png","P_M_buji.png",NA,NA,NA,NA,NA,0.888509005,NA,NA,NA,NA,NA,NA,NA,NA,NA,FALSE,"VGG","P_F_regev.png P_M_buji.png"
NA,"P_F_regev.png","P_M_gantz.png",NA,NA,NA,NA,NA,0.94401481,NA,NA,NA,NA,NA,NA,NA,NA,NA,FALSE,"VGG","P_F_regev.png P_M_gantz.png"
NA,"P_F_regev.png","P_M_lapid.png",NA,NA,NA,NA,NA,0.843028232,NA,NA,NA,NA,NA,NA,NA,NA,NA,FALSE,"VGG","P_F_regev.png P_M_lapid.png"
NA,"P_F_regev.png","P_M_saar.png",NA,NA,NA,NA,NA,0.92880816,NA,NA,NA,NA,NA,NA,NA,NA,NA,FALSE,"VGG","P_F_regev.png P_M_saar.png"
NA,"P_F_regev.png","P_M_smut.png",NA,NA,NA,NA,NA,0.892398104,NA,NA,NA,NA,NA,NA,NA,NA,NA,FALSE,"VGG","P_F_regev.png P_M_smut.png"
NA,"P_F_shaked.png","P_F_staiv.png",NA,NA,NA,NA,NA,0.740584314,NA,NA,NA,NA,NA,NA,NA,NA,NA,FALSE,"VGG","P_F_shaked.png P_F_staiv.png"
NA,"P_F_shaked.png","P_M_benet.png",NA,NA,NA,NA,NA,0.789406061,NA,NA,NA,NA,NA,NA,NA,NA,NA,FALSE,"VGG","P_F_shaked.png P_M_benet.png"
NA,"P_F_shaked.png","P_M_buji.png",NA,NA,NA,NA,NA,0.886670068,NA,NA,NA,NA,NA,NA,NA,NA,NA,FALSE,"VGG","P_F_shaked.png P_M_buji.png"
NA,"P_F_shaked.png","P_M_gantz.png",NA,NA,NA,NA,NA,0.954302803,NA,NA,NA,NA,NA,NA,NA,NA,NA,FALSE,"VGG","P_F_shaked.png P_M_gantz.png"
NA,"P_F_shaked.png","P_M_lapid.png",NA,NA,NA,NA,NA,0.921935774,NA,NA,NA,NA,NA,NA,NA,NA,NA,FALSE,"VGG","P_F_shaked.png P_M_lapid.png"
NA,"P_F_shaked.png","P_M_saar.png",NA,NA,NA,NA,NA,0.833288923,NA,NA,NA,NA,NA,NA,NA,NA,NA,FALSE,"VGG","P_F_shaked.png P_M_saar.png"
NA,"P_F_shaked.png","P_M_smut.png",NA,NA,NA,NA,NA,0.91835019,NA,NA,NA,NA,NA,NA,NA,NA,NA,FALSE,"VGG","P_F_shaked.png P_M_smut.png"
NA,"P_F_staiv.png","P_M_benet.png",NA,NA,NA,NA,NA,0.811749279,NA,NA,NA,NA,NA,NA,NA,NA,NA,FALSE,"VGG","P_F_staiv.png P_M_benet.png"
NA,"P_F_staiv.png","P_M_buji.png",NA,NA,NA,NA,NA,0.905031674,NA,NA,NA,NA,NA,NA,NA,NA,NA,FALSE,"VGG","P_F_staiv.png P_M_buji.png"
NA,"P_F_staiv.png","P_M_gantz.png",NA,NA,NA,NA,NA,0.849805772,NA,NA,NA,NA,NA,NA,NA,NA,NA,FALSE,"VGG","P_F_staiv.png P_M_gantz.png"
NA,"P_F_staiv.png","P_M_lapid.png",NA,NA,NA,NA,NA,0.892246328,NA,NA,NA,NA,NA,NA,NA,NA,NA,FALSE,"VGG","P_F_staiv.png P_M_lapid.png"
NA,"P_F_staiv.png","P_M_saar.png",NA,NA,NA,NA,NA,0.915101781,NA,NA,NA,NA,NA,NA,NA,NA,NA,FALSE,"VGG","P_F_staiv.png P_M_saar.png"
NA,"P_F_staiv.png","P_M_smut.png",NA,NA,NA,NA,NA,0.95084228,NA,NA,NA,NA,NA,NA,NA,NA,NA,FALSE,"VGG","P_F_staiv.png P_M_smut.png"
NA,"P_M_benet.png","P_M_buji.png",NA,NA,NA,NA,NA,0.880877495,NA,NA,NA,NA,NA,NA,NA,NA,NA,FALSE,"VGG","P_M_benet.png P_M_buji.png"
NA,"P_M_benet.png","P_M_saar.png",NA,NA,NA,NA,NA,0.678971618,NA,NA,NA,NA,NA,NA,NA,NA,NA,FALSE,"VGG","P_M_benet.png P_M_saar.png"
NA,"P_M_benet.png","P_M_smut.png",NA,NA,NA,NA,NA,0.827704951,NA,NA,NA,NA,NA,NA,NA,NA,NA,FALSE,"VGG","P_M_benet.png P_M_smut.png"
NA,"P_M_buji.png","P_M_saar.png",NA,NA,NA,NA,NA,0.657039016,NA,NA,NA,NA,NA,NA,NA,NA,NA,FALSE,"VGG","P_M_buji.png P_M_saar.png"
NA,"P_M_buji.png","P_M_smut.png",NA,NA,NA,NA,NA,0.850119457,NA,NA,NA,NA,NA,NA,NA,NA,NA,FALSE,"VGG","P_M_buji.png P_M_smut.png"
NA,"P_M_gantz.png","P_M_benet.png",NA,NA,NA,NA,NA,0.923154898,NA,NA,NA,NA,NA,NA,NA,NA,NA,FALSE,"VGG","P_M_benet.png P_M_gantz.png"
NA,"P_M_gantz.png","P_M_buji.png",NA,NA,NA,NA,NA,0.864256918,NA,NA,NA,NA,NA,NA,NA,NA,NA,FALSE,"VGG","P_M_buji.png P_M_gantz.png"
NA,"P_M_gantz.png","P_M_lapid.png",NA,NA,NA,NA,NA,0.834083766,NA,NA,NA,NA,NA,NA,NA,NA,NA,FALSE,"VGG","P_M_gantz.png P_M_lapid.png"
NA,"P_M_gantz.png","P_M_saar.png",NA,NA,NA,NA,NA,0.896622576,NA,NA,NA,NA,NA,NA,NA,NA,NA,FALSE,"VGG","P_M_gantz.png P_M_saar.png"
NA,"P_M_gantz.png","P_M_smut.png",NA,NA,NA,NA,NA,0.930833682,NA,NA,NA,NA,NA,NA,NA,NA,NA,FALSE,"VGG","P_M_gantz.png P_M_smut.png"
NA,"P_M_lapid.png","P_M_benet.png",NA,NA,NA,NA,NA,0.939196225,NA,NA,NA,NA,NA,NA,NA,NA,NA,FALSE,"VGG","P_M_benet.png P_M_lapid.png"
NA,"P_M_lapid.png","P_M_buji.png",NA,NA,NA,NA,NA,0.863869861,NA,NA,NA,NA,NA,NA,NA,NA,NA,FALSE,"VGG","P_M_buji.png P_M_lapid.png"
NA,"P_M_lapid.png","P_M_saar.png",NA,NA,NA,NA,NA,0.855322555,NA,NA,NA,NA,NA,NA,NA,NA,NA,FALSE,"VGG","P_M_lapid.png P_M_saar.png"
NA,"P_M_lapid.png","P_M_smut.png",NA,NA,NA,NA,NA,0.870476469,NA,NA,NA,NA,NA,NA,NA,NA,NA,FALSE,"VGG","P_M_lapid.png P_M_smut.png"
NA,"P_M_saar.png","P_M_smut.png",NA,NA,NA,NA,NA,0.867957264,NA,NA,NA,NA,NA,NA,NA,NA,NA,FALSE,"VGG","P_M_saar.png P_M_smut.png"
