"RT","img_1","img_2","isSameProffesion","img1proffesion","img2proffesion","img1Gender","img2Gender","keyPressed","normlised_keyPress","age","gender","handedness","participant","isFamiliar_img1","isFamiliar_img2","vividness_img1","vividness_img2","reject_trial","pair"
10061,"E_F_ilanit.png","P_M_smut.png","FALSE","pictures/stimuli/E","pictures/stimuli/P","F","M","6",0.533451493230528,"23","F","right","30115",1,1,0,0,FALSE,"E_F_ilanit.png P_M_smut.png"
5481,"E_F_galit_gutman.png","P_M_gantz.png","FALSE","pictures/stimuli/E","pictures/stimuli/P","F","M","5",-0.68770252741767,"23","F","right","30115",0,1,0,0,TRUE,"E_F_galit_gutman.png P_M_gantz.png"
5312,"E_F_ilanit.png","E_M_danker.png","TRUE","pictures/stimuli/E","pictures/stimuli/E","F","M","6",0.533451493230528,"23","F","right","30115",1,1,0,0,FALSE,"E_F_ilanit.png E_M_danker.png"
5215,"E_M_liorA.png","P_M_benet.png","FALSE","pictures/stimuli/E","pictures/stimuli/P","M","M","5",-0.68770252741767,"23","F","right","30115",1,1,0,0,FALSE,"E_M_liorA.png P_M_benet.png"
6914,"P_F_regev.png","P_M_smut.png","TRUE","pictures/stimuli/P","pictures/stimuli/P","F","M","5",-0.68770252741767,"23","F","right","30115",1,1,0,0,FALSE,"P_F_regev.png P_M_smut.png"
7557,"E_F_rotem_sela.png","E_M_asi.png","TRUE","pictures/stimuli/E","pictures/stimuli/E","F","M","6",0.533451493230528,"23","F","right","30115",1,1,0,0,FALSE,"E_F_rotem_sela.png E_M_asi.png"
4929,"E_M_danker.png","P_M_gantz.png","FALSE","pictures/stimuli/E","pictures/stimuli/P","M","M","6",0.533451493230528,"23","F","right","30115",1,1,0,0,FALSE,"E_M_danker.png P_M_gantz.png"
8658,"P_F_regev.png","P_F_shaked.png","TRUE","pictures/stimuli/P","pictures/stimuli/P","F","F","4",-1.90885654806587,"23","F","right","30115",1,1,0,0,FALSE,"P_F_regev.png P_F_shaked.png"
4773,"E_M_yuda.png","P_M_smut.png","FALSE","pictures/stimuli/E","pictures/stimuli/P","M","M","5",-0.68770252741767,"23","F","right","30115",1,1,0,0,FALSE,"E_M_yuda.png P_M_smut.png"
3447,"E_F_shiri.png","E_M_danker.png","TRUE","pictures/stimuli/E","pictures/stimuli/E","F","M","6",0.533451493230528,"23","F","right","30115",1,1,0,0,FALSE,"E_F_shiri.png E_M_danker.png"
1968,"E_M_danker.png","P_M_benet.png","FALSE","pictures/stimuli/E","pictures/stimuli/P","M","M","6",0.533451493230528,"23","F","right","30115",1,1,0,0,FALSE,"E_M_danker.png P_M_benet.png"
2238,"E_M_liorA.png","P_F_shaked.png","FALSE","pictures/stimuli/E","pictures/stimuli/P","M","F","6",0.533451493230528,"23","F","right","30115",1,1,0,0,FALSE,"E_M_liorA.png P_F_shaked.png"
7804,"P_M_lapid.png","P_M_buji.png","TRUE","pictures/stimuli/P","pictures/stimuli/P","M","M","6",0.533451493230528,"23","F","right","30115",1,1,0,0,FALSE,"P_M_buji.png P_M_lapid.png"
4484,"E_M_danker.png","P_F_michaeli.png","FALSE","pictures/stimuli/E","pictures/stimuli/P","M","F","5",-0.68770252741767,"23","F","right","30115",1,1,0,0,FALSE,"E_M_danker.png P_F_michaeli.png"
4886,"P_F_regev.png","P_M_buji.png","TRUE","pictures/stimuli/P","pictures/stimuli/P","F","M","6",0.533451493230528,"23","F","right","30115",1,1,0,0,FALSE,"P_F_regev.png P_M_buji.png"
2397,"E_F_ninet.png","P_F_regev.png","FALSE","pictures/stimuli/E","pictures/stimuli/P","F","F","4",-1.90885654806587,"23","F","right","30115",1,1,0,0,FALSE,"E_F_ninet.png P_F_regev.png"
8223,"E_F_ninet.png","E_M_yuda.png","TRUE","pictures/stimuli/E","pictures/stimuli/E","F","M","6",0.533451493230528,"23","F","right","30115",1,1,0,0,FALSE,"E_F_ninet.png E_M_yuda.png"
8956,"E_M_danker.png","P_M_lapid.png","FALSE","pictures/stimuli/E","pictures/stimuli/P","M","M","5",-0.68770252741767,"23","F","right","30115",1,1,0,0,FALSE,"E_M_danker.png P_M_lapid.png"
3239,"E_M_ido.png","P_F_shaked.png","FALSE","pictures/stimuli/E","pictures/stimuli/P","M","F","6",0.533451493230528,"23","F","right","30115",1,1,0,0,FALSE,"E_M_ido.png P_F_shaked.png"
13380,"P_F_michaeli.png","P_F_staiv.png","TRUE","pictures/stimuli/P","pictures/stimuli/P","F","F","5",-0.68770252741767,"23","F","right","30115",1,0,0,0,TRUE,"P_F_michaeli.png P_F_staiv.png"
2165,"E_F_galit_gutman.png","E_M_danker.png","TRUE","pictures/stimuli/E","pictures/stimuli/E","F","M","6",0.533451493230528,"23","F","right","30115",0,1,0,0,TRUE,"E_F_galit_gutman.png E_M_danker.png"
1981,"P_F_staiv.png","P_M_smut.png","TRUE","pictures/stimuli/P","pictures/stimuli/P","F","M","6",0.533451493230528,"23","F","right","30115",0,1,0,0,TRUE,"P_F_staiv.png P_M_smut.png"
4142,"E_F_shiri.png","E_M_ido.png","TRUE","pictures/stimuli/E","pictures/stimuli/E","F","M","6",0.533451493230528,"23","F","right","30115",1,1,0,0,FALSE,"E_F_shiri.png E_M_ido.png"
3140,"E_F_galit_gutman.png","E_M_yuda.png","TRUE","pictures/stimuli/E","pictures/stimuli/E","F","M","6",0.533451493230528,"23","F","right","30115",0,1,0,0,TRUE,"E_F_galit_gutman.png E_M_yuda.png"
6218,"P_M_lapid.png","P_M_benet.png","TRUE","pictures/stimuli/P","pictures/stimuli/P","M","M","5",-0.68770252741767,"23","F","right","30115",1,1,0,0,FALSE,"P_M_benet.png P_M_lapid.png"
2318,"P_F_regev.png","P_M_saar.png","TRUE","pictures/stimuli/P","pictures/stimuli/P","F","M","6",0.533451493230528,"23","F","right","30115",1,1,0,0,FALSE,"P_F_regev.png P_M_saar.png"
5157,"E_F_rotem_sela.png","P_F_staiv.png","FALSE","pictures/stimuli/E","pictures/stimuli/P","F","F","4",-1.90885654806587,"23","F","right","30115",1,0,0,0,TRUE,"E_F_rotem_sela.png P_F_staiv.png"
2302,"P_F_regev.png","P_M_lapid.png","TRUE","pictures/stimuli/P","pictures/stimuli/P","F","M","6",0.533451493230528,"23","F","right","30115",1,1,0,0,FALSE,"P_F_regev.png P_M_lapid.png"
4637,"E_F_galit_gutman.png","P_F_regev.png","FALSE","pictures/stimuli/E","pictures/stimuli/P","F","F","6",0.533451493230528,"23","F","right","30115",0,1,0,0,TRUE,"E_F_galit_gutman.png P_F_regev.png"
6069,"E_F_ilanit.png","E_M_asi.png","TRUE","pictures/stimuli/E","pictures/stimuli/E","F","M","6",0.533451493230528,"23","F","right","30115",1,1,0,0,FALSE,"E_F_ilanit.png E_M_asi.png"
2001,"E_F_rotem_sela.png","E_M_yuda.png","TRUE","pictures/stimuli/E","pictures/stimuli/E","F","M","6",0.533451493230528,"23","F","right","30115",1,1,0,0,FALSE,"E_F_rotem_sela.png E_M_yuda.png"
4524,"P_F_staiv.png","P_M_gantz.png","TRUE","pictures/stimuli/P","pictures/stimuli/P","F","M","5",-0.68770252741767,"23","F","right","30115",0,1,0,0,TRUE,"P_F_staiv.png P_M_gantz.png"
4379,"E_F_rotem_sela.png","P_F_michaeli.png","FALSE","pictures/stimuli/E","pictures/stimuli/P","F","F","5",-0.68770252741767,"23","F","right","30115",1,1,0,0,FALSE,"E_F_rotem_sela.png P_F_michaeli.png"
2996,"P_F_michaeli.png","P_M_buji.png","TRUE","pictures/stimuli/P","pictures/stimuli/P","F","M","6",0.533451493230528,"23","F","right","30115",1,1,0,0,FALSE,"P_F_michaeli.png P_M_buji.png"
7389,"E_M_liorA.png","P_M_buji.png","FALSE","pictures/stimuli/E","pictures/stimuli/P","M","M","5",-0.68770252741767,"23","F","right","30115",1,1,0,0,FALSE,"E_M_liorA.png P_M_buji.png"
3740,"P_M_saar.png","P_M_smut.png","TRUE","pictures/stimuli/P","pictures/stimuli/P","M","M","6",0.533451493230528,"23","F","right","30115",1,1,0,0,FALSE,"P_M_saar.png P_M_smut.png"
3670,"E_M_danker.png","P_M_smut.png","FALSE","pictures/stimuli/E","pictures/stimuli/P","M","M","5",-0.68770252741767,"23","F","right","30115",1,1,0,0,FALSE,"E_M_danker.png P_M_smut.png"
2153,"P_F_michaeli.png","P_M_benet.png","TRUE","pictures/stimuli/P","pictures/stimuli/P","F","M","6",0.533451493230528,"23","F","right","30115",1,1,0,0,FALSE,"P_F_michaeli.png P_M_benet.png"
7338,"E_F_shiri.png","E_M_yuda.png","TRUE","pictures/stimuli/E","pictures/stimuli/E","F","M","6",0.533451493230528,"23","F","right","30115",1,1,0,0,FALSE,"E_F_shiri.png E_M_yuda.png"
5483,"E_F_ilanit.png","P_F_shaked.png","FALSE","pictures/stimuli/E","pictures/stimuli/P","F","F","5",-0.68770252741767,"23","F","right","30115",1,1,0,0,FALSE,"E_F_ilanit.png P_F_shaked.png"
4424,"P_F_shaked.png","P_F_staiv.png","TRUE","pictures/stimuli/P","pictures/stimuli/P","F","F","5",-0.68770252741767,"23","F","right","30115",1,0,0,0,TRUE,"P_F_shaked.png P_F_staiv.png"
8479,"E_F_ilanit.png","P_F_regev.png","FALSE","pictures/stimuli/E","pictures/stimuli/P","F","F","6",0.533451493230528,"23","F","right","30115",1,1,0,0,FALSE,"E_F_ilanit.png P_F_regev.png"
2431,"E_F_galit_gutman.png","E_F_ninet.png","TRUE","pictures/stimuli/E","pictures/stimuli/E","F","F","6",0.533451493230528,"23","F","right","30115",0,1,0,0,TRUE,"E_F_galit_gutman.png E_F_ninet.png"
3119,"E_F_galit_gutman.png","E_M_asi.png","TRUE","pictures/stimuli/E","pictures/stimuli/E","F","M","6",0.533451493230528,"23","F","right","30115",0,1,0,0,TRUE,"E_F_galit_gutman.png E_M_asi.png"
2331,"E_F_galit_gutman.png","E_F_rotem_sela.png","TRUE","pictures/stimuli/E","pictures/stimuli/E","F","F","4",-1.90885654806587,"23","F","right","30115",0,1,0,0,TRUE,"E_F_galit_gutman.png E_F_rotem_sela.png"
5182,"E_M_yuda.png","P_F_michaeli.png","FALSE","pictures/stimuli/E","pictures/stimuli/P","M","F","6",0.533451493230528,"23","F","right","30115",1,1,0,0,FALSE,"E_M_yuda.png P_F_michaeli.png"
2030,"E_F_rotem_sela.png","E_M_liorA.png","TRUE","pictures/stimuli/E","pictures/stimuli/E","F","M","6",0.533451493230528,"23","F","right","30115",1,1,0,0,FALSE,"E_F_rotem_sela.png E_M_liorA.png"
5127,"E_F_ilanit.png","E_F_ninet.png","TRUE","pictures/stimuli/E","pictures/stimuli/E","F","F","6",0.533451493230528,"23","F","right","30115",1,1,0,0,FALSE,"E_F_ilanit.png E_F_ninet.png"
6026,"E_F_galit_gutman.png","P_M_buji.png","FALSE","pictures/stimuli/E","pictures/stimuli/P","F","M","6",0.533451493230528,"23","F","right","30115",0,1,0,0,TRUE,"E_F_galit_gutman.png P_M_buji.png"
3287,"E_F_rotem_sela.png","P_M_benet.png","FALSE","pictures/stimuli/E","pictures/stimuli/P","F","M","6",0.533451493230528,"23","F","right","30115",1,1,0,0,FALSE,"E_F_rotem_sela.png P_M_benet.png"
3675,"E_F_galit_gutman.png","E_F_shiri.png","TRUE","pictures/stimuli/E","pictures/stimuli/E","F","F","4",-1.90885654806587,"23","F","right","30115",0,1,0,0,TRUE,"E_F_galit_gutman.png E_F_shiri.png"
4184,"P_M_buji.png","P_M_smut.png","TRUE","pictures/stimuli/P","pictures/stimuli/P","M","M","6",0.533451493230528,"23","F","right","30115",1,1,0,0,FALSE,"P_M_buji.png P_M_smut.png"
7274,"P_F_michaeli.png","P_F_shaked.png","TRUE","pictures/stimuli/P","pictures/stimuli/P","F","F","5",-0.68770252741767,"23","F","right","30115",1,1,0,0,FALSE,"P_F_michaeli.png P_F_shaked.png"
2882,"E_F_ilanit.png","P_M_lapid.png","FALSE","pictures/stimuli/E","pictures/stimuli/P","F","M","6",0.533451493230528,"23","F","right","30115",1,1,0,0,FALSE,"E_F_ilanit.png P_M_lapid.png"
4443,"P_M_gantz.png","P_M_smut.png","TRUE","pictures/stimuli/P","pictures/stimuli/P","M","M","6",0.533451493230528,"23","F","right","30115",1,1,0,0,FALSE,"P_M_gantz.png P_M_smut.png"
6643,"P_M_gantz.png","P_M_buji.png","TRUE","pictures/stimuli/P","pictures/stimuli/P","M","M","5",-0.68770252741767,"23","F","right","30115",1,1,0,0,FALSE,"P_M_buji.png P_M_gantz.png"
3091,"E_M_ido.png","P_M_gantz.png","FALSE","pictures/stimuli/E","pictures/stimuli/P","M","M","6",0.533451493230528,"23","F","right","30115",1,1,0,0,FALSE,"E_M_ido.png P_M_gantz.png"
2877,"E_F_shiri.png","P_M_smut.png","FALSE","pictures/stimuli/E","pictures/stimuli/P","F","M","6",0.533451493230528,"23","F","right","30115",1,1,0,0,FALSE,"E_F_shiri.png P_M_smut.png"
8376,"E_F_shiri.png","P_F_shaked.png","FALSE","pictures/stimuli/E","pictures/stimuli/P","F","F","6",0.533451493230528,"23","F","right","30115",1,1,0,0,FALSE,"E_F_shiri.png P_F_shaked.png"
9235,"E_F_ninet.png","E_M_asi.png","TRUE","pictures/stimuli/E","pictures/stimuli/E","F","M","5",-0.68770252741767,"23","F","right","30115",1,1,0,0,FALSE,"E_F_ninet.png E_M_asi.png"
7503,"P_M_lapid.png","P_M_saar.png","TRUE","pictures/stimuli/P","pictures/stimuli/P","M","M","6",0.533451493230528,"23","F","right","30115",1,1,0,0,FALSE,"P_M_lapid.png P_M_saar.png"
3147,"E_F_shiri.png","P_M_lapid.png","FALSE","pictures/stimuli/E","pictures/stimuli/P","F","M","6",0.533451493230528,"23","F","right","30115",1,1,0,0,FALSE,"E_F_shiri.png P_M_lapid.png"
3566,"E_F_ilanit.png","E_F_rotem_sela.png","TRUE","pictures/stimuli/E","pictures/stimuli/E","F","F","5",-0.68770252741767,"23","F","right","30115",1,1,0,0,FALSE,"E_F_ilanit.png E_F_rotem_sela.png"
3250,"P_F_staiv.png","P_M_lapid.png","TRUE","pictures/stimuli/P","pictures/stimuli/P","F","M","6",0.533451493230528,"23","F","right","30115",0,1,0,0,TRUE,"P_F_staiv.png P_M_lapid.png"
4053,"E_M_asi.png","P_M_smut.png","FALSE","pictures/stimuli/E","pictures/stimuli/P","M","M","6",0.533451493230528,"23","F","right","30115",1,1,0,0,FALSE,"E_M_asi.png P_M_smut.png"
2617,"E_M_yuda.png","P_F_staiv.png","FALSE","pictures/stimuli/E","pictures/stimuli/P","M","F","6",0.533451493230528,"23","F","right","30115",1,0,0,0,TRUE,"E_M_yuda.png P_F_staiv.png"
1911,"E_F_ilanit.png","E_M_ido.png","TRUE","pictures/stimuli/E","pictures/stimuli/E","F","M","6",0.533451493230528,"23","F","right","30115",1,1,0,0,FALSE,"E_F_ilanit.png E_M_ido.png"
2905,"P_F_regev.png","P_M_benet.png","TRUE","pictures/stimuli/P","pictures/stimuli/P","F","M","6",0.533451493230528,"23","F","right","30115",1,1,0,0,FALSE,"P_F_regev.png P_M_benet.png"
3146,"E_F_ilanit.png","E_M_liorA.png","TRUE","pictures/stimuli/E","pictures/stimuli/E","F","M","6",0.533451493230528,"23","F","right","30115",1,1,0,0,FALSE,"E_F_ilanit.png E_M_liorA.png"
3125,"E_F_ninet.png","E_M_danker.png","TRUE","pictures/stimuli/E","pictures/stimuli/E","F","M","6",0.533451493230528,"23","F","right","30115",1,1,0,0,FALSE,"E_F_ninet.png E_M_danker.png"
10112,"E_F_ninet.png","P_F_staiv.png","FALSE","pictures/stimuli/E","pictures/stimuli/P","F","F","5",-0.68770252741767,"23","F","right","30115",1,0,0,0,TRUE,"E_F_ninet.png P_F_staiv.png"
5342,"E_M_asi.png","P_M_benet.png","FALSE","pictures/stimuli/E","pictures/stimuli/P","M","M","6",0.533451493230528,"23","F","right","30115",1,1,0,0,FALSE,"E_M_asi.png P_M_benet.png"
7514,"E_M_danker.png","E_M_ido.png","TRUE","pictures/stimuli/E","pictures/stimuli/E","M","M","1",-5.57231861001046,"23","F","right","30115",1,1,0,0,FALSE,"E_M_danker.png E_M_ido.png"
7461,"E_F_ninet.png","E_M_ido.png","TRUE","pictures/stimuli/E","pictures/stimuli/E","F","M","6",0.533451493230528,"23","F","right","30115",1,1,0,0,FALSE,"E_F_ninet.png E_M_ido.png"
2198,"E_F_ilanit.png","P_M_gantz.png","FALSE","pictures/stimuli/E","pictures/stimuli/P","F","M","6",0.533451493230528,"23","F","right","30115",1,1,0,0,FALSE,"E_F_ilanit.png P_M_gantz.png"
2282,"P_F_staiv.png","P_M_benet.png","TRUE","pictures/stimuli/P","pictures/stimuli/P","F","M","6",0.533451493230528,"23","F","right","30115",0,1,0,0,TRUE,"P_F_staiv.png P_M_benet.png"
4653,"E_M_yuda.png","P_M_saar.png","FALSE","pictures/stimuli/E","pictures/stimuli/P","M","M","6",0.533451493230528,"23","F","right","30115",1,1,0,0,FALSE,"E_M_yuda.png P_M_saar.png"
1896,"E_F_shiri.png","P_M_saar.png","FALSE","pictures/stimuli/E","pictures/stimuli/P","F","M","6",0.533451493230528,"23","F","right","30115",1,1,0,0,FALSE,"E_F_shiri.png P_M_saar.png"
2951,"P_F_staiv.png","P_M_saar.png","TRUE","pictures/stimuli/P","pictures/stimuli/P","F","M","6",0.533451493230528,"23","F","right","30115",0,1,0,0,TRUE,"P_F_staiv.png P_M_saar.png"
5759,"E_F_rotem_sela.png","E_F_shiri.png","TRUE","pictures/stimuli/E","pictures/stimuli/E","F","F","3",-3.13001056871407,"23","F","right","30115",1,1,0,0,FALSE,"E_F_rotem_sela.png E_F_shiri.png"
3960,"E_F_shiri.png","E_M_asi.png","TRUE","pictures/stimuli/E","pictures/stimuli/E","F","M","5",-0.68770252741767,"23","F","right","30115",1,1,0,0,FALSE,"E_F_shiri.png E_M_asi.png"
2671,"E_M_ido.png","E_M_yuda.png","TRUE","pictures/stimuli/E","pictures/stimuli/E","M","M","3",-3.13001056871407,"23","F","right","30115",1,1,0,0,FALSE,"E_M_ido.png E_M_yuda.png"
3650,"E_F_rotem_sela.png","P_M_gantz.png","FALSE","pictures/stimuli/E","pictures/stimuli/P","F","M","5",-0.68770252741767,"23","F","right","30115",1,1,0,0,FALSE,"E_F_rotem_sela.png P_M_gantz.png"
4813,"E_F_ilanit.png","E_F_shiri.png","TRUE","pictures/stimuli/E","pictures/stimuli/E","F","F","2",-4.35116458936226,"23","F","right","30115",1,1,0,0,FALSE,"E_F_ilanit.png E_F_shiri.png"
2868,"E_F_shiri.png","P_M_buji.png","FALSE","pictures/stimuli/E","pictures/stimuli/P","F","M","6",0.533451493230528,"23","F","right","30115",1,1,0,0,FALSE,"E_F_shiri.png P_M_buji.png"
6055,"E_F_galit_gutman.png","P_F_staiv.png","FALSE","pictures/stimuli/E","pictures/stimuli/P","F","F","5",-0.68770252741767,"23","F","right","30115",0,0,0,0,TRUE,"E_F_galit_gutman.png P_F_staiv.png"
2085,"E_F_galit_gutman.png","E_M_ido.png","TRUE","pictures/stimuli/E","pictures/stimuli/E","F","M","6",0.533451493230528,"23","F","right","30115",0,1,0,0,TRUE,"E_F_galit_gutman.png E_M_ido.png"
7039,"E_F_shiri.png","P_F_regev.png","FALSE","pictures/stimuli/E","pictures/stimuli/P","F","F","6",0.533451493230528,"23","F","right","30115",1,1,0,0,FALSE,"E_F_shiri.png P_F_regev.png"
3814,"E_F_ninet.png","P_M_lapid.png","FALSE","pictures/stimuli/E","pictures/stimuli/P","F","M","6",0.533451493230528,"23","F","right","30115",1,1,0,0,FALSE,"E_F_ninet.png P_M_lapid.png"
2461,"P_F_regev.png","P_M_gantz.png","TRUE","pictures/stimuli/P","pictures/stimuli/P","F","M","6",0.533451493230528,"23","F","right","30115",1,1,0,0,FALSE,"P_F_regev.png P_M_gantz.png"
7493,"E_F_ilanit.png","P_M_benet.png","FALSE","pictures/stimuli/E","pictures/stimuli/P","F","M","6",0.533451493230528,"23","F","right","30115",1,1,0,0,FALSE,"E_F_ilanit.png P_M_benet.png"
9261,"E_M_yuda.png","P_M_lapid.png","FALSE","pictures/stimuli/E","pictures/stimuli/P","M","M","5",-0.68770252741767,"23","F","right","30115",1,1,0,0,FALSE,"E_M_yuda.png P_M_lapid.png"
1710,"E_M_asi.png","P_F_staiv.png","FALSE","pictures/stimuli/E","pictures/stimuli/P","M","F","6",0.533451493230528,"23","F","right","30115",1,0,0,0,TRUE,"E_M_asi.png P_F_staiv.png"
4758,"E_M_liorA.png","P_F_michaeli.png","FALSE","pictures/stimuli/E","pictures/stimuli/P","M","F","6",0.533451493230528,"23","F","right","30115",1,1,0,0,FALSE,"E_M_liorA.png P_F_michaeli.png"
3857,"E_F_ninet.png","P_F_michaeli.png","FALSE","pictures/stimuli/E","pictures/stimuli/P","F","F","5",-0.68770252741767,"23","F","right","30115",1,1,0,0,FALSE,"E_F_ninet.png P_F_michaeli.png"
5362,"P_F_michaeli.png","P_M_saar.png","TRUE","pictures/stimuli/P","pictures/stimuli/P","F","M","5",-0.68770252741767,"23","F","right","30115",1,1,0,0,FALSE,"P_F_michaeli.png P_M_saar.png"
2413,"E_M_yuda.png","P_M_gantz.png","FALSE","pictures/stimuli/E","pictures/stimuli/P","M","M","5",-0.68770252741767,"23","F","right","30115",1,1,0,0,FALSE,"E_M_yuda.png P_M_gantz.png"
4390,"E_M_ido.png","P_F_staiv.png","FALSE","pictures/stimuli/E","pictures/stimuli/P","M","F","6",0.533451493230528,"23","F","right","30115",1,0,0,0,TRUE,"E_M_ido.png P_F_staiv.png"
2598,"E_F_rotem_sela.png","P_F_shaked.png","FALSE","pictures/stimuli/E","pictures/stimuli/P","F","F","4",-1.90885654806587,"23","F","right","30115",1,1,0,0,FALSE,"E_F_rotem_sela.png P_F_shaked.png"
5421,"E_F_ilanit.png","E_M_yuda.png","TRUE","pictures/stimuli/E","pictures/stimuli/E","F","M","6",0.533451493230528,"23","F","right","30115",1,1,0,0,FALSE,"E_F_ilanit.png E_M_yuda.png"
2122,"P_F_shaked.png","P_M_buji.png","TRUE","pictures/stimuli/P","pictures/stimuli/P","F","M","6",0.533451493230528,"23","F","right","30115",1,1,0,0,FALSE,"P_F_shaked.png P_M_buji.png"
2982,"E_M_danker.png","E_M_liorA.png","TRUE","pictures/stimuli/E","pictures/stimuli/E","M","M","6",0.533451493230528,"23","F","right","30115",1,1,0,0,FALSE,"E_M_danker.png E_M_liorA.png"
6671,"P_M_benet.png","P_M_buji.png","TRUE","pictures/stimuli/P","pictures/stimuli/P","M","M","6",0.533451493230528,"23","F","right","30115",1,1,0,0,FALSE,"P_M_benet.png P_M_buji.png"
3973,"E_M_ido.png","E_M_liorA.png","TRUE","pictures/stimuli/E","pictures/stimuli/E","M","M","5",-0.68770252741767,"23","F","right","30115",1,1,0,0,FALSE,"E_M_ido.png E_M_liorA.png"
4453,"E_M_asi.png","P_M_gantz.png","FALSE","pictures/stimuli/E","pictures/stimuli/P","M","M","6",0.533451493230528,"23","F","right","30115",1,1,0,0,FALSE,"E_M_asi.png P_M_gantz.png"
8108,"E_F_galit_gutman.png","P_F_shaked.png","FALSE","pictures/stimuli/E","pictures/stimuli/P","F","F","5",-0.68770252741767,"23","F","right","30115",0,1,0,0,TRUE,"E_F_galit_gutman.png P_F_shaked.png"
3480,"E_F_ninet.png","P_M_saar.png","FALSE","pictures/stimuli/E","pictures/stimuli/P","F","M","6",0.533451493230528,"23","F","right","30115",1,1,0,0,FALSE,"E_F_ninet.png P_M_saar.png"
7365,"E_F_ilanit.png","P_F_michaeli.png","FALSE","pictures/stimuli/E","pictures/stimuli/P","F","F","5",-0.68770252741767,"23","F","right","30115",1,1,0,0,FALSE,"E_F_ilanit.png P_F_michaeli.png"
3089,"E_M_danker.png","E_M_yuda.png","TRUE","pictures/stimuli/E","pictures/stimuli/E","M","M","3",-3.13001056871407,"23","F","right","30115",1,1,0,0,FALSE,"E_M_danker.png E_M_yuda.png"
2063,"E_F_ninet.png","P_M_smut.png","FALSE","pictures/stimuli/E","pictures/stimuli/P","F","M","6",0.533451493230528,"23","F","right","30115",1,1,0,0,FALSE,"E_F_ninet.png P_M_smut.png"
2472,"E_M_danker.png","P_M_saar.png","FALSE","pictures/stimuli/E","pictures/stimuli/P","M","M","6",0.533451493230528,"23","F","right","30115",1,1,0,0,FALSE,"E_M_danker.png P_M_saar.png"
3592,"E_F_rotem_sela.png","P_M_buji.png","FALSE","pictures/stimuli/E","pictures/stimuli/P","F","M","5",-0.68770252741767,"23","F","right","30115",1,1,0,0,FALSE,"E_F_rotem_sela.png P_M_buji.png"
2197,"E_F_shiri.png","E_M_liorA.png","TRUE","pictures/stimuli/E","pictures/stimuli/E","F","M","6",0.533451493230528,"23","F","right","30115",1,1,0,0,FALSE,"E_F_shiri.png E_M_liorA.png"
6481,"E_M_yuda.png","P_F_shaked.png","FALSE","pictures/stimuli/E","pictures/stimuli/P","M","F","6",0.533451493230528,"23","F","right","30115",1,1,0,0,FALSE,"E_M_yuda.png P_F_shaked.png"
2886,"E_F_shiri.png","P_M_gantz.png","FALSE","pictures/stimuli/E","pictures/stimuli/P","F","M","6",0.533451493230528,"23","F","right","30115",1,1,0,0,FALSE,"E_F_shiri.png P_M_gantz.png"
5049,"E_M_liorA.png","P_M_gantz.png","FALSE","pictures/stimuli/E","pictures/stimuli/P","M","M","5",-0.68770252741767,"23","F","right","30115",1,1,0,0,FALSE,"E_M_liorA.png P_M_gantz.png"
3124,"E_M_liorA.png","P_M_lapid.png","FALSE","pictures/stimuli/E","pictures/stimuli/P","M","M","4",-1.90885654806587,"23","F","right","30115",1,1,0,0,FALSE,"E_M_liorA.png P_M_lapid.png"
5413,"E_F_rotem_sela.png","P_F_regev.png","FALSE","pictures/stimuli/E","pictures/stimuli/P","F","F","6",0.533451493230528,"23","F","right","30115",1,1,0,0,FALSE,"E_F_rotem_sela.png P_F_regev.png"
2985,"E_F_rotem_sela.png","E_M_danker.png","TRUE","pictures/stimuli/E","pictures/stimuli/E","F","M","6",0.533451493230528,"23","F","right","30115",1,1,0,0,FALSE,"E_F_rotem_sela.png E_M_danker.png"
3717,"E_M_ido.png","P_M_benet.png","FALSE","pictures/stimuli/E","pictures/stimuli/P","M","M","6",0.533451493230528,"23","F","right","30115",1,1,0,0,FALSE,"E_M_ido.png P_M_benet.png"
2671,"E_F_ninet.png","P_M_benet.png","FALSE","pictures/stimuli/E","pictures/stimuli/P","F","M","6",0.533451493230528,"23","F","right","30115",1,1,0,0,FALSE,"E_F_ninet.png P_M_benet.png"
6300,"E_F_ninet.png","E_M_liorA.png","TRUE","pictures/stimuli/E","pictures/stimuli/E","F","M","6",0.533451493230528,"23","F","right","30115",1,1,0,0,FALSE,"E_F_ninet.png E_M_liorA.png"
5423,"E_F_ninet.png","P_F_shaked.png","FALSE","pictures/stimuli/E","pictures/stimuli/P","F","F","2",-4.35116458936226,"23","F","right","30115",1,1,0,0,FALSE,"E_F_ninet.png P_F_shaked.png"
2818,"E_M_liorA.png","P_F_regev.png","FALSE","pictures/stimuli/E","pictures/stimuli/P","M","F","6",0.533451493230528,"23","F","right","30115",1,1,0,0,FALSE,"E_M_liorA.png P_F_regev.png"
2089,"E_F_rotem_sela.png","E_M_ido.png","TRUE","pictures/stimuli/E","pictures/stimuli/E","F","M","6",0.533451493230528,"23","F","right","30115",1,1,0,0,FALSE,"E_F_rotem_sela.png E_M_ido.png"
5159,"E_F_ilanit.png","P_F_staiv.png","FALSE","pictures/stimuli/E","pictures/stimuli/P","F","F","6",0.533451493230528,"23","F","right","30115",1,0,0,0,TRUE,"E_F_ilanit.png P_F_staiv.png"
3853,"E_M_asi.png","P_M_lapid.png","FALSE","pictures/stimuli/E","pictures/stimuli/P","M","M","6",0.533451493230528,"23","F","right","30115",1,1,0,0,FALSE,"E_M_asi.png P_M_lapid.png"
1968,"E_F_ilanit.png","P_M_saar.png","FALSE","pictures/stimuli/E","pictures/stimuli/P","F","M","6",0.533451493230528,"23","F","right","30115",1,1,0,0,FALSE,"E_F_ilanit.png P_M_saar.png"
2583,"E_F_ilanit.png","P_M_buji.png","FALSE","pictures/stimuli/E","pictures/stimuli/P","F","M","6",0.533451493230528,"23","F","right","30115",1,1,0,0,FALSE,"E_F_ilanit.png P_M_buji.png"
2139,"E_F_rotem_sela.png","P_M_smut.png","FALSE","pictures/stimuli/E","pictures/stimuli/P","F","M","6",0.533451493230528,"23","F","right","30115",1,1,0,0,FALSE,"E_F_rotem_sela.png P_M_smut.png"
3076,"E_M_danker.png","P_F_regev.png","FALSE","pictures/stimuli/E","pictures/stimuli/P","M","F","6",0.533451493230528,"23","F","right","30115",1,1,0,0,FALSE,"E_M_danker.png P_F_regev.png"
1631,"P_F_shaked.png","P_M_benet.png","TRUE","pictures/stimuli/P","pictures/stimuli/P","F","M","6",0.533451493230528,"23","F","right","30115",1,1,0,0,FALSE,"P_F_shaked.png P_M_benet.png"
2220,"P_F_shaked.png","P_M_smut.png","TRUE","pictures/stimuli/P","pictures/stimuli/P","F","M","6",0.533451493230528,"23","F","right","30115",1,1,0,0,FALSE,"P_F_shaked.png P_M_smut.png"
5694,"E_M_asi.png","P_M_saar.png","FALSE","pictures/stimuli/E","pictures/stimuli/P","M","M","5",-0.68770252741767,"23","F","right","30115",1,1,0,0,FALSE,"E_M_asi.png P_M_saar.png"
1862,"E_M_asi.png","P_M_buji.png","FALSE","pictures/stimuli/E","pictures/stimuli/P","M","M","6",0.533451493230528,"23","F","right","30115",1,1,0,0,FALSE,"E_M_asi.png P_M_buji.png"
3249,"E_M_asi.png","P_F_michaeli.png","FALSE","pictures/stimuli/E","pictures/stimuli/P","M","F","6",0.533451493230528,"23","F","right","30115",1,1,0,0,FALSE,"E_M_asi.png P_F_michaeli.png"
1998,"E_M_liorA.png","P_F_staiv.png","FALSE","pictures/stimuli/E","pictures/stimuli/P","M","F","6",0.533451493230528,"23","F","right","30115",1,0,0,0,TRUE,"E_M_liorA.png P_F_staiv.png"
16551,"E_M_ido.png","P_M_smut.png","FALSE","pictures/stimuli/E","pictures/stimuli/P","M","M","5",-0.68770252741767,"23","F","right","30115",1,1,0,0,FALSE,"E_M_ido.png P_M_smut.png"
3109,"E_M_yuda.png","P_M_buji.png","FALSE","pictures/stimuli/E","pictures/stimuli/P","M","M","5",-0.68770252741767,"23","F","right","30115",1,1,0,0,FALSE,"E_M_yuda.png P_M_buji.png"
1863,"E_M_danker.png","P_F_shaked.png","FALSE","pictures/stimuli/E","pictures/stimuli/P","M","F","6",0.533451493230528,"23","F","right","30115",1,1,0,0,FALSE,"E_M_danker.png P_F_shaked.png"
1572,"P_F_michaeli.png","P_M_smut.png","TRUE","pictures/stimuli/P","pictures/stimuli/P","F","M","6",0.533451493230528,"23","F","right","30115",1,1,0,0,FALSE,"P_F_michaeli.png P_M_smut.png"
4890,"E_F_ninet.png","P_M_gantz.png","FALSE","pictures/stimuli/E","pictures/stimuli/P","F","M","6",0.533451493230528,"23","F","right","30115",1,1,0,0,FALSE,"E_F_ninet.png P_M_gantz.png"
2202,"P_M_gantz.png","P_M_benet.png","TRUE","pictures/stimuli/P","pictures/stimuli/P","M","M","6",0.533451493230528,"23","F","right","30115",1,1,0,0,FALSE,"P_M_benet.png P_M_gantz.png"
2781,"E_M_ido.png","P_M_lapid.png","FALSE","pictures/stimuli/E","pictures/stimuli/P","M","M","5",-0.68770252741767,"23","F","right","30115",1,1,0,0,FALSE,"E_M_ido.png P_M_lapid.png"
2361,"E_M_liorA.png","P_M_saar.png","FALSE","pictures/stimuli/E","pictures/stimuli/P","M","M","6",0.533451493230528,"23","F","right","30115",1,1,0,0,FALSE,"E_M_liorA.png P_M_saar.png"
2111,"E_F_galit_gutman.png","P_F_michaeli.png","FALSE","pictures/stimuli/E","pictures/stimuli/P","F","F","6",0.533451493230528,"23","F","right","30115",0,1,0,0,TRUE,"E_F_galit_gutman.png P_F_michaeli.png"
1733,"P_F_michaeli.png","P_M_gantz.png","TRUE","pictures/stimuli/P","pictures/stimuli/P","F","M","6",0.533451493230528,"23","F","right","30115",1,1,0,0,FALSE,"P_F_michaeli.png P_M_gantz.png"
3176,"P_M_gantz.png","P_M_saar.png","TRUE","pictures/stimuli/P","pictures/stimuli/P","M","M","5",-0.68770252741767,"23","F","right","30115",1,1,0,0,FALSE,"P_M_gantz.png P_M_saar.png"
1860,"E_M_ido.png","P_F_regev.png","FALSE","pictures/stimuli/E","pictures/stimuli/P","M","F","6",0.533451493230528,"23","F","right","30115",1,1,0,0,FALSE,"E_M_ido.png P_F_regev.png"
3223,"E_M_danker.png","P_M_buji.png","FALSE","pictures/stimuli/E","pictures/stimuli/P","M","M","6",0.533451493230528,"23","F","right","30115",1,1,0,0,FALSE,"E_M_danker.png P_M_buji.png"
2862,"P_M_benet.png","P_M_smut.png","TRUE","pictures/stimuli/P","pictures/stimuli/P","M","M","6",0.533451493230528,"23","F","right","30115",1,1,0,0,FALSE,"P_M_benet.png P_M_smut.png"
2937,"E_M_asi.png","E_M_ido.png","TRUE","pictures/stimuli/E","pictures/stimuli/E","M","M","4",-1.90885654806587,"23","F","right","30115",1,1,0,0,FALSE,"E_M_asi.png E_M_ido.png"
2178,"E_M_asi.png","P_F_regev.png","FALSE","pictures/stimuli/E","pictures/stimuli/P","M","F","6",0.533451493230528,"23","F","right","30115",1,1,0,0,FALSE,"E_M_asi.png P_F_regev.png"
5621,"P_M_lapid.png","P_M_smut.png","TRUE","pictures/stimuli/P","pictures/stimuli/P","M","M","6",0.533451493230528,"23","F","right","30115",1,1,0,0,FALSE,"P_M_lapid.png P_M_smut.png"
2596,"E_F_shiri.png","P_F_staiv.png","FALSE","pictures/stimuli/E","pictures/stimuli/P","F","F","6",0.533451493230528,"23","F","right","30115",1,0,0,0,TRUE,"E_F_shiri.png P_F_staiv.png"
3045,"E_M_asi.png","E_M_yuda.png","TRUE","pictures/stimuli/E","pictures/stimuli/E","M","M","6",0.533451493230528,"23","F","right","30115",1,1,0,0,FALSE,"E_M_asi.png E_M_yuda.png"
2392,"E_M_asi.png","P_F_shaked.png","FALSE","pictures/stimuli/E","pictures/stimuli/P","M","F","6",0.533451493230528,"23","F","right","30115",1,1,0,0,FALSE,"E_M_asi.png P_F_shaked.png"
2749,"E_M_ido.png","P_M_buji.png","FALSE","pictures/stimuli/E","pictures/stimuli/P","M","M","6",0.533451493230528,"23","F","right","30115",1,1,0,0,FALSE,"E_M_ido.png P_M_buji.png"
4607,"P_M_buji.png","P_M_saar.png","TRUE","pictures/stimuli/P","pictures/stimuli/P","M","M","5",-0.68770252741767,"23","F","right","30115",1,1,0,0,FALSE,"P_M_buji.png P_M_saar.png"
2268,"E_M_ido.png","P_F_michaeli.png","FALSE","pictures/stimuli/E","pictures/stimuli/P","M","F","6",0.533451493230528,"23","F","right","30115",1,1,0,0,FALSE,"E_M_ido.png P_F_michaeli.png"
2910,"P_M_benet.png","P_M_saar.png","TRUE","pictures/stimuli/P","pictures/stimuli/P","M","M","6",0.533451493230528,"23","F","right","30115",1,1,0,0,FALSE,"P_M_benet.png P_M_saar.png"
1618,"P_F_staiv.png","P_M_buji.png","TRUE","pictures/stimuli/P","pictures/stimuli/P","F","M","6",0.533451493230528,"23","F","right","30115",0,1,0,0,TRUE,"P_F_staiv.png P_M_buji.png"
4929,"E_M_liorA.png","P_M_smut.png","FALSE","pictures/stimuli/E","pictures/stimuli/P","M","M","6",0.533451493230528,"23","F","right","30115",1,1,0,0,FALSE,"E_M_liorA.png P_M_smut.png"
1576,"P_F_shaked.png","P_M_saar.png","TRUE","pictures/stimuli/P","pictures/stimuli/P","F","M","6",0.533451493230528,"23","F","right","30115",1,1,0,0,FALSE,"P_F_shaked.png P_M_saar.png"
4125,"E_F_rotem_sela.png","P_M_lapid.png","FALSE","pictures/stimuli/E","pictures/stimuli/P","F","M","6",0.533451493230528,"23","F","right","30115",1,1,0,0,FALSE,"E_F_rotem_sela.png P_M_lapid.png"
4075,"E_F_galit_gutman.png","E_M_liorA.png","TRUE","pictures/stimuli/E","pictures/stimuli/E","F","M","6",0.533451493230528,"23","F","right","30115",0,1,0,0,TRUE,"E_F_galit_gutman.png E_M_liorA.png"
1863,"E_F_rotem_sela.png","P_M_saar.png","FALSE","pictures/stimuli/E","pictures/stimuli/P","F","M","6",0.533451493230528,"23","F","right","30115",1,1,0,0,FALSE,"E_F_rotem_sela.png P_M_saar.png"
2754,"E_M_danker.png","P_F_staiv.png","FALSE","pictures/stimuli/E","pictures/stimuli/P","M","F","6",0.533451493230528,"23","F","right","30115",1,0,0,0,TRUE,"E_M_danker.png P_F_staiv.png"
2651,"E_F_galit_gutman.png","E_F_ilanit.png","TRUE","pictures/stimuli/E","pictures/stimuli/E","F","F","6",0.533451493230528,"23","F","right","30115",0,1,0,0,TRUE,"E_F_galit_gutman.png E_F_ilanit.png"
2392,"P_F_shaked.png","P_M_lapid.png","TRUE","pictures/stimuli/P","pictures/stimuli/P","F","M","6",0.533451493230528,"23","F","right","30115",1,1,0,0,FALSE,"P_F_shaked.png P_M_lapid.png"
2064,"E_F_galit_gutman.png","P_M_lapid.png","FALSE","pictures/stimuli/E","pictures/stimuli/P","F","M","6",0.533451493230528,"23","F","right","30115",0,1,0,0,TRUE,"E_F_galit_gutman.png P_M_lapid.png"
2063,"E_M_asi.png","E_M_liorA.png","TRUE","pictures/stimuli/E","pictures/stimuli/E","M","M","5",-0.68770252741767,"23","F","right","30115",1,1,0,0,FALSE,"E_M_asi.png E_M_liorA.png"
6531,"E_F_ninet.png","E_F_rotem_sela.png","TRUE","pictures/stimuli/E","pictures/stimuli/E","F","F","6",0.533451493230528,"23","F","right","30115",1,1,0,0,FALSE,"E_F_ninet.png E_F_rotem_sela.png"
2005,"E_M_yuda.png","P_M_benet.png","FALSE","pictures/stimuli/E","pictures/stimuli/P","M","M","6",0.533451493230528,"23","F","right","30115",1,1,0,0,FALSE,"E_M_yuda.png P_M_benet.png"
7011,"E_F_ninet.png","E_F_shiri.png","TRUE","pictures/stimuli/E","pictures/stimuli/E","F","F","5",-0.68770252741767,"23","F","right","30115",1,1,0,0,FALSE,"E_F_ninet.png E_F_shiri.png"
1742,"E_F_galit_gutman.png","P_M_saar.png","FALSE","pictures/stimuli/E","pictures/stimuli/P","F","M","6",0.533451493230528,"23","F","right","30115",0,1,0,0,TRUE,"E_F_galit_gutman.png P_M_saar.png"
8733,"P_F_michaeli.png","P_F_regev.png","TRUE","pictures/stimuli/P","pictures/stimuli/P","F","F","5",-0.68770252741767,"23","F","right","30115",1,1,0,0,FALSE,"P_F_michaeli.png P_F_regev.png"
2141,"P_F_shaked.png","P_M_gantz.png","TRUE","pictures/stimuli/P","pictures/stimuli/P","F","M","6",0.533451493230528,"23","F","right","30115",1,1,0,0,FALSE,"P_F_shaked.png P_M_gantz.png"
2495,"P_M_gantz.png","P_M_lapid.png","TRUE","pictures/stimuli/P","pictures/stimuli/P","M","M","4",-1.90885654806587,"23","F","right","30115",1,1,0,0,FALSE,"P_M_gantz.png P_M_lapid.png"
1756,"E_F_galit_gutman.png","P_M_smut.png","FALSE","pictures/stimuli/E","pictures/stimuli/P","F","M","6",0.533451493230528,"23","F","right","30115",0,1,0,0,TRUE,"E_F_galit_gutman.png P_M_smut.png"
5423,"E_M_liorA.png","E_M_yuda.png","TRUE","pictures/stimuli/E","pictures/stimuli/E","M","M","5",-0.68770252741767,"23","F","right","30115",1,1,0,0,FALSE,"E_M_liorA.png E_M_yuda.png"
1989,"E_M_ido.png","P_M_saar.png","FALSE","pictures/stimuli/E","pictures/stimuli/P","M","M","6",0.533451493230528,"23","F","right","30115",1,1,0,0,FALSE,"E_M_ido.png P_M_saar.png"
1910,"E_F_shiri.png","P_M_benet.png","FALSE","pictures/stimuli/E","pictures/stimuli/P","F","M","6",0.533451493230528,"23","F","right","30115",1,1,0,0,FALSE,"E_F_shiri.png P_M_benet.png"
2037,"E_M_asi.png","E_M_danker.png","TRUE","pictures/stimuli/E","pictures/stimuli/E","M","M","5",-0.68770252741767,"23","F","right","30115",1,1,0,0,FALSE,"E_M_asi.png E_M_danker.png"
1607,"P_F_michaeli.png","P_M_lapid.png","TRUE","pictures/stimuli/P","pictures/stimuli/P","F","M","6",0.533451493230528,"23","F","right","30115",1,1,0,0,FALSE,"P_F_michaeli.png P_M_lapid.png"
3547,"E_F_shiri.png","P_F_michaeli.png","FALSE","pictures/stimuli/E","pictures/stimuli/P","F","F","5",-0.68770252741767,"23","F","right","30115",1,1,0,0,FALSE,"E_F_shiri.png P_F_michaeli.png"
1548,"E_F_galit_gutman.png","P_M_benet.png","FALSE","pictures/stimuli/E","pictures/stimuli/P","F","M","6",0.533451493230528,"23","F","right","30115",0,1,0,0,TRUE,"E_F_galit_gutman.png P_M_benet.png"
3495,"P_F_regev.png","P_F_staiv.png","TRUE","pictures/stimuli/P","pictures/stimuli/P","F","F","6",0.533451493230528,"23","F","right","30115",1,0,0,0,TRUE,"P_F_regev.png P_F_staiv.png"
6127,"E_F_ninet.png","P_M_buji.png","FALSE","pictures/stimuli/E","pictures/stimuli/P","F","M","6",0.533451493230528,"23","F","right","30115",1,1,0,0,FALSE,"E_F_ninet.png P_M_buji.png"
2030,"E_M_yuda.png","P_F_regev.png","FALSE","pictures/stimuli/E","pictures/stimuli/P","M","F","6",0.533451493230528,"23","F","right","30115",1,1,0,0,FALSE,"E_M_yuda.png P_F_regev.png"
8920,"E_M_ido.png","E_M_liorA.png","TRUE","pictures/stimuli/E","pictures/stimuli/E","M","M","3",-2.08715889468462,"23","F","right","29824",1,1,0,0,FALSE,"E_M_ido.png E_M_liorA.png"
3195,"E_M_danker.png","P_F_michaeli.png","FALSE","pictures/stimuli/E","pictures/stimuli/P","M","F","4",-1.14071452716653,"23","F","right","29824",1,1,0,0,FALSE,"E_M_danker.png P_F_michaeli.png"
5169,"E_F_shiri.png","P_F_shaked.png","FALSE","pictures/stimuli/E","pictures/stimuli/P","F","F","3",-2.08715889468462,"23","F","right","29824",1,1,0,0,FALSE,"E_F_shiri.png P_F_shaked.png"
4993,"E_F_ilanit.png","P_M_benet.png","FALSE","pictures/stimuli/E","pictures/stimuli/P","F","M","6",0.752174207869635,"23","F","right","29824",1,1,0,0,FALSE,"E_F_ilanit.png P_M_benet.png"
4911,"P_M_lapid.png","P_M_saar.png","TRUE","pictures/stimuli/P","pictures/stimuli/P","M","M","4",-1.14071452716653,"23","F","right","29824",1,1,0,0,FALSE,"P_M_lapid.png P_M_saar.png"
5167,"E_M_danker.png","E_M_ido.png","TRUE","pictures/stimuli/E","pictures/stimuli/E","M","M","2",-3.0336032622027,"23","F","right","29824",1,1,0,0,FALSE,"E_M_danker.png E_M_ido.png"
4932,"E_F_rotem_sela.png","E_M_ido.png","TRUE","pictures/stimuli/E","pictures/stimuli/E","F","M","5",-0.194270159648449,"23","F","right","29824",1,1,0,0,FALSE,"E_F_rotem_sela.png E_M_ido.png"
4629,"E_M_asi.png","E_M_danker.png","TRUE","pictures/stimuli/E","pictures/stimuli/E","M","M","3",-2.08715889468462,"23","F","right","29824",1,1,0,0,FALSE,"E_M_asi.png E_M_danker.png"
3548,"E_M_ido.png","P_M_saar.png","FALSE","pictures/stimuli/E","pictures/stimuli/P","M","M","4",-1.14071452716653,"23","F","right","29824",1,1,0,0,FALSE,"E_M_ido.png P_M_saar.png"
8159,"E_M_yuda.png","P_M_gantz.png","FALSE","pictures/stimuli/E","pictures/stimuli/P","M","M","5",-0.194270159648449,"23","F","right","29824",1,1,0,0,FALSE,"E_M_yuda.png P_M_gantz.png"
4070,"E_M_danker.png","P_M_smut.png","FALSE","pictures/stimuli/E","pictures/stimuli/P","M","M","5",-0.194270159648449,"23","F","right","29824",1,1,0,0,FALSE,"E_M_danker.png P_M_smut.png"
4898,"E_F_rotem_sela.png","E_M_yuda.png","TRUE","pictures/stimuli/E","pictures/stimuli/E","F","M","5",-0.194270159648449,"23","F","right","29824",1,1,0,0,FALSE,"E_F_rotem_sela.png E_M_yuda.png"
3942,"E_F_ilanit.png","E_F_shiri.png","TRUE","pictures/stimuli/E","pictures/stimuli/E","F","F","2",-3.0336032622027,"23","F","right","29824",1,1,0,0,FALSE,"E_F_ilanit.png E_F_shiri.png"
5144,"E_M_liorA.png","P_M_gantz.png","FALSE","pictures/stimuli/E","pictures/stimuli/P","M","M","4",-1.14071452716653,"23","F","right","29824",1,1,0,0,FALSE,"E_M_liorA.png P_M_gantz.png"
2863,"E_F_rotem_sela.png","P_F_shaked.png","FALSE","pictures/stimuli/E","pictures/stimuli/P","F","F","4",-1.14071452716653,"23","F","right","29824",1,1,0,0,FALSE,"E_F_rotem_sela.png P_F_shaked.png"
4134,"P_F_shaked.png","P_M_gantz.png","TRUE","pictures/stimuli/P","pictures/stimuli/P","F","M","6",0.752174207869635,"23","F","right","29824",1,1,0,0,FALSE,"P_F_shaked.png P_M_gantz.png"
2725,"E_F_galit_gutman.png","P_M_buji.png","FALSE","pictures/stimuli/E","pictures/stimuli/P","F","M","6",0.752174207869635,"23","F","right","29824",1,1,0,0,FALSE,"E_F_galit_gutman.png P_M_buji.png"
2748,"E_M_ido.png","P_M_buji.png","FALSE","pictures/stimuli/E","pictures/stimuli/P","M","M","6",0.752174207869635,"23","F","right","29824",1,1,0,0,FALSE,"E_M_ido.png P_M_buji.png"
4024,"E_F_galit_gutman.png","P_M_saar.png","FALSE","pictures/stimuli/E","pictures/stimuli/P","F","M","6",0.752174207869635,"23","F","right","29824",1,1,0,0,FALSE,"E_F_galit_gutman.png P_M_saar.png"
3479,"E_F_ilanit.png","P_M_lapid.png","FALSE","pictures/stimuli/E","pictures/stimuli/P","F","M","6",0.752174207869635,"23","F","right","29824",1,1,0,0,FALSE,"E_F_ilanit.png P_M_lapid.png"
6107,"E_M_yuda.png","P_M_lapid.png","FALSE","pictures/stimuli/E","pictures/stimuli/P","M","M","5",-0.194270159648449,"23","F","right","29824",1,1,0,0,FALSE,"E_M_yuda.png P_M_lapid.png"
2279,"E_F_rotem_sela.png","P_M_lapid.png","FALSE","pictures/stimuli/E","pictures/stimuli/P","F","M","6",0.752174207869635,"23","F","right","29824",1,1,0,0,FALSE,"E_F_rotem_sela.png P_M_lapid.png"
2013,"E_F_ilanit.png","P_M_buji.png","FALSE","pictures/stimuli/E","pictures/stimuli/P","F","M","6",0.752174207869635,"23","F","right","29824",1,1,0,0,FALSE,"E_F_ilanit.png P_M_buji.png"
2358,"E_M_liorA.png","P_F_regev.png","FALSE","pictures/stimuli/E","pictures/stimuli/P","M","F","6",0.752174207869635,"23","F","right","29824",1,1,0,0,FALSE,"E_M_liorA.png P_F_regev.png"
2306,"E_F_rotem_sela.png","E_M_liorA.png","TRUE","pictures/stimuli/E","pictures/stimuli/E","F","M","6",0.752174207869635,"23","F","right","29824",1,1,0,0,FALSE,"E_F_rotem_sela.png E_M_liorA.png"
2159,"E_M_ido.png","P_F_shaked.png","FALSE","pictures/stimuli/E","pictures/stimuli/P","M","F","5",-0.194270159648449,"23","F","right","29824",1,1,0,0,FALSE,"E_M_ido.png P_F_shaked.png"
2180,"E_F_ilanit.png","E_M_danker.png","TRUE","pictures/stimuli/E","pictures/stimuli/E","F","M","6",0.752174207869635,"23","F","right","29824",1,1,0,0,FALSE,"E_F_ilanit.png E_M_danker.png"
3836,"E_F_rotem_sela.png","P_M_buji.png","FALSE","pictures/stimuli/E","pictures/stimuli/P","F","M","6",0.752174207869635,"23","F","right","29824",1,1,0,0,FALSE,"E_F_rotem_sela.png P_M_buji.png"
5096,"E_F_galit_gutman.png","E_F_ninet.png","TRUE","pictures/stimuli/E","pictures/stimuli/E","F","F","5",-0.194270159648449,"23","F","right","29824",1,1,0,0,FALSE,"E_F_galit_gutman.png E_F_ninet.png"
2254,"E_F_ninet.png","P_M_benet.png","FALSE","pictures/stimuli/E","pictures/stimuli/P","F","M","6",0.752174207869635,"23","F","right","29824",1,1,0,0,FALSE,"E_F_ninet.png P_M_benet.png"
3637,"P_M_gantz.png","P_M_lapid.png","TRUE","pictures/stimuli/P","pictures/stimuli/P","M","M","3",-2.08715889468462,"23","F","right","29824",1,1,0,0,FALSE,"P_M_gantz.png P_M_lapid.png"
2694,"P_F_regev.png","P_F_shaked.png","TRUE","pictures/stimuli/P","pictures/stimuli/P","F","F","3",-2.08715889468462,"23","F","right","29824",1,1,0,0,FALSE,"P_F_regev.png P_F_shaked.png"
2183,"E_M_danker.png","P_M_benet.png","FALSE","pictures/stimuli/E","pictures/stimuli/P","M","M","6",0.752174207869635,"23","F","right","29824",1,1,0,0,FALSE,"E_M_danker.png P_M_benet.png"
3900,"P_F_michaeli.png","P_M_gantz.png","TRUE","pictures/stimuli/P","pictures/stimuli/P","F","M","6",0.752174207869635,"23","F","right","29824",1,1,0,0,FALSE,"P_F_michaeli.png P_M_gantz.png"
3217,"P_F_michaeli.png","P_M_smut.png","TRUE","pictures/stimuli/P","pictures/stimuli/P","F","M","6",0.752174207869635,"23","F","right","29824",1,1,0,0,FALSE,"P_F_michaeli.png P_M_smut.png"
2681,"P_F_michaeli.png","P_F_staiv.png","TRUE","pictures/stimuli/P","pictures/stimuli/P","F","F","4",-1.14071452716653,"23","F","right","29824",1,1,0,0,FALSE,"P_F_michaeli.png P_F_staiv.png"
3223,"E_F_rotem_sela.png","P_F_regev.png","FALSE","pictures/stimuli/E","pictures/stimuli/P","F","F","5",-0.194270159648449,"23","F","right","29824",1,1,0,0,FALSE,"E_F_rotem_sela.png P_F_regev.png"
2395,"P_F_regev.png","P_M_smut.png","TRUE","pictures/stimuli/P","pictures/stimuli/P","F","M","6",0.752174207869635,"23","F","right","29824",1,1,0,0,FALSE,"P_F_regev.png P_M_smut.png"
3471,"E_M_ido.png","P_M_smut.png","FALSE","pictures/stimuli/E","pictures/stimuli/P","M","M","4",-1.14071452716653,"23","F","right","29824",1,1,0,0,FALSE,"E_M_ido.png P_M_smut.png"
2163,"E_F_rotem_sela.png","P_M_benet.png","FALSE","pictures/stimuli/E","pictures/stimuli/P","F","M","6",0.752174207869635,"23","F","right","29824",1,1,0,0,FALSE,"E_F_rotem_sela.png P_M_benet.png"
4610,"E_M_liorA.png","P_F_shaked.png","FALSE","pictures/stimuli/E","pictures/stimuli/P","M","F","6",0.752174207869635,"23","F","right","29824",1,1,0,0,FALSE,"E_M_liorA.png P_F_shaked.png"
2497,"E_M_danker.png","P_M_lapid.png","FALSE","pictures/stimuli/E","pictures/stimuli/P","M","M","5",-0.194270159648449,"23","F","right","29824",1,1,0,0,FALSE,"E_M_danker.png P_M_lapid.png"
2419,"E_M_asi.png","E_M_ido.png","TRUE","pictures/stimuli/E","pictures/stimuli/E","M","M","4",-1.14071452716653,"23","F","right","29824",1,1,0,0,FALSE,"E_M_asi.png E_M_ido.png"
2517,"E_F_shiri.png","P_M_lapid.png","FALSE","pictures/stimuli/E","pictures/stimuli/P","F","M","6",0.752174207869635,"23","F","right","29824",1,1,0,0,FALSE,"E_F_shiri.png P_M_lapid.png"
1543,"E_F_ninet.png","P_M_smut.png","FALSE","pictures/stimuli/E","pictures/stimuli/P","F","M","6",0.752174207869635,"23","F","right","29824",1,1,0,0,FALSE,"E_F_ninet.png P_M_smut.png"
1930,"E_F_ilanit.png","E_F_rotem_sela.png","TRUE","pictures/stimuli/E","pictures/stimuli/E","F","F","4",-1.14071452716653,"23","F","right","29824",1,1,0,0,FALSE,"E_F_ilanit.png E_F_rotem_sela.png"
3410,"E_M_asi.png","E_M_liorA.png","TRUE","pictures/stimuli/E","pictures/stimuli/E","M","M","6",0.752174207869635,"23","F","right","29824",1,1,0,0,FALSE,"E_M_asi.png E_M_liorA.png"
2722,"E_F_ninet.png","E_F_shiri.png","TRUE","pictures/stimuli/E","pictures/stimuli/E","F","F","5",-0.194270159648449,"23","F","right","29824",1,1,0,0,FALSE,"E_F_ninet.png E_F_shiri.png"
2224,"E_M_yuda.png","P_F_regev.png","FALSE","pictures/stimuli/E","pictures/stimuli/P","M","F","6",0.752174207869635,"23","F","right","29824",1,1,0,0,FALSE,"E_M_yuda.png P_F_regev.png"
2119,"E_F_ilanit.png","P_F_staiv.png","FALSE","pictures/stimuli/E","pictures/stimuli/P","F","F","4",-1.14071452716653,"23","F","right","29824",1,1,0,0,FALSE,"E_F_ilanit.png P_F_staiv.png"
6852,"E_M_yuda.png","P_F_staiv.png","FALSE","pictures/stimuli/E","pictures/stimuli/P","M","F","5",-0.194270159648449,"23","F","right","29824",1,1,0,0,FALSE,"E_M_yuda.png P_F_staiv.png"
3797,"E_M_liorA.png","P_M_lapid.png","FALSE","pictures/stimuli/E","pictures/stimuli/P","M","M","3",-2.08715889468462,"23","F","right","29824",1,1,0,0,FALSE,"E_M_liorA.png P_M_lapid.png"
2363,"P_F_staiv.png","P_M_benet.png","TRUE","pictures/stimuli/P","pictures/stimuli/P","F","M","6",0.752174207869635,"23","F","right","29824",1,1,0,0,FALSE,"P_F_staiv.png P_M_benet.png"
3768,"E_F_rotem_sela.png","E_M_danker.png","TRUE","pictures/stimuli/E","pictures/stimuli/E","F","M","5",-0.194270159648449,"23","F","right","29824",1,1,0,0,FALSE,"E_F_rotem_sela.png E_M_danker.png"
1895,"P_F_regev.png","P_M_benet.png","TRUE","pictures/stimuli/P","pictures/stimuli/P","F","M","6",0.752174207869635,"23","F","right","29824",1,1,0,0,FALSE,"P_F_regev.png P_M_benet.png"
1987,"E_F_galit_gutman.png","P_F_michaeli.png","FALSE","pictures/stimuli/E","pictures/stimuli/P","F","F","4",-1.14071452716653,"23","F","right","29824",1,1,0,0,FALSE,"E_F_galit_gutman.png P_F_michaeli.png"
5156,"E_M_liorA.png","P_F_michaeli.png","FALSE","pictures/stimuli/E","pictures/stimuli/P","M","F","6",0.752174207869635,"23","F","right","29824",1,1,0,0,FALSE,"E_M_liorA.png P_F_michaeli.png"
2335,"P_M_gantz.png","P_M_benet.png","TRUE","pictures/stimuli/P","pictures/stimuli/P","M","M","6",0.752174207869635,"23","F","right","29824",1,1,0,0,FALSE,"P_M_benet.png P_M_gantz.png"
1829,"E_M_ido.png","P_F_regev.png","FALSE","pictures/stimuli/E","pictures/stimuli/P","M","F","6",0.752174207869635,"23","F","right","29824",1,1,0,0,FALSE,"E_M_ido.png P_F_regev.png"
2028,"P_F_michaeli.png","P_M_saar.png","TRUE","pictures/stimuli/P","pictures/stimuli/P","F","M","6",0.752174207869635,"23","F","right","29824",1,1,0,0,FALSE,"P_F_michaeli.png P_M_saar.png"
2509,"P_M_gantz.png","P_M_buji.png","TRUE","pictures/stimuli/P","pictures/stimuli/P","M","M","3",-2.08715889468462,"23","F","right","29824",1,1,0,0,FALSE,"P_M_buji.png P_M_gantz.png"
3394,"E_F_ninet.png","E_M_liorA.png","TRUE","pictures/stimuli/E","pictures/stimuli/E","F","M","6",0.752174207869635,"23","F","right","29824",1,1,0,0,FALSE,"E_F_ninet.png E_M_liorA.png"
2797,"E_F_shiri.png","E_M_asi.png","TRUE","pictures/stimuli/E","pictures/stimuli/E","F","M","5",-0.194270159648449,"23","F","right","29824",1,1,0,0,FALSE,"E_F_shiri.png E_M_asi.png"
2156,"E_F_ilanit.png","E_M_liorA.png","TRUE","pictures/stimuli/E","pictures/stimuli/E","F","M","6",0.752174207869635,"23","F","right","29824",1,1,0,0,FALSE,"E_F_ilanit.png E_M_liorA.png"
3243,"E_F_galit_gutman.png","E_F_shiri.png","TRUE","pictures/stimuli/E","pictures/stimuli/E","F","F","3",-2.08715889468462,"23","F","right","29824",1,1,0,0,FALSE,"E_F_galit_gutman.png E_F_shiri.png"
2140,"E_F_ilanit.png","P_F_shaked.png","FALSE","pictures/stimuli/E","pictures/stimuli/P","F","F","4",-1.14071452716653,"23","F","right","29824",1,1,0,0,FALSE,"E_F_ilanit.png P_F_shaked.png"
2727,"E_F_shiri.png","P_F_staiv.png","FALSE","pictures/stimuli/E","pictures/stimuli/P","F","F","5",-0.194270159648449,"23","F","right","29824",1,1,0,0,FALSE,"E_F_shiri.png P_F_staiv.png"
3159,"P_F_michaeli.png","P_F_shaked.png","TRUE","pictures/stimuli/P","pictures/stimuli/P","F","F","3",-2.08715889468462,"23","F","right","29824",1,1,0,0,FALSE,"P_F_michaeli.png P_F_shaked.png"
3744,"E_M_yuda.png","P_M_smut.png","FALSE","pictures/stimuli/E","pictures/stimuli/P","M","M","3",-2.08715889468462,"23","F","right","29824",1,1,0,0,FALSE,"E_M_yuda.png P_M_smut.png"
2366,"E_F_ninet.png","P_M_gantz.png","FALSE","pictures/stimuli/E","pictures/stimuli/P","F","M","6",0.752174207869635,"23","F","right","29824",1,1,0,0,FALSE,"E_F_ninet.png P_M_gantz.png"
4408,"E_M_asi.png","P_M_lapid.png","FALSE","pictures/stimuli/E","pictures/stimuli/P","M","M","4",-1.14071452716653,"23","F","right","29824",1,1,0,0,FALSE,"E_M_asi.png P_M_lapid.png"
2457,"E_M_asi.png","P_M_gantz.png","FALSE","pictures/stimuli/E","pictures/stimuli/P","M","M","6",0.752174207869635,"23","F","right","29824",1,1,0,0,FALSE,"E_M_asi.png P_M_gantz.png"
2147,"P_F_staiv.png","P_M_saar.png","TRUE","pictures/stimuli/P","pictures/stimuli/P","F","M","6",0.752174207869635,"23","F","right","29824",1,1,0,0,FALSE,"P_F_staiv.png P_M_saar.png"
2440,"E_M_asi.png","P_M_benet.png","FALSE","pictures/stimuli/E","pictures/stimuli/P","M","M","6",0.752174207869635,"23","F","right","29824",1,1,0,0,FALSE,"E_M_asi.png P_M_benet.png"
3421,"P_M_lapid.png","P_M_buji.png","TRUE","pictures/stimuli/P","pictures/stimuli/P","M","M","5",-0.194270159648449,"23","F","right","29824",1,1,0,0,FALSE,"P_M_buji.png P_M_lapid.png"
1691,"E_F_galit_gutman.png","P_F_shaked.png","FALSE","pictures/stimuli/E","pictures/stimuli/P","F","F","4",-1.14071452716653,"23","F","right","29824",1,1,0,0,FALSE,"E_F_galit_gutman.png P_F_shaked.png"
1965,"E_F_galit_gutman.png","E_M_asi.png","TRUE","pictures/stimuli/E","pictures/stimuli/E","F","M","6",0.752174207869635,"23","F","right","29824",1,1,0,0,FALSE,"E_F_galit_gutman.png E_M_asi.png"
2108,"E_F_galit_gutman.png","P_M_smut.png","FALSE","pictures/stimuli/E","pictures/stimuli/P","F","M","6",0.752174207869635,"23","F","right","29824",1,1,0,0,FALSE,"E_F_galit_gutman.png P_M_smut.png"
1698,"P_M_lapid.png","P_M_benet.png","TRUE","pictures/stimuli/P","pictures/stimuli/P","M","M","6",0.752174207869635,"23","F","right","29824",1,1,0,0,FALSE,"P_M_benet.png P_M_lapid.png"
1642,"E_F_ninet.png","P_M_saar.png","FALSE","pictures/stimuli/E","pictures/stimuli/P","F","M","6",0.752174207869635,"23","F","right","29824",1,1,0,0,FALSE,"E_F_ninet.png P_M_saar.png"
2757,"P_F_michaeli.png","P_F_regev.png","TRUE","pictures/stimuli/P","pictures/stimuli/P","F","F","4",-1.14071452716653,"23","F","right","29824",1,1,0,0,FALSE,"P_F_michaeli.png P_F_regev.png"
3204,"E_M_liorA.png","P_M_buji.png","FALSE","pictures/stimuli/E","pictures/stimuli/P","M","M","5",-0.194270159648449,"23","F","right","29824",1,1,0,0,FALSE,"E_M_liorA.png P_M_buji.png"
4414,"E_M_asi.png","P_M_smut.png","FALSE","pictures/stimuli/E","pictures/stimuli/P","M","M","6",0.752174207869635,"23","F","right","29824",1,1,0,0,FALSE,"E_M_asi.png P_M_smut.png"
2018,"P_M_gantz.png","P_M_smut.png","TRUE","pictures/stimuli/P","pictures/stimuli/P","M","M","6",0.752174207869635,"23","F","right","29824",1,1,0,0,FALSE,"P_M_gantz.png P_M_smut.png"
1715,"P_F_regev.png","P_M_saar.png","TRUE","pictures/stimuli/P","pictures/stimuli/P","F","M","6",0.752174207869635,"23","F","right","29824",1,1,0,0,FALSE,"P_F_regev.png P_M_saar.png"
1354,"E_F_rotem_sela.png","P_M_smut.png","FALSE","pictures/stimuli/E","pictures/stimuli/P","F","M","6",0.752174207869635,"23","F","right","29824",1,1,0,0,FALSE,"E_F_rotem_sela.png P_M_smut.png"
2493,"E_F_ilanit.png","P_F_regev.png","FALSE","pictures/stimuli/E","pictures/stimuli/P","F","F","5",-0.194270159648449,"23","F","right","29824",1,1,0,0,FALSE,"E_F_ilanit.png P_F_regev.png"
2097,"E_M_danker.png","P_F_staiv.png","FALSE","pictures/stimuli/E","pictures/stimuli/P","M","F","6",0.752174207869635,"23","F","right","29824",1,1,0,0,FALSE,"E_M_danker.png P_F_staiv.png"
1353,"P_F_shaked.png","P_M_benet.png","TRUE","pictures/stimuli/P","pictures/stimuli/P","F","M","6",0.752174207869635,"23","F","right","29824",1,1,0,0,FALSE,"P_F_shaked.png P_M_benet.png"
1567,"E_F_shiri.png","P_M_gantz.png","FALSE","pictures/stimuli/E","pictures/stimuli/P","F","M","6",0.752174207869635,"23","F","right","29824",1,1,0,0,FALSE,"E_F_shiri.png P_M_gantz.png"
2346,"P_F_staiv.png","P_M_buji.png","TRUE","pictures/stimuli/P","pictures/stimuli/P","F","M","6",0.752174207869635,"23","F","right","29824",1,1,0,0,FALSE,"P_F_staiv.png P_M_buji.png"
1565,"E_F_shiri.png","P_M_smut.png","FALSE","pictures/stimuli/E","pictures/stimuli/P","F","M","6",0.752174207869635,"23","F","right","29824",1,1,0,0,FALSE,"E_F_shiri.png P_M_smut.png"
2093,"E_M_danker.png","P_M_buji.png","FALSE","pictures/stimuli/E","pictures/stimuli/P","M","M","6",0.752174207869635,"23","F","right","29824",1,1,0,0,FALSE,"E_M_danker.png P_M_buji.png"
1589,"E_F_ilanit.png","E_M_asi.png","TRUE","pictures/stimuli/E","pictures/stimuli/E","F","M","6",0.752174207869635,"23","F","right","29824",1,1,0,0,FALSE,"E_F_ilanit.png E_M_asi.png"
2822,"E_F_shiri.png","P_F_michaeli.png","FALSE","pictures/stimuli/E","pictures/stimuli/P","F","F","5",-0.194270159648449,"23","F","right","29824",1,1,0,0,FALSE,"E_F_shiri.png P_F_michaeli.png"
3391,"E_F_ninet.png","P_F_regev.png","FALSE","pictures/stimuli/E","pictures/stimuli/P","F","F","5",-0.194270159648449,"23","F","right","29824",1,1,0,0,FALSE,"E_F_ninet.png P_F_regev.png"
1442,"E_M_liorA.png","P_M_smut.png","FALSE","pictures/stimuli/E","pictures/stimuli/P","M","M","6",0.752174207869635,"23","F","right","29824",1,1,0,0,FALSE,"E_M_liorA.png P_M_smut.png"
1731,"E_F_ilanit.png","E_M_ido.png","TRUE","pictures/stimuli/E","pictures/stimuli/E","F","M","6",0.752174207869635,"23","F","right","29824",1,1,0,0,FALSE,"E_F_ilanit.png E_M_ido.png"
1841,"E_F_rotem_sela.png","P_F_michaeli.png","FALSE","pictures/stimuli/E","pictures/stimuli/P","F","F","5",-0.194270159648449,"23","F","right","29824",1,1,0,0,FALSE,"E_F_rotem_sela.png P_F_michaeli.png"
1692,"E_F_ilanit.png","P_M_smut.png","FALSE","pictures/stimuli/E","pictures/stimuli/P","F","M","6",0.752174207869635,"23","F","right","29824",1,1,0,0,FALSE,"E_F_ilanit.png P_M_smut.png"
3621,"P_M_benet.png","P_M_smut.png","TRUE","pictures/stimuli/P","pictures/stimuli/P","M","M","5",-0.194270159648449,"23","F","right","29824",1,1,0,0,FALSE,"P_M_benet.png P_M_smut.png"
1742,"E_M_danker.png","P_M_gantz.png","FALSE","pictures/stimuli/E","pictures/stimuli/P","M","M","6",0.752174207869635,"23","F","right","29824",1,1,0,0,FALSE,"E_M_danker.png P_M_gantz.png"
2139,"E_F_shiri.png","E_M_liorA.png","TRUE","pictures/stimuli/E","pictures/stimuli/E","F","M","6",0.752174207869635,"23","F","right","29824",1,1,0,0,FALSE,"E_F_shiri.png E_M_liorA.png"
2171,"E_F_rotem_sela.png","P_M_saar.png","FALSE","pictures/stimuli/E","pictures/stimuli/P","F","M","6",0.752174207869635,"23","F","right","29824",1,1,0,0,FALSE,"E_F_rotem_sela.png P_M_saar.png"
2078,"P_F_shaked.png","P_F_staiv.png","TRUE","pictures/stimuli/P","pictures/stimuli/P","F","F","4",-1.14071452716653,"23","F","right","29824",1,1,0,0,FALSE,"P_F_shaked.png P_F_staiv.png"
2817,"E_M_asi.png","P_M_saar.png","FALSE","pictures/stimuli/E","pictures/stimuli/P","M","M","5",-0.194270159648449,"23","F","right","29824",1,1,0,0,FALSE,"E_M_asi.png P_M_saar.png"
6012,"E_M_danker.png","P_M_saar.png","FALSE","pictures/stimuli/E","pictures/stimuli/P","M","M","5",-0.194270159648449,"23","F","right","29824",1,1,0,0,FALSE,"E_M_danker.png P_M_saar.png"
2282,"E_F_ninet.png","E_F_rotem_sela.png","TRUE","pictures/stimuli/E","pictures/stimuli/E","F","F","4",-1.14071452716653,"23","F","right","29824",1,1,0,0,FALSE,"E_F_ninet.png E_F_rotem_sela.png"
3247,"E_F_shiri.png","E_M_danker.png","TRUE","pictures/stimuli/E","pictures/stimuli/E","F","M","6",0.752174207869635,"23","F","right","29824",1,1,0,0,FALSE,"E_F_shiri.png E_M_danker.png"
1778,"E_F_galit_gutman.png","E_M_danker.png","TRUE","pictures/stimuli/E","pictures/stimuli/E","F","M","6",0.752174207869635,"23","F","right","29824",1,1,0,0,FALSE,"E_F_galit_gutman.png E_M_danker.png"
3780,"E_M_asi.png","P_F_regev.png","FALSE","pictures/stimuli/E","pictures/stimuli/P","M","F","5",-0.194270159648449,"23","F","right","29824",1,1,0,0,FALSE,"E_M_asi.png P_F_regev.png"
2018,"E_F_rotem_sela.png","E_F_shiri.png","TRUE","pictures/stimuli/E","pictures/stimuli/E","F","F","3",-2.08715889468462,"23","F","right","29824",1,1,0,0,FALSE,"E_F_rotem_sela.png E_F_shiri.png"
2426,"E_F_galit_gutman.png","E_F_rotem_sela.png","TRUE","pictures/stimuli/E","pictures/stimuli/E","F","F","3",-2.08715889468462,"23","F","right","29824",1,1,0,0,FALSE,"E_F_galit_gutman.png E_F_rotem_sela.png"
2962,"P_F_shaked.png","P_M_smut.png","TRUE","pictures/stimuli/P","pictures/stimuli/P","F","M","5",-0.194270159648449,"23","F","right","29824",1,1,0,0,FALSE,"P_F_shaked.png P_M_smut.png"
1985,"P_F_shaked.png","P_M_saar.png","TRUE","pictures/stimuli/P","pictures/stimuli/P","F","M","6",0.752174207869635,"23","F","right","29824",1,1,0,0,FALSE,"P_F_shaked.png P_M_saar.png"
4415,"E_F_galit_gutman.png","E_F_ilanit.png","TRUE","pictures/stimuli/E","pictures/stimuli/E","F","F","2",-3.0336032622027,"23","F","right","29824",1,1,0,0,FALSE,"E_F_galit_gutman.png E_F_ilanit.png"
1885,"P_F_michaeli.png","P_M_benet.png","TRUE","pictures/stimuli/P","pictures/stimuli/P","F","M","6",0.752174207869635,"23","F","right","29824",1,1,0,0,FALSE,"P_F_michaeli.png P_M_benet.png"
2648,"E_F_galit_gutman.png","E_M_yuda.png","TRUE","pictures/stimuli/E","pictures/stimuli/E","F","M","5",-0.194270159648449,"23","F","right","29824",1,1,0,0,FALSE,"E_F_galit_gutman.png E_M_yuda.png"
1707,"P_F_staiv.png","P_M_gantz.png","TRUE","pictures/stimuli/P","pictures/stimuli/P","F","M","6",0.752174207869635,"23","F","right","29824",1,1,0,0,FALSE,"P_F_staiv.png P_M_gantz.png"
2242,"P_M_buji.png","P_M_saar.png","TRUE","pictures/stimuli/P","pictures/stimuli/P","M","M","3",-2.08715889468462,"23","F","right","29824",1,1,0,0,FALSE,"P_M_buji.png P_M_saar.png"
2772,"E_F_galit_gutman.png","E_M_ido.png","TRUE","pictures/stimuli/E","pictures/stimuli/E","F","M","6",0.752174207869635,"23","F","right","29824",1,1,0,0,FALSE,"E_F_galit_gutman.png E_M_ido.png"
2580,"E_M_asi.png","P_F_michaeli.png","FALSE","pictures/stimuli/E","pictures/stimuli/P","M","F","6",0.752174207869635,"23","F","right","29824",1,1,0,0,FALSE,"E_M_asi.png P_F_michaeli.png"
1784,"E_F_ninet.png","P_F_michaeli.png","FALSE","pictures/stimuli/E","pictures/stimuli/P","F","F","4",-1.14071452716653,"23","F","right","29824",1,1,0,0,FALSE,"E_F_ninet.png P_F_michaeli.png"
1426,"E_F_ilanit.png","P_M_saar.png","FALSE","pictures/stimuli/E","pictures/stimuli/P","F","M","6",0.752174207869635,"23","F","right","29824",1,1,0,0,FALSE,"E_F_ilanit.png P_M_saar.png"
2641,"E_M_asi.png","P_M_buji.png","FALSE","pictures/stimuli/E","pictures/stimuli/P","M","M","6",0.752174207869635,"23","F","right","29824",1,1,0,0,FALSE,"E_M_asi.png P_M_buji.png"
2530,"E_F_galit_gutman.png","P_F_staiv.png","FALSE","pictures/stimuli/E","pictures/stimuli/P","F","F","4",-1.14071452716653,"23","F","right","29824",1,1,0,0,FALSE,"E_F_galit_gutman.png P_F_staiv.png"
1483,"E_F_ninet.png","E_M_ido.png","TRUE","pictures/stimuli/E","pictures/stimuli/E","F","M","6",0.752174207869635,"23","F","right","29824",1,1,0,0,FALSE,"E_F_ninet.png E_M_ido.png"
1281,"E_F_ninet.png","E_M_asi.png","TRUE","pictures/stimuli/E","pictures/stimuli/E","F","M","6",0.752174207869635,"23","F","right","29824",1,1,0,0,FALSE,"E_F_ninet.png E_M_asi.png"
1648,"E_M_danker.png","E_M_liorA.png","TRUE","pictures/stimuli/E","pictures/stimuli/E","M","M","5",-0.194270159648449,"23","F","right","29824",1,1,0,0,FALSE,"E_M_danker.png E_M_liorA.png"
1593,"E_F_shiri.png","P_M_benet.png","FALSE","pictures/stimuli/E","pictures/stimuli/P","F","M","6",0.752174207869635,"23","F","right","29824",1,1,0,0,FALSE,"E_F_shiri.png P_M_benet.png"
1970,"P_F_regev.png","P_M_buji.png","TRUE","pictures/stimuli/P","pictures/stimuli/P","F","M","6",0.752174207869635,"23","F","right","29824",1,1,0,0,FALSE,"P_F_regev.png P_M_buji.png"
2403,"P_M_saar.png","P_M_smut.png","TRUE","pictures/stimuli/P","pictures/stimuli/P","M","M","5",-0.194270159648449,"23","F","right","29824",1,1,0,0,FALSE,"P_M_saar.png P_M_smut.png"
1433,"E_F_galit_gutman.png","P_M_gantz.png","FALSE","pictures/stimuli/E","pictures/stimuli/P","F","M","6",0.752174207869635,"23","F","right","29824",1,1,0,0,FALSE,"E_F_galit_gutman.png P_M_gantz.png"
2584,"E_F_ninet.png","E_M_yuda.png","TRUE","pictures/stimuli/E","pictures/stimuli/E","F","M","6",0.752174207869635,"23","F","right","29824",1,1,0,0,FALSE,"E_F_ninet.png E_M_yuda.png"
3648,"E_M_liorA.png","P_M_saar.png","FALSE","pictures/stimuli/E","pictures/stimuli/P","M","M","4",-1.14071452716653,"23","F","right","29824",1,1,0,0,FALSE,"E_M_liorA.png P_M_saar.png"
2240,"P_F_michaeli.png","P_M_lapid.png","TRUE","pictures/stimuli/P","pictures/stimuli/P","F","M","6",0.752174207869635,"23","F","right","29824",1,1,0,0,FALSE,"P_F_michaeli.png P_M_lapid.png"
1922,"P_F_shaked.png","P_M_buji.png","TRUE","pictures/stimuli/P","pictures/stimuli/P","F","M","6",0.752174207869635,"23","F","right","29824",1,1,0,0,FALSE,"P_F_shaked.png P_M_buji.png"
1747,"E_F_shiri.png","P_M_saar.png","FALSE","pictures/stimuli/E","pictures/stimuli/P","F","M","6",0.752174207869635,"23","F","right","29824",1,1,0,0,FALSE,"E_F_shiri.png P_M_saar.png"
1800,"P_M_benet.png","P_M_saar.png","TRUE","pictures/stimuli/P","pictures/stimuli/P","M","M","6",0.752174207869635,"23","F","right","29824",1,1,0,0,FALSE,"P_M_benet.png P_M_saar.png"
2144,"E_M_liorA.png","E_M_yuda.png","TRUE","pictures/stimuli/E","pictures/stimuli/E","M","M","5",-0.194270159648449,"23","F","right","29824",1,1,0,0,FALSE,"E_M_liorA.png E_M_yuda.png"
1670,"E_F_rotem_sela.png","P_F_staiv.png","FALSE","pictures/stimuli/E","pictures/stimuli/P","F","F","4",-1.14071452716653,"23","F","right","29824",1,1,0,0,FALSE,"E_F_rotem_sela.png P_F_staiv.png"
2143,"E_F_galit_gutman.png","P_M_benet.png","FALSE","pictures/stimuli/E","pictures/stimuli/P","F","M","6",0.752174207869635,"23","F","right","29824",1,1,0,0,FALSE,"E_F_galit_gutman.png P_M_benet.png"
2596,"E_M_asi.png","E_M_yuda.png","TRUE","pictures/stimuli/E","pictures/stimuli/E","M","M","5",-0.194270159648449,"23","F","right","29824",1,1,0,0,FALSE,"E_M_asi.png E_M_yuda.png"
1539,"E_F_ilanit.png","E_M_yuda.png","TRUE","pictures/stimuli/E","pictures/stimuli/E","F","M","6",0.752174207869635,"23","F","right","29824",1,1,0,0,FALSE,"E_F_ilanit.png E_M_yuda.png"
1496,"E_F_ninet.png","E_M_danker.png","TRUE","pictures/stimuli/E","pictures/stimuli/E","F","M","6",0.752174207869635,"23","F","right","29824",1,1,0,0,FALSE,"E_F_ninet.png E_M_danker.png"
2760,"P_M_lapid.png","P_M_smut.png","TRUE","pictures/stimuli/P","pictures/stimuli/P","M","M","5",-0.194270159648449,"23","F","right","29824",1,1,0,0,FALSE,"P_M_lapid.png P_M_smut.png"
1527,"E_M_ido.png","P_M_benet.png","FALSE","pictures/stimuli/E","pictures/stimuli/P","M","M","6",0.752174207869635,"23","F","right","29824",1,1,0,0,FALSE,"E_M_ido.png P_M_benet.png"
3325,"E_F_ninet.png","P_F_staiv.png","FALSE","pictures/stimuli/E","pictures/stimuli/P","F","F","4",-1.14071452716653,"23","F","right","29824",1,1,0,0,FALSE,"E_F_ninet.png P_F_staiv.png"
1874,"E_F_galit_gutman.png","P_F_regev.png","FALSE","pictures/stimuli/E","pictures/stimuli/P","F","F","5",-0.194270159648449,"23","F","right","29824",1,1,0,0,FALSE,"E_F_galit_gutman.png P_F_regev.png"
1593,"E_M_yuda.png","P_F_michaeli.png","FALSE","pictures/stimuli/E","pictures/stimuli/P","M","F","6",0.752174207869635,"23","F","right","29824",1,1,0,0,FALSE,"E_M_yuda.png P_F_michaeli.png"
1632,"E_M_yuda.png","P_M_benet.png","FALSE","pictures/stimuli/E","pictures/stimuli/P","M","M","6",0.752174207869635,"23","F","right","29824",1,1,0,0,FALSE,"E_M_yuda.png P_M_benet.png"
3259,"E_F_ilanit.png","E_F_ninet.png","TRUE","pictures/stimuli/E","pictures/stimuli/E","F","F","5",-0.194270159648449,"23","F","right","29824",1,1,0,0,FALSE,"E_F_ilanit.png E_F_ninet.png"
1782,"P_F_regev.png","P_M_lapid.png","TRUE","pictures/stimuli/P","pictures/stimuli/P","F","M","6",0.752174207869635,"23","F","right","29824",1,1,0,0,FALSE,"P_F_regev.png P_M_lapid.png"
2360,"E_M_yuda.png","P_M_buji.png","FALSE","pictures/stimuli/E","pictures/stimuli/P","M","M","5",-0.194270159648449,"23","F","right","29824",1,1,0,0,FALSE,"E_M_yuda.png P_M_buji.png"
1585,"P_F_staiv.png","P_M_lapid.png","TRUE","pictures/stimuli/P","pictures/stimuli/P","F","M","6",0.752174207869635,"23","F","right","29824",1,1,0,0,FALSE,"P_F_staiv.png P_M_lapid.png"
1473,"P_F_shaked.png","P_M_lapid.png","TRUE","pictures/stimuli/P","pictures/stimuli/P","F","M","6",0.752174207869635,"23","F","right","29824",1,1,0,0,FALSE,"P_F_shaked.png P_M_lapid.png"
2483,"E_F_shiri.png","E_M_yuda.png","TRUE","pictures/stimuli/E","pictures/stimuli/E","F","M","6",0.752174207869635,"23","F","right","29824",1,1,0,0,FALSE,"E_F_shiri.png E_M_yuda.png"
1618,"E_M_asi.png","P_F_staiv.png","FALSE","pictures/stimuli/E","pictures/stimuli/P","M","F","5",-0.194270159648449,"23","F","right","29824",1,1,0,0,FALSE,"E_M_asi.png P_F_staiv.png"
5467,"E_F_ninet.png","P_F_shaked.png","FALSE","pictures/stimuli/E","pictures/stimuli/P","F","F","4",-1.14071452716653,"23","F","right","29824",1,1,0,0,FALSE,"E_F_ninet.png P_F_shaked.png"
1587,"E_M_liorA.png","P_M_benet.png","FALSE","pictures/stimuli/E","pictures/stimuli/P","M","M","6",0.752174207869635,"23","F","right","29824",1,1,0,0,FALSE,"E_M_liorA.png P_M_benet.png"
3934,"E_F_ilanit.png","P_F_michaeli.png","FALSE","pictures/stimuli/E","pictures/stimuli/P","F","F","4",-1.14071452716653,"23","F","right","29824",1,1,0,0,FALSE,"E_F_ilanit.png P_F_michaeli.png"
2281,"E_M_yuda.png","P_M_saar.png","FALSE","pictures/stimuli/E","pictures/stimuli/P","M","M","4",-1.14071452716653,"23","F","right","29824",1,1,0,0,FALSE,"E_M_yuda.png P_M_saar.png"
4772,"E_M_yuda.png","P_F_shaked.png","FALSE","pictures/stimuli/E","pictures/stimuli/P","M","F","6",0.752174207869635,"23","F","right","29824",1,1,0,0,FALSE,"E_M_yuda.png P_F_shaked.png"
1729,"E_F_shiri.png","P_M_buji.png","FALSE","pictures/stimuli/E","pictures/stimuli/P","F","M","6",0.752174207869635,"23","F","right","29824",1,1,0,0,FALSE,"E_F_shiri.png P_M_buji.png"
1913,"P_M_gantz.png","P_M_saar.png","TRUE","pictures/stimuli/P","pictures/stimuli/P","M","M","4",-1.14071452716653,"23","F","right","29824",1,1,0,0,FALSE,"P_M_gantz.png P_M_saar.png"
1960,"E_M_ido.png","P_M_lapid.png","FALSE","pictures/stimuli/E","pictures/stimuli/P","M","M","5",-0.194270159648449,"23","F","right","29824",1,1,0,0,FALSE,"E_M_ido.png P_M_lapid.png"
2146,"E_F_galit_gutman.png","E_M_liorA.png","TRUE","pictures/stimuli/E","pictures/stimuli/E","F","M","6",0.752174207869635,"23","F","right","29824",1,1,0,0,FALSE,"E_F_galit_gutman.png E_M_liorA.png"
3058,"P_F_staiv.png","P_M_smut.png","TRUE","pictures/stimuli/P","pictures/stimuli/P","F","M","6",0.752174207869635,"23","F","right","29824",1,1,0,0,FALSE,"P_F_staiv.png P_M_smut.png"
1953,"E_F_ninet.png","P_M_buji.png","FALSE","pictures/stimuli/E","pictures/stimuli/P","F","M","6",0.752174207869635,"23","F","right","29824",1,1,0,0,FALSE,"E_F_ninet.png P_M_buji.png"
3385,"E_M_ido.png","E_M_yuda.png","TRUE","pictures/stimuli/E","pictures/stimuli/E","M","M","3",-2.08715889468462,"23","F","right","29824",1,1,0,0,FALSE,"E_M_ido.png E_M_yuda.png"
2592,"P_F_regev.png","P_F_staiv.png","TRUE","pictures/stimuli/P","pictures/stimuli/P","F","F","3",-2.08715889468462,"23","F","right","29824",1,1,0,0,FALSE,"P_F_regev.png P_F_staiv.png"
2503,"P_M_benet.png","P_M_buji.png","TRUE","pictures/stimuli/P","pictures/stimuli/P","M","M","6",0.752174207869635,"23","F","right","29824",1,1,0,0,FALSE,"P_M_benet.png P_M_buji.png"
3568,"E_F_ilanit.png","P_M_gantz.png","FALSE","pictures/stimuli/E","pictures/stimuli/P","F","M","5",-0.194270159648449,"23","F","right","29824",1,1,0,0,FALSE,"E_F_ilanit.png P_M_gantz.png"
2192,"E_M_asi.png","P_F_shaked.png","FALSE","pictures/stimuli/E","pictures/stimuli/P","M","F","6",0.752174207869635,"23","F","right","29824",1,1,0,0,FALSE,"E_M_asi.png P_F_shaked.png"
1614,"E_M_danker.png","P_F_shaked.png","FALSE","pictures/stimuli/E","pictures/stimuli/P","M","F","6",0.752174207869635,"23","F","right","29824",1,1,0,0,FALSE,"E_M_danker.png P_F_shaked.png"
1918,"E_M_ido.png","P_F_michaeli.png","FALSE","pictures/stimuli/E","pictures/stimuli/P","M","F","6",0.752174207869635,"23","F","right","29824",1,1,0,0,FALSE,"E_M_ido.png P_F_michaeli.png"
1403,"E_F_shiri.png","E_M_ido.png","TRUE","pictures/stimuli/E","pictures/stimuli/E","F","M","6",0.752174207869635,"23","F","right","29824",1,1,0,0,FALSE,"E_F_shiri.png E_M_ido.png"
1551,"E_F_rotem_sela.png","P_M_gantz.png","FALSE","pictures/stimuli/E","pictures/stimuli/P","F","M","6",0.752174207869635,"23","F","right","29824",1,1,0,0,FALSE,"E_F_rotem_sela.png P_M_gantz.png"
1521,"E_M_ido.png","P_F_staiv.png","FALSE","pictures/stimuli/E","pictures/stimuli/P","M","F","6",0.752174207869635,"23","F","right","29824",1,1,0,0,FALSE,"E_M_ido.png P_F_staiv.png"
2019,"P_F_michaeli.png","P_M_buji.png","TRUE","pictures/stimuli/P","pictures/stimuli/P","F","M","6",0.752174207869635,"23","F","right","29824",1,1,0,0,FALSE,"P_F_michaeli.png P_M_buji.png"
1402,"E_F_galit_gutman.png","P_M_lapid.png","FALSE","pictures/stimuli/E","pictures/stimuli/P","F","M","6",0.752174207869635,"23","F","right","29824",1,1,0,0,FALSE,"E_F_galit_gutman.png P_M_lapid.png"
1856,"E_M_ido.png","P_M_gantz.png","FALSE","pictures/stimuli/E","pictures/stimuli/P","M","M","5",-0.194270159648449,"23","F","right","29824",1,1,0,0,FALSE,"E_M_ido.png P_M_gantz.png"
1845,"E_F_ninet.png","P_M_lapid.png","FALSE","pictures/stimuli/E","pictures/stimuli/P","F","M","6",0.752174207869635,"23","F","right","29824",1,1,0,0,FALSE,"E_F_ninet.png P_M_lapid.png"
1933,"E_M_danker.png","P_F_regev.png","FALSE","pictures/stimuli/E","pictures/stimuli/P","M","F","6",0.752174207869635,"23","F","right","29824",1,1,0,0,FALSE,"E_M_danker.png P_F_regev.png"
3451,"E_F_rotem_sela.png","E_M_asi.png","TRUE","pictures/stimuli/E","pictures/stimuli/E","F","M","6",0.752174207869635,"23","F","right","29824",1,1,0,0,FALSE,"E_F_rotem_sela.png E_M_asi.png"
2893,"E_F_shiri.png","P_F_regev.png","FALSE","pictures/stimuli/E","pictures/stimuli/P","F","F","5",-0.194270159648449,"23","F","right","29824",1,1,0,0,FALSE,"E_F_shiri.png P_F_regev.png"
2040,"P_M_buji.png","P_M_smut.png","TRUE","pictures/stimuli/P","pictures/stimuli/P","M","M","5",-0.194270159648449,"23","F","right","29824",1,1,0,0,FALSE,"P_M_buji.png P_M_smut.png"
2375,"E_M_danker.png","E_M_yuda.png","TRUE","pictures/stimuli/E","pictures/stimuli/E","M","M","4",-1.14071452716653,"23","F","right","29824",1,1,0,0,FALSE,"E_M_danker.png E_M_yuda.png"
1596,"P_F_regev.png","P_M_gantz.png","TRUE","pictures/stimuli/P","pictures/stimuli/P","F","M","6",0.752174207869635,"23","F","right","29824",1,1,0,0,FALSE,"P_F_regev.png P_M_gantz.png"
1501,"E_M_liorA.png","P_F_staiv.png","FALSE","pictures/stimuli/E","pictures/stimuli/P","M","F","6",0.752174207869635,"23","F","right","29824",1,1,0,0,FALSE,"E_M_liorA.png P_F_staiv.png"
10421,"P_F_shaked.png","P_M_gantz.png","TRUE","pictures/stimuli/P","pictures/stimuli/P","F","M","6",0.640980930796177,"24","F","right","28951",1,1,0,0,FALSE,"P_F_shaked.png P_M_gantz.png"
16724,"E_F_shiri.png","P_M_gantz.png","FALSE","pictures/stimuli/E","pictures/stimuli/P","F","M","6",0.640980930796177,"24","F","right","28951",1,1,0,0,FALSE,"E_F_shiri.png P_M_gantz.png"
5388,"E_M_ido.png","P_M_saar.png","FALSE","pictures/stimuli/E","pictures/stimuli/P","M","M","4",-1.21835306693319,"24","F","right","28951",0,1,0,0,TRUE,"E_M_ido.png P_M_saar.png"
4510,"E_F_rotem_sela.png","E_M_ido.png","TRUE","pictures/stimuli/E","pictures/stimuli/E","F","M","4",-1.21835306693319,"24","F","right","28951",1,0,0,0,TRUE,"E_F_rotem_sela.png E_M_ido.png"
15753,"P_M_buji.png","P_M_smut.png","TRUE","pictures/stimuli/P","pictures/stimuli/P","M","M","4",-1.21835306693319,"24","F","right","28951",1,1,0,0,FALSE,"P_M_buji.png P_M_smut.png"
2969,"P_M_benet.png","P_M_saar.png","TRUE","pictures/stimuli/P","pictures/stimuli/P","M","M","6",0.640980930796177,"24","F","right","28951",1,1,0,0,FALSE,"P_M_benet.png P_M_saar.png"
3546,"P_M_lapid.png","P_M_saar.png","TRUE","pictures/stimuli/P","pictures/stimuli/P","M","M","6",0.640980930796177,"24","F","right","28951",1,1,0,0,FALSE,"P_M_lapid.png P_M_saar.png"
5387,"E_F_shiri.png","P_F_staiv.png","FALSE","pictures/stimuli/E","pictures/stimuli/P","F","F","6",0.640980930796177,"24","F","right","28951",1,0,0,0,TRUE,"E_F_shiri.png P_F_staiv.png"
2371,"E_M_ido.png","P_F_regev.png","FALSE","pictures/stimuli/E","pictures/stimuli/P","M","F","6",0.640980930796177,"24","F","right","28951",0,0,0,0,TRUE,"E_M_ido.png P_F_regev.png"
3335,"E_M_danker.png","P_F_shaked.png","FALSE","pictures/stimuli/E","pictures/stimuli/P","M","F","6",0.640980930796177,"24","F","right","28951",1,1,0,0,FALSE,"E_M_danker.png P_F_shaked.png"
4153,"E_F_rotem_sela.png","P_F_shaked.png","FALSE","pictures/stimuli/E","pictures/stimuli/P","F","F","6",0.640980930796177,"24","F","right","28951",1,1,0,0,FALSE,"E_F_rotem_sela.png P_F_shaked.png"
3303,"P_M_saar.png","P_M_smut.png","TRUE","pictures/stimuli/P","pictures/stimuli/P","M","M","4",-1.21835306693319,"24","F","right","28951",1,1,0,0,FALSE,"P_M_saar.png P_M_smut.png"
3902,"E_M_ido.png","P_F_michaeli.png","FALSE","pictures/stimuli/E","pictures/stimuli/P","M","F","3",-2.14802006579788,"24","F","right","28951",0,1,0,0,TRUE,"E_M_ido.png P_F_michaeli.png"
2279,"E_F_rotem_sela.png","P_M_lapid.png","FALSE","pictures/stimuli/E","pictures/stimuli/P","F","M","6",0.640980930796177,"24","F","right","28951",1,1,0,0,FALSE,"E_F_rotem_sela.png P_M_lapid.png"
2438,"E_M_danker.png","P_F_staiv.png","FALSE","pictures/stimuli/E","pictures/stimuli/P","M","F","6",0.640980930796177,"24","F","right","28951",1,0,0,0,TRUE,"E_M_danker.png P_F_staiv.png"
5573,"E_M_ido.png","E_M_liorA.png","TRUE","pictures/stimuli/E","pictures/stimuli/E","M","M","4",-1.21835306693319,"24","F","right","28951",0,0,0,0,TRUE,"E_M_ido.png E_M_liorA.png"
6056,"E_M_yuda.png","P_M_lapid.png","FALSE","pictures/stimuli/E","pictures/stimuli/P","M","M","5",-0.288686068068508,"24","F","right","28951",1,1,0,0,FALSE,"E_M_yuda.png P_M_lapid.png"
4602,"E_F_rotem_sela.png","P_M_saar.png","FALSE","pictures/stimuli/E","pictures/stimuli/P","F","M","6",0.640980930796177,"24","F","right","28951",1,1,0,0,FALSE,"E_F_rotem_sela.png P_M_saar.png"
3542,"P_F_shaked.png","P_M_lapid.png","TRUE","pictures/stimuli/P","pictures/stimuli/P","F","M","6",0.640980930796177,"24","F","right","28951",1,1,0,0,FALSE,"P_F_shaked.png P_M_lapid.png"
3038,"E_F_ilanit.png","P_M_saar.png","FALSE","pictures/stimuli/E","pictures/stimuli/P","F","M","6",0.640980930796177,"24","F","right","28951",1,1,0,0,FALSE,"E_F_ilanit.png P_M_saar.png"
1977,"E_F_shiri.png","P_M_benet.png","FALSE","pictures/stimuli/E","pictures/stimuli/P","F","M","6",0.640980930796177,"24","F","right","28951",1,1,0,0,FALSE,"E_F_shiri.png P_M_benet.png"
6722,"E_F_galit_gutman.png","P_M_lapid.png","FALSE","pictures/stimuli/E","pictures/stimuli/P","F","M","4",-1.21835306693319,"24","F","right","28951",0,1,0,0,TRUE,"E_F_galit_gutman.png P_M_lapid.png"
1937,"E_M_ido.png","P_M_lapid.png","FALSE","pictures/stimuli/E","pictures/stimuli/P","M","M","6",0.640980930796177,"24","F","right","28951",0,1,0,0,TRUE,"E_M_ido.png P_M_lapid.png"
1369,"E_F_rotem_sela.png","E_M_danker.png","TRUE","pictures/stimuli/E","pictures/stimuli/E","F","M","6",0.640980930796177,"24","F","right","28951",1,1,0,0,FALSE,"E_F_rotem_sela.png E_M_danker.png"
2340,"E_F_galit_gutman.png","E_M_liorA.png","TRUE","pictures/stimuli/E","pictures/stimuli/E","F","M","6",0.640980930796177,"24","F","right","28951",0,0,0,0,TRUE,"E_F_galit_gutman.png E_M_liorA.png"
2464,"E_F_galit_gutman.png","E_M_danker.png","TRUE","pictures/stimuli/E","pictures/stimuli/E","F","M","6",0.640980930796177,"24","F","right","28951",0,1,0,0,TRUE,"E_F_galit_gutman.png E_M_danker.png"
2248,"E_M_asi.png","P_M_benet.png","FALSE","pictures/stimuli/E","pictures/stimuli/P","M","M","6",0.640980930796177,"24","F","right","28951",1,1,0,0,FALSE,"E_M_asi.png P_M_benet.png"
4357,"E_M_liorA.png","P_M_smut.png","FALSE","pictures/stimuli/E","pictures/stimuli/P","M","M","4",-1.21835306693319,"24","F","right","28951",0,1,0,0,TRUE,"E_M_liorA.png P_M_smut.png"
2531,"E_M_ido.png","P_F_shaked.png","FALSE","pictures/stimuli/E","pictures/stimuli/P","M","F","6",0.640980930796177,"24","F","right","28951",0,1,0,0,TRUE,"E_M_ido.png P_F_shaked.png"
2115,"E_M_ido.png","P_F_staiv.png","FALSE","pictures/stimuli/E","pictures/stimuli/P","M","F","6",0.640980930796177,"24","F","right","28951",0,0,0,0,TRUE,"E_M_ido.png P_F_staiv.png"
1717,"E_F_ilanit.png","P_M_gantz.png","FALSE","pictures/stimuli/E","pictures/stimuli/P","F","M","6",0.640980930796177,"24","F","right","28951",1,1,0,0,FALSE,"E_F_ilanit.png P_M_gantz.png"
2438,"P_F_regev.png","P_M_lapid.png","TRUE","pictures/stimuli/P","pictures/stimuli/P","F","M","6",0.640980930796177,"24","F","right","28951",0,1,0,0,TRUE,"P_F_regev.png P_M_lapid.png"
6590,"E_M_asi.png","P_F_regev.png","FALSE","pictures/stimuli/E","pictures/stimuli/P","M","F","4",-1.21835306693319,"24","F","right","28951",1,0,0,0,TRUE,"E_M_asi.png P_F_regev.png"
6247,"E_F_galit_gutman.png","E_M_ido.png","TRUE","pictures/stimuli/E","pictures/stimuli/E","F","M","3",-2.14802006579788,"24","F","right","28951",0,0,0,0,TRUE,"E_F_galit_gutman.png E_M_ido.png"
2400,"E_M_yuda.png","P_M_smut.png","FALSE","pictures/stimuli/E","pictures/stimuli/P","M","M","5",-0.288686068068508,"24","F","right","28951",1,1,0,0,FALSE,"E_M_yuda.png P_M_smut.png"
2032,"P_F_regev.png","P_M_saar.png","TRUE","pictures/stimuli/P","pictures/stimuli/P","F","M","6",0.640980930796177,"24","F","right","28951",0,1,0,0,TRUE,"P_F_regev.png P_M_saar.png"
1560,"E_F_shiri.png","P_F_michaeli.png","FALSE","pictures/stimuli/E","pictures/stimuli/P","F","F","6",0.640980930796177,"24","F","right","28951",1,1,0,0,FALSE,"E_F_shiri.png P_F_michaeli.png"
2151,"E_M_danker.png","P_M_saar.png","FALSE","pictures/stimuli/E","pictures/stimuli/P","M","M","6",0.640980930796177,"24","F","right","28951",1,1,0,0,FALSE,"E_M_danker.png P_M_saar.png"
1416,"E_F_rotem_sela.png","E_M_asi.png","TRUE","pictures/stimuli/E","pictures/stimuli/E","F","M","6",0.640980930796177,"24","F","right","28951",1,1,0,0,FALSE,"E_F_rotem_sela.png E_M_asi.png"
1656,"E_M_asi.png","P_M_saar.png","FALSE","pictures/stimuli/E","pictures/stimuli/P","M","M","6",0.640980930796177,"24","F","right","28951",1,1,0,0,FALSE,"E_M_asi.png P_M_saar.png"
2553,"E_F_ilanit.png","P_F_shaked.png","FALSE","pictures/stimuli/E","pictures/stimuli/P","F","F","5",-0.288686068068508,"24","F","right","28951",1,1,0,0,FALSE,"E_F_ilanit.png P_F_shaked.png"
1330,"P_F_staiv.png","P_M_buji.png","TRUE","pictures/stimuli/P","pictures/stimuli/P","F","M","6",0.640980930796177,"24","F","right","28951",0,1,0,0,TRUE,"P_F_staiv.png P_M_buji.png"
1306,"E_F_ilanit.png","E_M_danker.png","TRUE","pictures/stimuli/E","pictures/stimuli/E","F","M","6",0.640980930796177,"24","F","right","28951",1,1,0,0,FALSE,"E_F_ilanit.png E_M_danker.png"
2257,"P_F_staiv.png","P_M_lapid.png","TRUE","pictures/stimuli/P","pictures/stimuli/P","F","M","6",0.640980930796177,"24","F","right","28951",0,1,0,0,TRUE,"P_F_staiv.png P_M_lapid.png"
3217,"E_F_shiri.png","P_F_shaked.png","FALSE","pictures/stimuli/E","pictures/stimuli/P","F","F","3",-2.14802006579788,"24","F","right","28951",1,1,0,0,FALSE,"E_F_shiri.png P_F_shaked.png"
2209,"E_F_ilanit.png","P_M_smut.png","FALSE","pictures/stimuli/E","pictures/stimuli/P","F","M","6",0.640980930796177,"24","F","right","28951",1,1,0,0,FALSE,"E_F_ilanit.png P_M_smut.png"
2771,"E_M_liorA.png","E_M_yuda.png","TRUE","pictures/stimuli/E","pictures/stimuli/E","M","M","3",-2.14802006579788,"24","F","right","28951",0,1,0,0,TRUE,"E_M_liorA.png E_M_yuda.png"
5249,"E_F_ninet.png","E_M_ido.png","TRUE","pictures/stimuli/E","pictures/stimuli/E","F","M","6",0.640980930796177,"24","F","right","28951",1,0,0,0,TRUE,"E_F_ninet.png E_M_ido.png"
2232,"E_M_yuda.png","P_M_saar.png","FALSE","pictures/stimuli/E","pictures/stimuli/P","M","M","6",0.640980930796177,"24","F","right","28951",1,1,0,0,FALSE,"E_M_yuda.png P_M_saar.png"
7570,"P_M_buji.png","P_M_saar.png","TRUE","pictures/stimuli/P","pictures/stimuli/P","M","M","3",-2.14802006579788,"24","F","right","28951",1,1,0,0,FALSE,"P_M_buji.png P_M_saar.png"
2172,"P_M_lapid.png","P_M_buji.png","TRUE","pictures/stimuli/P","pictures/stimuli/P","M","M","6",0.640980930796177,"24","F","right","28951",1,1,0,0,FALSE,"P_M_buji.png P_M_lapid.png"
1860,"E_F_ilanit.png","P_F_michaeli.png","FALSE","pictures/stimuli/E","pictures/stimuli/P","F","F","6",0.640980930796177,"24","F","right","28951",1,1,0,0,FALSE,"E_F_ilanit.png P_F_michaeli.png"
4880,"E_F_rotem_sela.png","P_F_staiv.png","FALSE","pictures/stimuli/E","pictures/stimuli/P","F","F","5",-0.288686068068508,"24","F","right","28951",1,0,0,0,TRUE,"E_F_rotem_sela.png P_F_staiv.png"
2580,"P_F_michaeli.png","P_F_regev.png","TRUE","pictures/stimuli/P","pictures/stimuli/P","F","F","6",0.640980930796177,"24","F","right","28951",1,0,0,0,TRUE,"P_F_michaeli.png P_F_regev.png"
1388,"E_M_liorA.png","P_M_benet.png","FALSE","pictures/stimuli/E","pictures/stimuli/P","M","M","6",0.640980930796177,"24","F","right","28951",0,1,0,0,TRUE,"E_M_liorA.png P_M_benet.png"
1402,"P_F_shaked.png","P_M_saar.png","TRUE","pictures/stimuli/P","pictures/stimuli/P","F","M","6",0.640980930796177,"24","F","right","28951",1,1,0,0,FALSE,"P_F_shaked.png P_M_saar.png"
4496,"E_F_ninet.png","P_F_michaeli.png","FALSE","pictures/stimuli/E","pictures/stimuli/P","F","F","4",-1.21835306693319,"24","F","right","28951",1,1,0,0,FALSE,"E_F_ninet.png P_F_michaeli.png"
1877,"E_F_galit_gutman.png","P_M_smut.png","FALSE","pictures/stimuli/E","pictures/stimuli/P","F","M","6",0.640980930796177,"24","F","right","28951",0,1,0,0,TRUE,"E_F_galit_gutman.png P_M_smut.png"
1982,"E_F_shiri.png","P_M_smut.png","FALSE","pictures/stimuli/E","pictures/stimuli/P","F","M","6",0.640980930796177,"24","F","right","28951",1,1,0,0,FALSE,"E_F_shiri.png P_M_smut.png"
3730,"E_M_danker.png","P_F_michaeli.png","FALSE","pictures/stimuli/E","pictures/stimuli/P","M","F","5",-0.288686068068508,"24","F","right","28951",1,1,0,0,FALSE,"E_M_danker.png P_F_michaeli.png"
3353,"E_F_galit_gutman.png","E_F_ilanit.png","TRUE","pictures/stimuli/E","pictures/stimuli/E","F","F","6",0.640980930796177,"24","F","right","28951",0,1,0,0,TRUE,"E_F_galit_gutman.png E_F_ilanit.png"
1796,"E_F_ilanit.png","E_F_rotem_sela.png","TRUE","pictures/stimuli/E","pictures/stimuli/E","F","F","6",0.640980930796177,"24","F","right","28951",1,1,0,0,FALSE,"E_F_ilanit.png E_F_rotem_sela.png"
1352,"E_M_danker.png","P_M_gantz.png","FALSE","pictures/stimuli/E","pictures/stimuli/P","M","M","6",0.640980930796177,"24","F","right","28951",1,1,0,0,FALSE,"E_M_danker.png P_M_gantz.png"
1716,"E_F_ninet.png","P_M_lapid.png","FALSE","pictures/stimuli/E","pictures/stimuli/P","F","M","6",0.640980930796177,"24","F","right","28951",1,1,0,0,FALSE,"E_F_ninet.png P_M_lapid.png"
2621,"P_M_lapid.png","P_M_smut.png","TRUE","pictures/stimuli/P","pictures/stimuli/P","M","M","4",-1.21835306693319,"24","F","right","28951",1,1,0,0,FALSE,"P_M_lapid.png P_M_smut.png"
2270,"E_M_asi.png","P_M_buji.png","FALSE","pictures/stimuli/E","pictures/stimuli/P","M","M","6",0.640980930796177,"24","F","right","28951",1,1,0,0,FALSE,"E_M_asi.png P_M_buji.png"
2032,"P_F_shaked.png","P_M_smut.png","TRUE","pictures/stimuli/P","pictures/stimuli/P","F","M","6",0.640980930796177,"24","F","right","28951",1,1,0,0,FALSE,"P_F_shaked.png P_M_smut.png"
2864,"P_M_gantz.png","P_M_lapid.png","TRUE","pictures/stimuli/P","pictures/stimuli/P","M","M","6",0.640980930796177,"24","F","right","28951",1,1,0,0,FALSE,"P_M_gantz.png P_M_lapid.png"
5038,"P_F_regev.png","P_M_buji.png","TRUE","pictures/stimuli/P","pictures/stimuli/P","F","M","4",-1.21835306693319,"24","F","right","28951",0,1,0,0,TRUE,"P_F_regev.png P_M_buji.png"
2502,"E_F_galit_gutman.png","P_F_shaked.png","FALSE","pictures/stimuli/E","pictures/stimuli/P","F","F","6",0.640980930796177,"24","F","right","28951",0,1,0,0,TRUE,"E_F_galit_gutman.png P_F_shaked.png"
1511,"P_M_gantz.png","P_M_benet.png","TRUE","pictures/stimuli/P","pictures/stimuli/P","M","M","6",0.640980930796177,"24","F","right","28951",1,1,0,0,FALSE,"P_M_benet.png P_M_gantz.png"
1620,"E_F_rotem_sela.png","P_M_gantz.png","FALSE","pictures/stimuli/E","pictures/stimuli/P","F","M","6",0.640980930796177,"24","F","right","28951",1,1,0,0,FALSE,"E_F_rotem_sela.png P_M_gantz.png"
2351,"E_M_danker.png","P_M_buji.png","FALSE","pictures/stimuli/E","pictures/stimuli/P","M","M","6",0.640980930796177,"24","F","right","28951",1,1,0,0,FALSE,"E_M_danker.png P_M_buji.png"
3461,"E_F_ilanit.png","P_F_staiv.png","FALSE","pictures/stimuli/E","pictures/stimuli/P","F","F","6",0.640980930796177,"24","F","right","28951",1,0,0,0,TRUE,"E_F_ilanit.png P_F_staiv.png"
2032,"E_F_ilanit.png","E_M_asi.png","TRUE","pictures/stimuli/E","pictures/stimuli/E","F","M","6",0.640980930796177,"24","F","right","28951",1,1,0,0,FALSE,"E_F_ilanit.png E_M_asi.png"
2062,"E_M_liorA.png","P_M_buji.png","FALSE","pictures/stimuli/E","pictures/stimuli/P","M","M","6",0.640980930796177,"24","F","right","28951",0,1,0,0,TRUE,"E_M_liorA.png P_M_buji.png"
2114,"E_F_ninet.png","E_F_rotem_sela.png","TRUE","pictures/stimuli/E","pictures/stimuli/E","F","F","6",0.640980930796177,"24","F","right","28951",1,1,0,0,FALSE,"E_F_ninet.png E_F_rotem_sela.png"
1274,"E_F_ilanit.png","P_M_lapid.png","FALSE","pictures/stimuli/E","pictures/stimuli/P","F","M","6",0.640980930796177,"24","F","right","28951",1,1,0,0,FALSE,"E_F_ilanit.png P_M_lapid.png"
3695,"E_M_danker.png","E_M_liorA.png","TRUE","pictures/stimuli/E","pictures/stimuli/E","M","M","5",-0.288686068068508,"24","F","right","28951",1,0,0,0,TRUE,"E_M_danker.png E_M_liorA.png"
2351,"E_F_galit_gutman.png","P_M_gantz.png","FALSE","pictures/stimuli/E","pictures/stimuli/P","F","M","6",0.640980930796177,"24","F","right","28951",0,1,0,0,TRUE,"E_F_galit_gutman.png P_M_gantz.png"
2773,"E_M_liorA.png","P_F_regev.png","FALSE","pictures/stimuli/E","pictures/stimuli/P","M","F","6",0.640980930796177,"24","F","right","28951",0,0,0,0,TRUE,"E_M_liorA.png P_F_regev.png"
1664,"E_F_galit_gutman.png","E_F_rotem_sela.png","TRUE","pictures/stimuli/E","pictures/stimuli/E","F","F","4",-1.21835306693319,"24","F","right","28951",0,1,0,0,TRUE,"E_F_galit_gutman.png E_F_rotem_sela.png"
2373,"E_M_asi.png","E_M_danker.png","TRUE","pictures/stimuli/E","pictures/stimuli/E","M","M","6",0.640980930796177,"24","F","right","28951",1,1,0,0,FALSE,"E_M_asi.png E_M_danker.png"
2092,"P_F_shaked.png","P_M_benet.png","TRUE","pictures/stimuli/P","pictures/stimuli/P","F","M","6",0.640980930796177,"24","F","right","28951",1,1,0,0,FALSE,"P_F_shaked.png P_M_benet.png"
1600,"E_M_danker.png","P_M_benet.png","FALSE","pictures/stimuli/E","pictures/stimuli/P","M","M","6",0.640980930796177,"24","F","right","28951",1,1,0,0,FALSE,"E_M_danker.png P_M_benet.png"
1340,"E_F_shiri.png","P_M_saar.png","FALSE","pictures/stimuli/E","pictures/stimuli/P","F","M","6",0.640980930796177,"24","F","right","28951",1,1,0,0,FALSE,"E_F_shiri.png P_M_saar.png"
1614,"P_F_michaeli.png","P_M_saar.png","TRUE","pictures/stimuli/P","pictures/stimuli/P","F","M","6",0.640980930796177,"24","F","right","28951",1,1,0,0,FALSE,"P_F_michaeli.png P_M_saar.png"
2671,"E_M_yuda.png","P_M_benet.png","FALSE","pictures/stimuli/E","pictures/stimuli/P","M","M","6",0.640980930796177,"24","F","right","28951",1,1,0,0,FALSE,"E_M_yuda.png P_M_benet.png"
3014,"P_F_shaked.png","P_M_buji.png","TRUE","pictures/stimuli/P","pictures/stimuli/P","F","M","6",0.640980930796177,"24","F","right","28951",1,1,0,0,FALSE,"P_F_shaked.png P_M_buji.png"
2821,"P_M_lapid.png","P_M_benet.png","TRUE","pictures/stimuli/P","pictures/stimuli/P","M","M","6",0.640980930796177,"24","F","right","28951",1,1,0,0,FALSE,"P_M_benet.png P_M_lapid.png"
2061,"E_M_liorA.png","P_M_gantz.png","FALSE","pictures/stimuli/E","pictures/stimuli/P","M","M","6",0.640980930796177,"24","F","right","28951",0,1,0,0,TRUE,"E_M_liorA.png P_M_gantz.png"
1999,"E_M_asi.png","P_M_gantz.png","FALSE","pictures/stimuli/E","pictures/stimuli/P","M","M","6",0.640980930796177,"24","F","right","28951",1,1,0,0,FALSE,"E_M_asi.png P_M_gantz.png"
1732,"P_F_regev.png","P_M_smut.png","TRUE","pictures/stimuli/P","pictures/stimuli/P","F","M","6",0.640980930796177,"24","F","right","28951",0,1,0,0,TRUE,"P_F_regev.png P_M_smut.png"
2885,"E_F_ninet.png","P_F_staiv.png","FALSE","pictures/stimuli/E","pictures/stimuli/P","F","F","6",0.640980930796177,"24","F","right","28951",1,0,0,0,TRUE,"E_F_ninet.png P_F_staiv.png"
4120,"E_F_shiri.png","P_F_regev.png","FALSE","pictures/stimuli/E","pictures/stimuli/P","F","F","5",-0.288686068068508,"24","F","right","28951",1,0,0,0,TRUE,"E_F_shiri.png P_F_regev.png"
5214,"E_F_ilanit.png","E_M_liorA.png","TRUE","pictures/stimuli/E","pictures/stimuli/E","F","M","4",-1.21835306693319,"24","F","right","28951",1,0,0,0,TRUE,"E_F_ilanit.png E_M_liorA.png"
7383,"E_M_asi.png","E_M_ido.png","TRUE","pictures/stimuli/E","pictures/stimuli/E","M","M","4",-1.21835306693319,"24","F","right","28951",1,0,0,0,TRUE,"E_M_asi.png E_M_ido.png"
4792,"E_F_shiri.png","E_M_asi.png","TRUE","pictures/stimuli/E","pictures/stimuli/E","F","M","5",-0.288686068068508,"24","F","right","28951",1,1,0,0,FALSE,"E_F_shiri.png E_M_asi.png"
2093,"E_F_galit_gutman.png","P_M_benet.png","FALSE","pictures/stimuli/E","pictures/stimuli/P","F","M","6",0.640980930796177,"24","F","right","28951",0,1,0,0,TRUE,"E_F_galit_gutman.png P_M_benet.png"
3543,"E_F_ilanit.png","P_M_buji.png","FALSE","pictures/stimuli/E","pictures/stimuli/P","F","M","5",-0.288686068068508,"24","F","right","28951",1,1,0,0,FALSE,"E_F_ilanit.png P_M_buji.png"
4550,"E_F_shiri.png","E_M_ido.png","TRUE","pictures/stimuli/E","pictures/stimuli/E","F","M","6",0.640980930796177,"24","F","right","28951",1,0,0,0,TRUE,"E_F_shiri.png E_M_ido.png"
2924,"E_F_ninet.png","E_M_yuda.png","TRUE","pictures/stimuli/E","pictures/stimuli/E","F","M","3",-2.14802006579788,"24","F","right","28951",1,1,0,0,FALSE,"E_F_ninet.png E_M_yuda.png"
3270,"P_F_michaeli.png","P_M_lapid.png","TRUE","pictures/stimuli/P","pictures/stimuli/P","F","M","4",-1.21835306693319,"24","F","right","28951",1,1,0,0,FALSE,"P_F_michaeli.png P_M_lapid.png"
1991,"E_M_yuda.png","P_M_gantz.png","FALSE","pictures/stimuli/E","pictures/stimuli/P","M","M","6",0.640980930796177,"24","F","right","28951",1,1,0,0,FALSE,"E_M_yuda.png P_M_gantz.png"
2477,"E_F_galit_gutman.png","P_M_saar.png","FALSE","pictures/stimuli/E","pictures/stimuli/P","F","M","6",0.640980930796177,"24","F","right","28951",0,1,0,0,TRUE,"E_F_galit_gutman.png P_M_saar.png"
2867,"P_F_regev.png","P_F_shaked.png","TRUE","pictures/stimuli/P","pictures/stimuli/P","F","F","2",-3.07768706466256,"24","F","right","28951",0,1,0,0,TRUE,"P_F_regev.png P_F_shaked.png"
2745,"E_F_ninet.png","P_F_shaked.png","FALSE","pictures/stimuli/E","pictures/stimuli/P","F","F","3",-2.14802006579788,"24","F","right","28951",1,1,0,0,FALSE,"E_F_ninet.png P_F_shaked.png"
1944,"E_F_galit_gutman.png","P_M_buji.png","FALSE","pictures/stimuli/E","pictures/stimuli/P","F","M","6",0.640980930796177,"24","F","right","28951",0,1,0,0,TRUE,"E_F_galit_gutman.png P_M_buji.png"
3204,"E_M_yuda.png","P_F_regev.png","FALSE","pictures/stimuli/E","pictures/stimuli/P","M","F","5",-0.288686068068508,"24","F","right","28951",1,0,0,0,TRUE,"E_M_yuda.png P_F_regev.png"
2478,"E_M_liorA.png","P_M_saar.png","FALSE","pictures/stimuli/E","pictures/stimuli/P","M","M","3",-2.14802006579788,"24","F","right","28951",0,1,0,0,TRUE,"E_M_liorA.png P_M_saar.png"
1911,"P_F_staiv.png","P_M_saar.png","TRUE","pictures/stimuli/P","pictures/stimuli/P","F","M","6",0.640980930796177,"24","F","right","28951",0,1,0,0,TRUE,"P_F_staiv.png P_M_saar.png"
1801,"E_F_galit_gutman.png","E_M_asi.png","TRUE","pictures/stimuli/E","pictures/stimuli/E","F","M","6",0.640980930796177,"24","F","right","28951",0,1,0,0,TRUE,"E_F_galit_gutman.png E_M_asi.png"
1591,"E_M_liorA.png","P_F_shaked.png","FALSE","pictures/stimuli/E","pictures/stimuli/P","M","F","6",0.640980930796177,"24","F","right","28951",0,1,0,0,TRUE,"E_M_liorA.png P_F_shaked.png"
1806,"P_F_staiv.png","P_M_smut.png","TRUE","pictures/stimuli/P","pictures/stimuli/P","F","M","6",0.640980930796177,"24","F","right","28951",0,1,0,0,TRUE,"P_F_staiv.png P_M_smut.png"
1948,"E_F_ninet.png","E_M_danker.png","TRUE","pictures/stimuli/E","pictures/stimuli/E","F","M","6",0.640980930796177,"24","F","right","28951",1,1,0,0,FALSE,"E_F_ninet.png E_M_danker.png"
2371,"E_M_ido.png","P_M_buji.png","FALSE","pictures/stimuli/E","pictures/stimuli/P","M","M","6",0.640980930796177,"24","F","right","28951",0,1,0,0,TRUE,"E_M_ido.png P_M_buji.png"
3763,"E_F_rotem_sela.png","P_F_regev.png","FALSE","pictures/stimuli/E","pictures/stimuli/P","F","F","4",-1.21835306693319,"24","F","right","28951",1,0,0,0,TRUE,"E_F_rotem_sela.png P_F_regev.png"
2557,"E_M_yuda.png","P_M_buji.png","FALSE","pictures/stimuli/E","pictures/stimuli/P","M","M","3",-2.14802006579788,"24","F","right","28951",1,1,0,0,FALSE,"E_M_yuda.png P_M_buji.png"
1636,"E_F_ninet.png","P_M_benet.png","FALSE","pictures/stimuli/E","pictures/stimuli/P","F","M","6",0.640980930796177,"24","F","right","28951",1,1,0,0,FALSE,"E_F_ninet.png P_M_benet.png"
2220,"E_M_ido.png","P_M_benet.png","FALSE","pictures/stimuli/E","pictures/stimuli/P","M","M","6",0.640980930796177,"24","F","right","28951",0,1,0,0,TRUE,"E_M_ido.png P_M_benet.png"
4278,"E_F_rotem_sela.png","P_F_michaeli.png","FALSE","pictures/stimuli/E","pictures/stimuli/P","F","F","3",-2.14802006579788,"24","F","right","28951",1,1,0,0,FALSE,"E_F_rotem_sela.png P_F_michaeli.png"
4771,"E_M_yuda.png","P_F_shaked.png","FALSE","pictures/stimuli/E","pictures/stimuli/P","M","F","5",-0.288686068068508,"24","F","right","28951",1,1,0,0,FALSE,"E_M_yuda.png P_F_shaked.png"
4041,"E_F_ilanit.png","E_M_ido.png","TRUE","pictures/stimuli/E","pictures/stimuli/E","F","M","6",0.640980930796177,"24","F","right","28951",1,0,0,0,TRUE,"E_F_ilanit.png E_M_ido.png"
2504,"E_F_ilanit.png","E_M_yuda.png","TRUE","pictures/stimuli/E","pictures/stimuli/E","F","M","6",0.640980930796177,"24","F","right","28951",1,1,0,0,FALSE,"E_F_ilanit.png E_M_yuda.png"
2443,"E_F_shiri.png","E_M_danker.png","TRUE","pictures/stimuli/E","pictures/stimuli/E","F","M","6",0.640980930796177,"24","F","right","28951",1,1,0,0,FALSE,"E_F_shiri.png E_M_danker.png"
2579,"P_F_shaked.png","P_F_staiv.png","TRUE","pictures/stimuli/P","pictures/stimuli/P","F","F","4",-1.21835306693319,"24","F","right","28951",1,0,0,0,TRUE,"P_F_shaked.png P_F_staiv.png"
3333,"P_M_benet.png","P_M_smut.png","TRUE","pictures/stimuli/P","pictures/stimuli/P","M","M","6",0.640980930796177,"24","F","right","28951",1,1,0,0,FALSE,"P_M_benet.png P_M_smut.png"
2512,"E_F_shiri.png","E_M_liorA.png","TRUE","pictures/stimuli/E","pictures/stimuli/E","F","M","4",-1.21835306693319,"24","F","right","28951",1,0,0,0,TRUE,"E_F_shiri.png E_M_liorA.png"
2339,"E_F_shiri.png","P_M_buji.png","FALSE","pictures/stimuli/E","pictures/stimuli/P","F","M","6",0.640980930796177,"24","F","right","28951",1,1,0,0,FALSE,"E_F_shiri.png P_M_buji.png"
4396,"E_M_danker.png","E_M_yuda.png","TRUE","pictures/stimuli/E","pictures/stimuli/E","M","M","2",-3.07768706466256,"24","F","right","28951",1,1,0,0,FALSE,"E_M_danker.png E_M_yuda.png"
3536,"E_F_ninet.png","P_M_saar.png","FALSE","pictures/stimuli/E","pictures/stimuli/P","F","M","5",-0.288686068068508,"24","F","right","28951",1,1,0,0,FALSE,"E_F_ninet.png P_M_saar.png"
4581,"E_M_asi.png","E_M_liorA.png","TRUE","pictures/stimuli/E","pictures/stimuli/E","M","M","6",0.640980930796177,"24","F","right","28951",1,0,0,0,TRUE,"E_M_asi.png E_M_liorA.png"
3224,"E_F_ilanit.png","E_F_shiri.png","TRUE","pictures/stimuli/E","pictures/stimuli/E","F","F","3",-2.14802006579788,"24","F","right","28951",1,1,0,0,FALSE,"E_F_ilanit.png E_F_shiri.png"
2592,"E_F_ninet.png","E_M_asi.png","TRUE","pictures/stimuli/E","pictures/stimuli/E","F","M","5",-0.288686068068508,"24","F","right","28951",1,1,0,0,FALSE,"E_F_ninet.png E_M_asi.png"
2420,"P_F_staiv.png","P_M_gantz.png","TRUE","pictures/stimuli/P","pictures/stimuli/P","F","M","6",0.640980930796177,"24","F","right","28951",0,1,0,0,TRUE,"P_F_staiv.png P_M_gantz.png"
3421,"P_M_gantz.png","P_M_saar.png","TRUE","pictures/stimuli/P","pictures/stimuli/P","M","M","6",0.640980930796177,"24","F","right","28951",1,1,0,0,FALSE,"P_M_gantz.png P_M_saar.png"
2283,"E_F_rotem_sela.png","P_M_smut.png","FALSE","pictures/stimuli/E","pictures/stimuli/P","F","M","6",0.640980930796177,"24","F","right","28951",1,1,0,0,FALSE,"E_F_rotem_sela.png P_M_smut.png"
1916,"E_F_rotem_sela.png","P_M_buji.png","FALSE","pictures/stimuli/E","pictures/stimuli/P","F","M","6",0.640980930796177,"24","F","right","28951",1,1,0,0,FALSE,"E_F_rotem_sela.png P_M_buji.png"
2013,"P_F_regev.png","P_F_staiv.png","TRUE","pictures/stimuli/P","pictures/stimuli/P","F","F","4",-1.21835306693319,"24","F","right","28951",0,0,0,0,TRUE,"P_F_regev.png P_F_staiv.png"
3046,"E_M_liorA.png","P_M_lapid.png","FALSE","pictures/stimuli/E","pictures/stimuli/P","M","M","4",-1.21835306693319,"24","F","right","28951",0,1,0,0,TRUE,"E_M_liorA.png P_M_lapid.png"
1880,"E_F_rotem_sela.png","P_M_benet.png","FALSE","pictures/stimuli/E","pictures/stimuli/P","F","M","6",0.640980930796177,"24","F","right","28951",1,1,0,0,FALSE,"E_F_rotem_sela.png P_M_benet.png"
1650,"E_F_ilanit.png","P_M_benet.png","FALSE","pictures/stimuli/E","pictures/stimuli/P","F","M","6",0.640980930796177,"24","F","right","28951",1,1,0,0,FALSE,"E_F_ilanit.png P_M_benet.png"
2715,"E_M_ido.png","P_M_smut.png","FALSE","pictures/stimuli/E","pictures/stimuli/P","M","M","3",-2.14802006579788,"24","F","right","28951",0,1,0,0,TRUE,"E_M_ido.png P_M_smut.png"
2642,"E_M_yuda.png","P_F_staiv.png","FALSE","pictures/stimuli/E","pictures/stimuli/P","M","F","6",0.640980930796177,"24","F","right","28951",1,0,0,0,TRUE,"E_M_yuda.png P_F_staiv.png"
1631,"P_F_michaeli.png","P_M_benet.png","TRUE","pictures/stimuli/P","pictures/stimuli/P","F","M","6",0.640980930796177,"24","F","right","28951",1,1,0,0,FALSE,"P_F_michaeli.png P_M_benet.png"
1496,"P_F_regev.png","P_M_gantz.png","TRUE","pictures/stimuli/P","pictures/stimuli/P","F","M","6",0.640980930796177,"24","F","right","28951",0,1,0,0,TRUE,"P_F_regev.png P_M_gantz.png"
1653,"P_F_staiv.png","P_M_benet.png","TRUE","pictures/stimuli/P","pictures/stimuli/P","F","M","6",0.640980930796177,"24","F","right","28951",0,1,0,0,TRUE,"P_F_staiv.png P_M_benet.png"
1908,"E_M_ido.png","E_M_yuda.png","TRUE","pictures/stimuli/E","pictures/stimuli/E","M","M","3",-2.14802006579788,"24","F","right","28951",0,1,0,0,TRUE,"E_M_ido.png E_M_yuda.png"
2262,"E_F_galit_gutman.png","E_M_yuda.png","TRUE","pictures/stimuli/E","pictures/stimuli/E","F","M","4",-1.21835306693319,"24","F","right","28951",0,1,0,0,TRUE,"E_F_galit_gutman.png E_M_yuda.png"
3436,"E_M_danker.png","P_F_regev.png","FALSE","pictures/stimuli/E","pictures/stimuli/P","M","F","6",0.640980930796177,"24","F","right","28951",1,0,0,0,TRUE,"E_M_danker.png P_F_regev.png"
3170,"E_F_ninet.png","E_M_liorA.png","TRUE","pictures/stimuli/E","pictures/stimuli/E","F","M","6",0.640980930796177,"24","F","right","28951",1,0,0,0,TRUE,"E_F_ninet.png E_M_liorA.png"
2333,"E_M_ido.png","P_M_gantz.png","FALSE","pictures/stimuli/E","pictures/stimuli/P","M","M","6",0.640980930796177,"24","F","right","28951",0,1,0,0,TRUE,"E_M_ido.png P_M_gantz.png"
