"RT","img_1","img_2","isSameProffesion","img1proffesion","img2proffesion","img1Gender","img2Gender","keyPressed","normlised_keyPress","age","gender","handedness","participant","isFamiliar_img1","isFamiliar_img2","vividness_img1","vividness_img2","reject_trial","pair"
6761,"E_M_liorA.png","P_F_regev.png","FALSE","pictures/stimuli/E","pictures/stimuli/P","M","F","3",-1.25113002798432,"23","F","right","8920",1,1,2,1,FALSE,"E_M_liorA.png P_F_regev.png"
4980,"P_F_regev.png","P_F_staiv.png","TRUE","pictures/stimuli/P","pictures/stimuli/P","F","F","6",1.07940629865314,"23","F","right","8920",1,1,1,2,FALSE,"P_F_regev.png P_F_staiv.png"
5142,"P_F_michaeli.png","P_M_saar.png","TRUE","pictures/stimuli/P","pictures/stimuli/P","F","M","3",-1.25113002798432,"23","F","right","8920",1,1,2,3,FALSE,"P_F_michaeli.png P_M_saar.png"
5728,"E_F_rotem_sela.png","E_M_asi.png","TRUE","pictures/stimuli/E","pictures/stimuli/E","F","M","4",-0.474284585771834,"23","F","right","8920",1,1,1,1,FALSE,"E_F_rotem_sela.png E_M_asi.png"
7396,"E_F_ilanit.png","E_M_ido.png","TRUE","pictures/stimuli/E","pictures/stimuli/E","F","M","4",-0.474284585771834,"23","F","right","8920",1,1,1,2,FALSE,"E_F_ilanit.png E_M_ido.png"
4150,"E_M_ido.png","E_M_yuda.png","TRUE","pictures/stimuli/E","pictures/stimuli/E","M","M","2",-2.02797547019681,"23","F","right","8920",1,1,2,1,FALSE,"E_M_ido.png E_M_yuda.png"
6363,"E_F_ninet.png","P_M_benet.png","FALSE","pictures/stimuli/E","pictures/stimuli/P","F","M","5",0.302560856440653,"23","F","right","8920",1,1,2,1,FALSE,"E_F_ninet.png P_M_benet.png"
4685,"E_F_rotem_sela.png","P_F_shaked.png","FALSE","pictures/stimuli/E","pictures/stimuli/P","F","F","3",-1.25113002798432,"23","F","right","8920",1,1,1,1,FALSE,"E_F_rotem_sela.png P_F_shaked.png"
5621,"P_M_gantz.png","P_M_buji.png","TRUE","pictures/stimuli/P","pictures/stimuli/P","M","M","4",-0.474284585771834,"23","F","right","8920",1,1,1,2,FALSE,"P_M_buji.png P_M_gantz.png"
3953,"E_F_ilanit.png","P_M_buji.png","FALSE","pictures/stimuli/E","pictures/stimuli/P","F","M","6",1.07940629865314,"23","F","right","8920",1,1,1,2,FALSE,"E_F_ilanit.png P_M_buji.png"
6987,"E_F_ninet.png","E_M_asi.png","TRUE","pictures/stimuli/E","pictures/stimuli/E","F","M","5",0.302560856440653,"23","F","right","8920",1,1,2,1,FALSE,"E_F_ninet.png E_M_asi.png"
4693,"E_F_shiri.png","P_M_benet.png","FALSE","pictures/stimuli/E","pictures/stimuli/P","F","M","6",1.07940629865314,"23","F","right","8920",1,1,1,1,FALSE,"E_F_shiri.png P_M_benet.png"
3182,"E_F_galit_gutman.png","P_F_regev.png","FALSE","pictures/stimuli/E","pictures/stimuli/P","F","F","6",1.07940629865314,"23","F","right","8920",1,1,3,1,FALSE,"E_F_galit_gutman.png P_F_regev.png"
6112,"E_M_liorA.png","P_M_saar.png","FALSE","pictures/stimuli/E","pictures/stimuli/P","M","M","4",-0.474284585771834,"23","F","right","8920",1,1,2,3,FALSE,"E_M_liorA.png P_M_saar.png"
4396,"E_M_liorA.png","E_M_yuda.png","TRUE","pictures/stimuli/E","pictures/stimuli/E","M","M","3",-1.25113002798432,"23","F","right","8920",1,1,2,1,FALSE,"E_M_liorA.png E_M_yuda.png"
3544,"E_F_shiri.png","P_F_michaeli.png","FALSE","pictures/stimuli/E","pictures/stimuli/P","F","F","6",1.07940629865314,"23","F","right","8920",1,1,1,2,FALSE,"E_F_shiri.png P_F_michaeli.png"
3954,"E_F_galit_gutman.png","P_M_gantz.png","FALSE","pictures/stimuli/E","pictures/stimuli/P","F","M","6",1.07940629865314,"23","F","right","8920",1,1,3,1,FALSE,"E_F_galit_gutman.png P_M_gantz.png"
3288,"E_M_liorA.png","P_F_michaeli.png","FALSE","pictures/stimuli/E","pictures/stimuli/P","M","F","6",1.07940629865314,"23","F","right","8920",1,1,2,2,FALSE,"E_M_liorA.png P_F_michaeli.png"
3224,"E_M_danker.png","P_M_saar.png","FALSE","pictures/stimuli/E","pictures/stimuli/P","M","M","5",0.302560856440653,"23","F","right","8920",1,1,1,3,FALSE,"E_M_danker.png P_M_saar.png"
3751,"E_F_ilanit.png","P_F_staiv.png","FALSE","pictures/stimuli/E","pictures/stimuli/P","F","F","5",0.302560856440653,"23","F","right","8920",1,1,1,2,FALSE,"E_F_ilanit.png P_F_staiv.png"
5769,"E_F_ninet.png","P_M_buji.png","FALSE","pictures/stimuli/E","pictures/stimuli/P","F","M","5",0.302560856440653,"23","F","right","8920",1,1,2,2,FALSE,"E_F_ninet.png P_M_buji.png"
5441,"E_M_ido.png","P_F_shaked.png","FALSE","pictures/stimuli/E","pictures/stimuli/P","M","F","4",-0.474284585771834,"23","F","right","8920",1,1,2,1,FALSE,"E_M_ido.png P_F_shaked.png"
3803,"P_F_michaeli.png","P_M_gantz.png","TRUE","pictures/stimuli/P","pictures/stimuli/P","F","M","5",0.302560856440653,"23","F","right","8920",1,1,2,1,FALSE,"P_F_michaeli.png P_M_gantz.png"
5428,"E_F_galit_gutman.png","P_M_smut.png","FALSE","pictures/stimuli/E","pictures/stimuli/P","F","M","5",0.302560856440653,"23","F","right","8920",1,1,3,2,FALSE,"E_F_galit_gutman.png P_M_smut.png"
5167,"P_M_benet.png","P_M_saar.png","TRUE","pictures/stimuli/P","pictures/stimuli/P","M","M","6",1.07940629865314,"23","F","right","8920",1,1,1,3,FALSE,"P_M_benet.png P_M_saar.png"
7338,"E_F_ilanit.png","E_M_yuda.png","TRUE","pictures/stimuli/E","pictures/stimuli/E","F","M","4",-0.474284585771834,"23","F","right","8920",1,1,1,1,FALSE,"E_F_ilanit.png E_M_yuda.png"
5443,"P_M_benet.png","P_M_smut.png","TRUE","pictures/stimuli/P","pictures/stimuli/P","M","M","5",0.302560856440653,"23","F","right","8920",1,1,1,2,FALSE,"P_M_benet.png P_M_smut.png"
3240,"E_F_galit_gutman.png","P_F_staiv.png","FALSE","pictures/stimuli/E","pictures/stimuli/P","F","F","5",0.302560856440653,"23","F","right","8920",1,1,3,2,FALSE,"E_F_galit_gutman.png P_F_staiv.png"
5003,"E_F_ninet.png","E_F_rotem_sela.png","TRUE","pictures/stimuli/E","pictures/stimuli/E","F","F","2",-2.02797547019681,"23","F","right","8920",1,1,2,1,FALSE,"E_F_ninet.png E_F_rotem_sela.png"
5522,"E_F_ninet.png","E_M_danker.png","TRUE","pictures/stimuli/E","pictures/stimuli/E","F","M","3",-1.25113002798432,"23","F","right","8920",1,1,2,1,FALSE,"E_F_ninet.png E_M_danker.png"
4107,"E_F_galit_gutman.png","P_M_lapid.png","FALSE","pictures/stimuli/E","pictures/stimuli/P","F","M","4",-0.474284585771834,"23","F","right","8920",1,1,3,1,FALSE,"E_F_galit_gutman.png P_M_lapid.png"
4552,"E_M_asi.png","P_F_staiv.png","FALSE","pictures/stimuli/E","pictures/stimuli/P","M","F","2",-2.02797547019681,"23","F","right","8920",1,1,1,2,FALSE,"E_M_asi.png P_F_staiv.png"
3281,"E_F_galit_gutman.png","E_M_asi.png","TRUE","pictures/stimuli/E","pictures/stimuli/E","F","M","4",-0.474284585771834,"23","F","right","8920",1,1,3,1,FALSE,"E_F_galit_gutman.png E_M_asi.png"
4474,"E_M_ido.png","P_M_smut.png","FALSE","pictures/stimuli/E","pictures/stimuli/P","M","M","5",0.302560856440653,"23","F","right","8920",1,1,2,2,FALSE,"E_M_ido.png P_M_smut.png"
3160,"P_F_regev.png","P_M_buji.png","TRUE","pictures/stimuli/P","pictures/stimuli/P","F","M","6",1.07940629865314,"23","F","right","8920",1,1,1,2,FALSE,"P_F_regev.png P_M_buji.png"
5124,"P_F_staiv.png","P_M_lapid.png","TRUE","pictures/stimuli/P","pictures/stimuli/P","F","M","5",0.302560856440653,"23","F","right","8920",1,1,2,1,FALSE,"P_F_staiv.png P_M_lapid.png"
4256,"E_F_rotem_sela.png","P_M_lapid.png","FALSE","pictures/stimuli/E","pictures/stimuli/P","F","M","5",0.302560856440653,"23","F","right","8920",1,1,1,1,FALSE,"E_F_rotem_sela.png P_M_lapid.png"
3468,"E_M_danker.png","E_M_yuda.png","TRUE","pictures/stimuli/E","pictures/stimuli/E","M","M","3",-1.25113002798432,"23","F","right","8920",1,1,1,1,FALSE,"E_M_danker.png E_M_yuda.png"
4137,"E_F_rotem_sela.png","P_F_michaeli.png","FALSE","pictures/stimuli/E","pictures/stimuli/P","F","F","5",0.302560856440653,"23","F","right","8920",1,1,1,2,FALSE,"E_F_rotem_sela.png P_F_michaeli.png"
3140,"E_M_danker.png","P_F_staiv.png","FALSE","pictures/stimuli/E","pictures/stimuli/P","M","F","5",0.302560856440653,"23","F","right","8920",1,1,1,2,FALSE,"E_M_danker.png P_F_staiv.png"
3771,"E_F_rotem_sela.png","E_M_liorA.png","TRUE","pictures/stimuli/E","pictures/stimuli/E","F","M","2",-2.02797547019681,"23","F","right","8920",1,1,1,2,FALSE,"E_F_rotem_sela.png E_M_liorA.png"
2968,"E_F_ninet.png","P_M_smut.png","FALSE","pictures/stimuli/E","pictures/stimuli/P","F","M","5",0.302560856440653,"23","F","right","8920",1,1,2,2,FALSE,"E_F_ninet.png P_M_smut.png"
4536,"E_M_ido.png","E_M_liorA.png","TRUE","pictures/stimuli/E","pictures/stimuli/E","M","M","3",-1.25113002798432,"23","F","right","8920",1,1,2,2,FALSE,"E_M_ido.png E_M_liorA.png"
3824,"E_F_shiri.png","E_M_asi.png","TRUE","pictures/stimuli/E","pictures/stimuli/E","F","M","3",-1.25113002798432,"23","F","right","8920",1,1,1,1,FALSE,"E_F_shiri.png E_M_asi.png"
4451,"P_F_staiv.png","P_M_saar.png","TRUE","pictures/stimuli/P","pictures/stimuli/P","F","M","5",0.302560856440653,"23","F","right","8920",1,1,2,3,FALSE,"P_F_staiv.png P_M_saar.png"
3663,"E_M_liorA.png","P_M_buji.png","FALSE","pictures/stimuli/E","pictures/stimuli/P","M","M","3",-1.25113002798432,"23","F","right","8920",1,1,2,2,FALSE,"E_M_liorA.png P_M_buji.png"
4066,"P_M_buji.png","P_M_smut.png","TRUE","pictures/stimuli/P","pictures/stimuli/P","M","M","3",-1.25113002798432,"23","F","right","8920",1,1,2,2,FALSE,"P_M_buji.png P_M_smut.png"
3637,"E_M_yuda.png","P_F_shaked.png","FALSE","pictures/stimuli/E","pictures/stimuli/P","M","F","3",-1.25113002798432,"23","F","right","8920",1,1,1,1,FALSE,"E_M_yuda.png P_F_shaked.png"
4890,"E_M_yuda.png","P_M_benet.png","FALSE","pictures/stimuli/E","pictures/stimuli/P","M","M","6",1.07940629865314,"23","F","right","8920",1,1,1,1,FALSE,"E_M_yuda.png P_M_benet.png"
3831,"E_M_liorA.png","P_M_lapid.png","FALSE","pictures/stimuli/E","pictures/stimuli/P","M","M","4",-0.474284585771834,"23","F","right","8920",1,1,2,1,FALSE,"E_M_liorA.png P_M_lapid.png"
5346,"E_M_yuda.png","P_F_michaeli.png","FALSE","pictures/stimuli/E","pictures/stimuli/P","M","F","4",-0.474284585771834,"23","F","right","8920",1,1,1,2,FALSE,"E_M_yuda.png P_F_michaeli.png"
2898,"P_M_gantz.png","P_M_benet.png","TRUE","pictures/stimuli/P","pictures/stimuli/P","M","M","6",1.07940629865314,"23","F","right","8920",1,1,1,1,FALSE,"P_M_benet.png P_M_gantz.png"
3716,"E_F_ninet.png","P_M_gantz.png","FALSE","pictures/stimuli/E","pictures/stimuli/P","F","M","5",0.302560856440653,"23","F","right","8920",1,1,2,1,FALSE,"E_F_ninet.png P_M_gantz.png"
3264,"E_M_ido.png","P_M_benet.png","FALSE","pictures/stimuli/E","pictures/stimuli/P","M","M","6",1.07940629865314,"23","F","right","8920",1,1,2,1,FALSE,"E_M_ido.png P_M_benet.png"
5027,"E_F_rotem_sela.png","E_M_danker.png","TRUE","pictures/stimuli/E","pictures/stimuli/E","F","M","4",-0.474284585771834,"23","F","right","8920",1,1,1,1,FALSE,"E_F_rotem_sela.png E_M_danker.png"
3674,"E_F_ilanit.png","P_F_regev.png","FALSE","pictures/stimuli/E","pictures/stimuli/P","F","F","6",1.07940629865314,"23","F","right","8920",1,1,1,1,FALSE,"E_F_ilanit.png P_F_regev.png"
4883,"E_F_galit_gutman.png","P_M_buji.png","FALSE","pictures/stimuli/E","pictures/stimuli/P","F","M","5",0.302560856440653,"23","F","right","8920",1,1,3,2,FALSE,"E_F_galit_gutman.png P_M_buji.png"
2829,"P_M_lapid.png","P_M_saar.png","TRUE","pictures/stimuli/P","pictures/stimuli/P","M","M","6",1.07940629865314,"23","F","right","8920",1,1,1,3,FALSE,"P_M_lapid.png P_M_saar.png"
3065,"E_F_shiri.png","P_F_regev.png","FALSE","pictures/stimuli/E","pictures/stimuli/P","F","F","6",1.07940629865314,"23","F","right","8920",1,1,1,1,FALSE,"E_F_shiri.png P_F_regev.png"
3769,"E_M_asi.png","E_M_yuda.png","TRUE","pictures/stimuli/E","pictures/stimuli/E","M","M","5",0.302560856440653,"23","F","right","8920",1,1,1,1,FALSE,"E_M_asi.png E_M_yuda.png"
3514,"E_F_galit_gutman.png","E_M_yuda.png","TRUE","pictures/stimuli/E","pictures/stimuli/E","F","M","5",0.302560856440653,"23","F","right","8920",1,1,3,1,FALSE,"E_F_galit_gutman.png E_M_yuda.png"
4661,"E_M_asi.png","P_M_benet.png","FALSE","pictures/stimuli/E","pictures/stimuli/P","M","M","6",1.07940629865314,"23","F","right","8920",1,1,1,1,FALSE,"E_M_asi.png P_M_benet.png"
3293,"E_F_galit_gutman.png","E_M_liorA.png","TRUE","pictures/stimuli/E","pictures/stimuli/E","F","M","4",-0.474284585771834,"23","F","right","8920",1,1,3,2,FALSE,"E_F_galit_gutman.png E_M_liorA.png"
3420,"E_M_danker.png","P_M_buji.png","FALSE","pictures/stimuli/E","pictures/stimuli/P","M","M","5",0.302560856440653,"23","F","right","8920",1,1,1,2,FALSE,"E_M_danker.png P_M_buji.png"
3406,"E_M_yuda.png","P_F_regev.png","FALSE","pictures/stimuli/E","pictures/stimuli/P","M","F","6",1.07940629865314,"23","F","right","8920",1,1,1,1,FALSE,"E_M_yuda.png P_F_regev.png"
3538,"E_F_galit_gutman.png","E_F_ninet.png","TRUE","pictures/stimuli/E","pictures/stimuli/E","F","F","5",0.302560856440653,"23","F","right","8920",1,1,3,2,FALSE,"E_F_galit_gutman.png E_F_ninet.png"
3537,"E_M_asi.png","P_M_lapid.png","FALSE","pictures/stimuli/E","pictures/stimuli/P","M","M","6",1.07940629865314,"23","F","right","8920",1,1,1,1,FALSE,"E_M_asi.png P_M_lapid.png"
3569,"E_F_ilanit.png","P_M_benet.png","FALSE","pictures/stimuli/E","pictures/stimuli/P","F","M","6",1.07940629865314,"23","F","right","8920",1,1,1,1,FALSE,"E_F_ilanit.png P_M_benet.png"
4133,"E_F_ilanit.png","P_F_michaeli.png","FALSE","pictures/stimuli/E","pictures/stimuli/P","F","F","6",1.07940629865314,"23","F","right","8920",1,1,1,2,FALSE,"E_F_ilanit.png P_F_michaeli.png"
2876,"P_F_regev.png","P_M_lapid.png","TRUE","pictures/stimuli/P","pictures/stimuli/P","F","M","6",1.07940629865314,"23","F","right","8920",1,1,1,1,FALSE,"P_F_regev.png P_M_lapid.png"
2948,"P_F_shaked.png","P_F_staiv.png","TRUE","pictures/stimuli/P","pictures/stimuli/P","F","F","6",1.07940629865314,"23","F","right","8920",1,1,1,2,FALSE,"P_F_shaked.png P_F_staiv.png"
4359,"E_F_rotem_sela.png","P_M_gantz.png","FALSE","pictures/stimuli/E","pictures/stimuli/P","F","M","3",-1.25113002798432,"23","F","right","8920",1,1,1,1,FALSE,"E_F_rotem_sela.png P_M_gantz.png"
2890,"E_M_asi.png","E_M_danker.png","TRUE","pictures/stimuli/E","pictures/stimuli/E","M","M","5",0.302560856440653,"23","F","right","8920",1,1,1,1,FALSE,"E_M_asi.png E_M_danker.png"
2567,"P_F_regev.png","P_M_gantz.png","TRUE","pictures/stimuli/P","pictures/stimuli/P","F","M","6",1.07940629865314,"23","F","right","8920",1,1,1,1,FALSE,"P_F_regev.png P_M_gantz.png"
2770,"P_F_michaeli.png","P_M_buji.png","TRUE","pictures/stimuli/P","pictures/stimuli/P","F","M","6",1.07940629865314,"23","F","right","8920",1,1,2,2,FALSE,"P_F_michaeli.png P_M_buji.png"
3737,"E_M_yuda.png","P_M_lapid.png","FALSE","pictures/stimuli/E","pictures/stimuli/P","M","M","6",1.07940629865314,"23","F","right","8920",1,1,1,1,FALSE,"E_M_yuda.png P_M_lapid.png"
6886,"E_M_danker.png","E_M_ido.png","TRUE","pictures/stimuli/E","pictures/stimuli/E","M","M","5",0.302560856440653,"23","F","right","8920",1,1,1,2,FALSE,"E_M_danker.png E_M_ido.png"
3121,"E_M_asi.png","P_F_michaeli.png","FALSE","pictures/stimuli/E","pictures/stimuli/P","M","F","6",1.07940629865314,"23","F","right","8920",1,1,1,2,FALSE,"E_M_asi.png P_F_michaeli.png"
4658,"E_F_rotem_sela.png","P_M_smut.png","FALSE","pictures/stimuli/E","pictures/stimuli/P","F","M","3",-1.25113002798432,"23","F","right","8920",1,1,1,2,FALSE,"E_F_rotem_sela.png P_M_smut.png"
3134,"E_F_shiri.png","P_F_shaked.png","FALSE","pictures/stimuli/E","pictures/stimuli/P","F","F","6",1.07940629865314,"23","F","right","8920",1,1,1,1,FALSE,"E_F_shiri.png P_F_shaked.png"
5250,"P_F_regev.png","P_M_smut.png","TRUE","pictures/stimuli/P","pictures/stimuli/P","F","M","6",1.07940629865314,"23","F","right","8920",1,1,1,2,FALSE,"P_F_regev.png P_M_smut.png"
4066,"P_M_gantz.png","P_M_saar.png","TRUE","pictures/stimuli/P","pictures/stimuli/P","M","M","6",1.07940629865314,"23","F","right","8920",1,1,1,3,FALSE,"P_M_gantz.png P_M_saar.png"
2388,"E_F_shiri.png","P_M_buji.png","FALSE","pictures/stimuli/E","pictures/stimuli/P","F","M","5",0.302560856440653,"23","F","right","8920",1,1,1,2,FALSE,"E_F_shiri.png P_M_buji.png"
1932,"P_F_shaked.png","P_M_benet.png","TRUE","pictures/stimuli/P","pictures/stimuli/P","F","M","6",1.07940629865314,"23","F","right","8920",1,1,1,1,FALSE,"P_F_shaked.png P_M_benet.png"
2691,"E_F_rotem_sela.png","E_M_ido.png","TRUE","pictures/stimuli/E","pictures/stimuli/E","F","M","3",-1.25113002798432,"23","F","right","8920",1,1,1,2,FALSE,"E_F_rotem_sela.png E_M_ido.png"
3750,"E_F_ninet.png","E_M_ido.png","TRUE","pictures/stimuli/E","pictures/stimuli/E","F","M","4",-0.474284585771834,"23","F","right","8920",1,1,2,2,FALSE,"E_F_ninet.png E_M_ido.png"
3136,"E_M_danker.png","P_F_michaeli.png","FALSE","pictures/stimuli/E","pictures/stimuli/P","M","F","5",0.302560856440653,"23","F","right","8920",1,1,1,2,FALSE,"E_M_danker.png P_F_michaeli.png"
2083,"P_M_lapid.png","P_M_smut.png","TRUE","pictures/stimuli/P","pictures/stimuli/P","M","M","6",1.07940629865314,"23","F","right","8920",1,1,1,2,FALSE,"P_M_lapid.png P_M_smut.png"
5334,"E_F_ninet.png","P_F_shaked.png","FALSE","pictures/stimuli/E","pictures/stimuli/P","F","F","3",-1.25113002798432,"23","F","right","8920",1,1,2,1,FALSE,"E_F_ninet.png P_F_shaked.png"
2814,"E_M_ido.png","P_M_gantz.png","FALSE","pictures/stimuli/E","pictures/stimuli/P","M","M","4",-0.474284585771834,"23","F","right","8920",1,1,2,1,FALSE,"E_M_ido.png P_M_gantz.png"
2503,"E_F_ilanit.png","P_M_gantz.png","FALSE","pictures/stimuli/E","pictures/stimuli/P","F","M","5",0.302560856440653,"23","F","right","8920",1,1,1,1,FALSE,"E_F_ilanit.png P_M_gantz.png"
4482,"P_F_shaked.png","P_M_smut.png","TRUE","pictures/stimuli/P","pictures/stimuli/P","F","M","3",-1.25113002798432,"23","F","right","8920",1,1,1,2,FALSE,"P_F_shaked.png P_M_smut.png"
2437,"E_F_galit_gutman.png","E_M_danker.png","TRUE","pictures/stimuli/E","pictures/stimuli/E","F","M","4",-0.474284585771834,"23","F","right","8920",1,1,3,1,FALSE,"E_F_galit_gutman.png E_M_danker.png"
2175,"E_M_asi.png","P_M_buji.png","FALSE","pictures/stimuli/E","pictures/stimuli/P","M","M","6",1.07940629865314,"23","F","right","8920",1,1,1,2,FALSE,"E_M_asi.png P_M_buji.png"
3929,"E_M_danker.png","E_M_liorA.png","TRUE","pictures/stimuli/E","pictures/stimuli/E","M","M","4",-0.474284585771834,"23","F","right","8920",1,1,1,2,FALSE,"E_M_danker.png E_M_liorA.png"
2605,"E_M_yuda.png","P_M_saar.png","FALSE","pictures/stimuli/E","pictures/stimuli/P","M","M","3",-1.25113002798432,"23","F","right","8920",1,1,1,3,FALSE,"E_M_yuda.png P_M_saar.png"
2154,"P_F_regev.png","P_M_benet.png","TRUE","pictures/stimuli/P","pictures/stimuli/P","F","M","6",1.07940629865314,"23","F","right","8920",1,1,1,1,FALSE,"P_F_regev.png P_M_benet.png"
2252,"P_F_michaeli.png","P_M_lapid.png","TRUE","pictures/stimuli/P","pictures/stimuli/P","F","M","6",1.07940629865314,"23","F","right","8920",1,1,2,1,FALSE,"P_F_michaeli.png P_M_lapid.png"
3405,"E_M_yuda.png","P_M_buji.png","FALSE","pictures/stimuli/E","pictures/stimuli/P","M","M","5",0.302560856440653,"23","F","right","8920",1,1,1,2,FALSE,"E_M_yuda.png P_M_buji.png"
2290,"E_F_shiri.png","P_M_lapid.png","FALSE","pictures/stimuli/E","pictures/stimuli/P","F","M","6",1.07940629865314,"23","F","right","8920",1,1,1,1,FALSE,"E_F_shiri.png P_M_lapid.png"
3790,"E_M_ido.png","P_M_lapid.png","FALSE","pictures/stimuli/E","pictures/stimuli/P","M","M","6",1.07940629865314,"23","F","right","8920",1,1,2,1,FALSE,"E_M_ido.png P_M_lapid.png"
3191,"P_F_regev.png","P_F_shaked.png","TRUE","pictures/stimuli/P","pictures/stimuli/P","F","F","6",1.07940629865314,"23","F","right","8920",1,1,1,1,FALSE,"P_F_regev.png P_F_shaked.png"
2626,"E_M_ido.png","P_M_buji.png","FALSE","pictures/stimuli/E","pictures/stimuli/P","M","M","5",0.302560856440653,"23","F","right","8920",1,1,2,2,FALSE,"E_M_ido.png P_M_buji.png"
3294,"E_M_asi.png","E_M_ido.png","TRUE","pictures/stimuli/E","pictures/stimuli/E","M","M","4",-0.474284585771834,"23","F","right","8920",1,1,1,2,FALSE,"E_M_asi.png E_M_ido.png"
3648,"E_F_galit_gutman.png","E_F_rotem_sela.png","TRUE","pictures/stimuli/E","pictures/stimuli/E","F","F","3",-1.25113002798432,"23","F","right","8920",1,1,3,1,FALSE,"E_F_galit_gutman.png E_F_rotem_sela.png"
2770,"E_F_rotem_sela.png","P_F_staiv.png","FALSE","pictures/stimuli/E","pictures/stimuli/P","F","F","3",-1.25113002798432,"23","F","right","8920",1,1,1,2,FALSE,"E_F_rotem_sela.png P_F_staiv.png"
5503,"E_F_ilanit.png","E_F_shiri.png","TRUE","pictures/stimuli/E","pictures/stimuli/E","F","F","3",-1.25113002798432,"23","F","right","8920",1,1,1,1,FALSE,"E_F_ilanit.png E_F_shiri.png"
8290,"E_F_shiri.png","P_F_staiv.png","FALSE","pictures/stimuli/E","pictures/stimuli/P","F","F","4",-0.474284585771834,"23","F","right","8920",1,1,1,2,FALSE,"E_F_shiri.png P_F_staiv.png"
4878,"E_M_liorA.png","P_M_smut.png","FALSE","pictures/stimuli/E","pictures/stimuli/P","M","M","3",-1.25113002798432,"23","F","right","8920",1,1,2,2,FALSE,"E_M_liorA.png P_M_smut.png"
2995,"E_F_ninet.png","E_F_shiri.png","TRUE","pictures/stimuli/E","pictures/stimuli/E","F","F","4",-0.474284585771834,"23","F","right","8920",1,1,2,1,FALSE,"E_F_ninet.png E_F_shiri.png"
4103,"E_F_shiri.png","P_M_smut.png","FALSE","pictures/stimuli/E","pictures/stimuli/P","F","M","5",0.302560856440653,"23","F","right","8920",1,1,1,2,FALSE,"E_F_shiri.png P_M_smut.png"
3365,"E_M_liorA.png","P_F_shaked.png","FALSE","pictures/stimuli/E","pictures/stimuli/P","M","F","2",-2.02797547019681,"23","F","right","8920",1,1,2,1,FALSE,"E_M_liorA.png P_F_shaked.png"
2750,"E_M_danker.png","P_M_benet.png","FALSE","pictures/stimuli/E","pictures/stimuli/P","M","M","6",1.07940629865314,"23","F","right","8920",1,1,1,1,FALSE,"E_M_danker.png P_M_benet.png"
3351,"E_M_asi.png","E_M_liorA.png","TRUE","pictures/stimuli/E","pictures/stimuli/E","M","M","2",-2.02797547019681,"23","F","right","8920",1,1,1,2,FALSE,"E_M_asi.png E_M_liorA.png"
2419,"E_F_rotem_sela.png","E_M_yuda.png","TRUE","pictures/stimuli/E","pictures/stimuli/E","F","M","5",0.302560856440653,"23","F","right","8920",1,1,1,1,FALSE,"E_F_rotem_sela.png E_M_yuda.png"
2080,"E_F_ilanit.png","P_M_smut.png","FALSE","pictures/stimuli/E","pictures/stimuli/P","F","M","6",1.07940629865314,"23","F","right","8920",1,1,1,2,FALSE,"E_F_ilanit.png P_M_smut.png"
3253,"E_F_shiri.png","E_M_ido.png","TRUE","pictures/stimuli/E","pictures/stimuli/E","F","M","6",1.07940629865314,"23","F","right","8920",1,1,1,2,FALSE,"E_F_shiri.png E_M_ido.png"
3391,"E_F_galit_gutman.png","E_F_shiri.png","TRUE","pictures/stimuli/E","pictures/stimuli/E","F","F","3",-1.25113002798432,"23","F","right","8920",1,1,3,1,FALSE,"E_F_galit_gutman.png E_F_shiri.png"
2789,"E_F_galit_gutman.png","P_M_saar.png","FALSE","pictures/stimuli/E","pictures/stimuli/P","F","M","4",-0.474284585771834,"23","F","right","8920",1,1,3,3,FALSE,"E_F_galit_gutman.png P_M_saar.png"
1934,"E_M_liorA.png","P_M_benet.png","FALSE","pictures/stimuli/E","pictures/stimuli/P","M","M","6",1.07940629865314,"23","F","right","8920",1,1,2,1,FALSE,"E_M_liorA.png P_M_benet.png"
4107,"E_F_ilanit.png","E_M_asi.png","TRUE","pictures/stimuli/E","pictures/stimuli/E","F","M","4",-0.474284585771834,"23","F","right","8920",1,1,1,1,FALSE,"E_F_ilanit.png E_M_asi.png"
1869,"P_F_michaeli.png","P_M_benet.png","TRUE","pictures/stimuli/P","pictures/stimuli/P","F","M","6",1.07940629865314,"23","F","right","8920",1,1,2,1,FALSE,"P_F_michaeli.png P_M_benet.png"
3545,"P_F_michaeli.png","P_F_shaked.png","TRUE","pictures/stimuli/P","pictures/stimuli/P","F","F","6",1.07940629865314,"23","F","right","8920",1,1,2,1,FALSE,"P_F_michaeli.png P_F_shaked.png"
2978,"E_F_ilanit.png","E_F_rotem_sela.png","TRUE","pictures/stimuli/E","pictures/stimuli/E","F","F","4",-0.474284585771834,"23","F","right","8920",1,1,1,1,FALSE,"E_F_ilanit.png E_F_rotem_sela.png"
3097,"E_M_yuda.png","P_M_gantz.png","FALSE","pictures/stimuli/E","pictures/stimuli/P","M","M","4",-0.474284585771834,"23","F","right","8920",1,1,1,1,FALSE,"E_M_yuda.png P_M_gantz.png"
2235,"P_F_regev.png","P_M_saar.png","TRUE","pictures/stimuli/P","pictures/stimuli/P","F","M","6",1.07940629865314,"23","F","right","8920",1,1,1,3,FALSE,"P_F_regev.png P_M_saar.png"
4480,"E_F_ilanit.png","E_M_danker.png","TRUE","pictures/stimuli/E","pictures/stimuli/E","F","M","4",-0.474284585771834,"23","F","right","8920",1,1,1,1,FALSE,"E_F_ilanit.png E_M_danker.png"
2574,"E_F_ilanit.png","E_M_liorA.png","TRUE","pictures/stimuli/E","pictures/stimuli/E","F","M","5",0.302560856440653,"23","F","right","8920",1,1,1,2,FALSE,"E_F_ilanit.png E_M_liorA.png"
1758,"E_F_rotem_sela.png","P_F_regev.png","FALSE","pictures/stimuli/E","pictures/stimuli/P","F","F","6",1.07940629865314,"23","F","right","8920",1,1,1,1,FALSE,"E_F_rotem_sela.png P_F_regev.png"
1988,"E_M_asi.png","P_M_gantz.png","FALSE","pictures/stimuli/E","pictures/stimuli/P","M","M","4",-0.474284585771834,"23","F","right","8920",1,1,1,1,FALSE,"E_M_asi.png P_M_gantz.png"
1920,"E_F_ninet.png","P_F_michaeli.png","FALSE","pictures/stimuli/E","pictures/stimuli/P","F","F","6",1.07940629865314,"23","F","right","8920",1,1,2,2,FALSE,"E_F_ninet.png P_F_michaeli.png"
4027,"E_M_danker.png","P_F_regev.png","FALSE","pictures/stimuli/E","pictures/stimuli/P","M","F","6",1.07940629865314,"23","F","right","8920",1,1,1,1,FALSE,"E_M_danker.png P_F_regev.png"
3184,"P_F_shaked.png","P_M_gantz.png","TRUE","pictures/stimuli/P","pictures/stimuli/P","F","M","2",-2.02797547019681,"23","F","right","8920",1,1,1,1,FALSE,"P_F_shaked.png P_M_gantz.png"
2334,"P_F_staiv.png","P_M_gantz.png","TRUE","pictures/stimuli/P","pictures/stimuli/P","F","M","3",-1.25113002798432,"23","F","right","8920",1,1,2,1,FALSE,"P_F_staiv.png P_M_gantz.png"
2706,"E_F_ilanit.png","P_M_lapid.png","FALSE","pictures/stimuli/E","pictures/stimuli/P","F","M","5",0.302560856440653,"23","F","right","8920",1,1,1,1,FALSE,"E_F_ilanit.png P_M_lapid.png"
4622,"E_F_ninet.png","P_F_staiv.png","FALSE","pictures/stimuli/E","pictures/stimuli/P","F","F","4",-0.474284585771834,"23","F","right","8920",1,1,2,2,FALSE,"E_F_ninet.png P_F_staiv.png"
3442,"E_F_ninet.png","E_M_liorA.png","TRUE","pictures/stimuli/E","pictures/stimuli/E","F","M","3",-1.25113002798432,"23","F","right","8920",1,1,2,2,FALSE,"E_F_ninet.png E_M_liorA.png"
3649,"E_F_shiri.png","P_M_gantz.png","FALSE","pictures/stimuli/E","pictures/stimuli/P","F","M","3",-1.25113002798432,"23","F","right","8920",1,1,1,1,FALSE,"E_F_shiri.png P_M_gantz.png"
2751,"P_M_benet.png","P_M_buji.png","TRUE","pictures/stimuli/P","pictures/stimuli/P","M","M","6",1.07940629865314,"23","F","right","8920",1,1,1,2,FALSE,"P_M_benet.png P_M_buji.png"
4219,"E_F_galit_gutman.png","P_M_benet.png","FALSE","pictures/stimuli/E","pictures/stimuli/P","F","M","6",1.07940629865314,"23","F","right","8920",1,1,3,1,FALSE,"E_F_galit_gutman.png P_M_benet.png"
2544,"E_F_shiri.png","E_M_danker.png","TRUE","pictures/stimuli/E","pictures/stimuli/E","F","M","5",0.302560856440653,"23","F","right","8920",1,1,1,1,FALSE,"E_F_shiri.png E_M_danker.png"
2745,"P_F_michaeli.png","P_F_staiv.png","TRUE","pictures/stimuli/P","pictures/stimuli/P","F","F","6",1.07940629865314,"23","F","right","8920",1,1,2,2,FALSE,"P_F_michaeli.png P_F_staiv.png"
2612,"E_F_ninet.png","E_M_yuda.png","TRUE","pictures/stimuli/E","pictures/stimuli/E","F","M","3",-1.25113002798432,"23","F","right","8920",1,1,2,1,FALSE,"E_F_ninet.png E_M_yuda.png"
3211,"E_M_danker.png","P_M_smut.png","FALSE","pictures/stimuli/E","pictures/stimuli/P","M","M","5",0.302560856440653,"23","F","right","8920",1,1,1,2,FALSE,"E_M_danker.png P_M_smut.png"
3334,"P_M_lapid.png","P_M_buji.png","TRUE","pictures/stimuli/P","pictures/stimuli/P","M","M","5",0.302560856440653,"23","F","right","8920",1,1,1,2,FALSE,"P_M_buji.png P_M_lapid.png"
4450,"E_F_galit_gutman.png","P_F_shaked.png","FALSE","pictures/stimuli/E","pictures/stimuli/P","F","F","5",0.302560856440653,"23","F","right","8920",1,1,3,1,FALSE,"E_F_galit_gutman.png P_F_shaked.png"
3134,"E_F_ilanit.png","P_F_shaked.png","FALSE","pictures/stimuli/E","pictures/stimuli/P","F","F","5",0.302560856440653,"23","F","right","8920",1,1,1,1,FALSE,"E_F_ilanit.png P_F_shaked.png"
3296,"P_M_lapid.png","P_M_benet.png","TRUE","pictures/stimuli/P","pictures/stimuli/P","M","M","6",1.07940629865314,"23","F","right","8920",1,1,1,1,FALSE,"P_M_benet.png P_M_lapid.png"
5181,"P_F_staiv.png","P_M_smut.png","TRUE","pictures/stimuli/P","pictures/stimuli/P","F","M","3",-1.25113002798432,"23","F","right","8920",1,1,2,2,FALSE,"P_F_staiv.png P_M_smut.png"
3088,"E_F_shiri.png","E_M_yuda.png","TRUE","pictures/stimuli/E","pictures/stimuli/E","F","M","5",0.302560856440653,"23","F","right","8920",1,1,1,1,FALSE,"E_F_shiri.png E_M_yuda.png"
4193,"P_F_staiv.png","P_M_buji.png","TRUE","pictures/stimuli/P","pictures/stimuli/P","F","M","4",-0.474284585771834,"23","F","right","8920",1,1,2,2,FALSE,"P_F_staiv.png P_M_buji.png"
3366,"E_M_liorA.png","P_M_gantz.png","FALSE","pictures/stimuli/E","pictures/stimuli/P","M","M","2",-2.02797547019681,"23","F","right","8920",1,1,2,1,FALSE,"E_M_liorA.png P_M_gantz.png"
2301,"E_F_ilanit.png","P_M_saar.png","FALSE","pictures/stimuli/E","pictures/stimuli/P","F","M","4",-0.474284585771834,"23","F","right","8920",1,1,1,3,FALSE,"E_F_ilanit.png P_M_saar.png"
2452,"E_F_rotem_sela.png","P_M_benet.png","FALSE","pictures/stimuli/E","pictures/stimuli/P","F","M","6",1.07940629865314,"23","F","right","8920",1,1,1,1,FALSE,"E_F_rotem_sela.png P_M_benet.png"
2559,"P_M_gantz.png","P_M_smut.png","TRUE","pictures/stimuli/P","pictures/stimuli/P","M","M","3",-1.25113002798432,"23","F","right","8920",1,1,1,2,FALSE,"P_M_gantz.png P_M_smut.png"
1957,"P_F_michaeli.png","P_M_smut.png","TRUE","pictures/stimuli/P","pictures/stimuli/P","F","M","6",1.07940629865314,"23","F","right","8920",1,1,2,2,FALSE,"P_F_michaeli.png P_M_smut.png"
3702,"E_M_asi.png","P_M_saar.png","FALSE","pictures/stimuli/E","pictures/stimuli/P","M","M","3",-1.25113002798432,"23","F","right","8920",1,1,1,3,FALSE,"E_M_asi.png P_M_saar.png"
4731,"E_M_yuda.png","P_M_smut.png","FALSE","pictures/stimuli/E","pictures/stimuli/P","M","M","4",-0.474284585771834,"23","F","right","8920",1,1,1,2,FALSE,"E_M_yuda.png P_M_smut.png"
1797,"E_M_asi.png","P_F_regev.png","FALSE","pictures/stimuli/E","pictures/stimuli/P","M","F","6",1.07940629865314,"23","F","right","8920",1,1,1,1,FALSE,"E_M_asi.png P_F_regev.png"
1930,"E_M_danker.png","P_M_lapid.png","FALSE","pictures/stimuli/E","pictures/stimuli/P","M","M","6",1.07940629865314,"23","F","right","8920",1,1,1,1,FALSE,"E_M_danker.png P_M_lapid.png"
6586,"E_F_rotem_sela.png","E_F_shiri.png","TRUE","pictures/stimuli/E","pictures/stimuli/E","F","F","4",-0.474284585771834,"23","F","right","8920",1,1,1,1,FALSE,"E_F_rotem_sela.png E_F_shiri.png"
2565,"E_F_ninet.png","P_M_saar.png","FALSE","pictures/stimuli/E","pictures/stimuli/P","F","M","4",-0.474284585771834,"23","F","right","8920",1,1,2,3,FALSE,"E_F_ninet.png P_M_saar.png"
2273,"P_F_shaked.png","P_M_saar.png","TRUE","pictures/stimuli/P","pictures/stimuli/P","F","M","5",0.302560856440653,"23","F","right","8920",1,1,1,3,FALSE,"P_F_shaked.png P_M_saar.png"
4052,"E_M_ido.png","P_F_staiv.png","FALSE","pictures/stimuli/E","pictures/stimuli/P","M","F","3",-1.25113002798432,"23","F","right","8920",1,1,2,2,FALSE,"E_M_ido.png P_F_staiv.png"
3821,"E_M_danker.png","P_F_shaked.png","FALSE","pictures/stimuli/E","pictures/stimuli/P","M","F","4",-0.474284585771834,"23","F","right","8920",1,1,1,1,FALSE,"E_M_danker.png P_F_shaked.png"
3971,"E_M_ido.png","P_F_michaeli.png","FALSE","pictures/stimuli/E","pictures/stimuli/P","M","F","3",-1.25113002798432,"23","F","right","8920",1,1,2,2,FALSE,"E_M_ido.png P_F_michaeli.png"
2551,"P_M_saar.png","P_M_smut.png","TRUE","pictures/stimuli/P","pictures/stimuli/P","M","M","6",1.07940629865314,"23","F","right","8920",1,1,3,2,FALSE,"P_M_saar.png P_M_smut.png"
2977,"P_F_shaked.png","P_M_buji.png","TRUE","pictures/stimuli/P","pictures/stimuli/P","F","M","3",-1.25113002798432,"23","F","right","8920",1,1,1,2,FALSE,"P_F_shaked.png P_M_buji.png"
3822,"E_F_galit_gutman.png","E_M_ido.png","TRUE","pictures/stimuli/E","pictures/stimuli/E","F","M","3",-1.25113002798432,"23","F","right","8920",1,1,3,2,FALSE,"E_F_galit_gutman.png E_M_ido.png"
2976,"E_M_ido.png","P_F_regev.png","FALSE","pictures/stimuli/E","pictures/stimuli/P","M","F","6",1.07940629865314,"23","F","right","8920",1,1,2,1,FALSE,"E_M_ido.png P_F_regev.png"
3508,"E_M_asi.png","P_F_shaked.png","FALSE","pictures/stimuli/E","pictures/stimuli/P","M","F","3",-1.25113002798432,"23","F","right","8920",1,1,1,1,FALSE,"E_M_asi.png P_F_shaked.png"
5374,"P_F_shaked.png","P_M_lapid.png","TRUE","pictures/stimuli/P","pictures/stimuli/P","F","M","5",0.302560856440653,"23","F","right","8920",1,1,1,1,FALSE,"P_F_shaked.png P_M_lapid.png"
3538,"E_F_ilanit.png","E_F_ninet.png","TRUE","pictures/stimuli/E","pictures/stimuli/E","F","F","5",0.302560856440653,"23","F","right","8920",1,1,1,2,FALSE,"E_F_ilanit.png E_F_ninet.png"
4069,"P_F_michaeli.png","P_F_regev.png","TRUE","pictures/stimuli/P","pictures/stimuli/P","F","F","6",1.07940629865314,"23","F","right","8920",1,1,2,1,FALSE,"P_F_michaeli.png P_F_regev.png"
2291,"E_F_shiri.png","E_M_liorA.png","TRUE","pictures/stimuli/E","pictures/stimuli/E","F","M","3",-1.25113002798432,"23","F","right","8920",1,1,1,2,FALSE,"E_F_shiri.png E_M_liorA.png"
2178,"E_F_rotem_sela.png","P_M_saar.png","FALSE","pictures/stimuli/E","pictures/stimuli/P","F","M","5",0.302560856440653,"23","F","right","8920",1,1,1,3,FALSE,"E_F_rotem_sela.png P_M_saar.png"
2817,"E_M_asi.png","P_M_smut.png","FALSE","pictures/stimuli/E","pictures/stimuli/P","M","M","5",0.302560856440653,"23","F","right","8920",1,1,1,2,FALSE,"E_M_asi.png P_M_smut.png"
8504,"E_F_rotem_sela.png","P_M_buji.png","FALSE","pictures/stimuli/E","pictures/stimuli/P","F","M","3",-1.25113002798432,"23","F","right","8920",1,1,1,2,FALSE,"E_F_rotem_sela.png P_M_buji.png"
1978,"P_M_buji.png","P_M_saar.png","TRUE","pictures/stimuli/P","pictures/stimuli/P","M","M","4",-0.474284585771834,"23","F","right","8920",1,1,2,3,FALSE,"P_M_buji.png P_M_saar.png"
2250,"E_M_liorA.png","P_F_staiv.png","FALSE","pictures/stimuli/E","pictures/stimuli/P","M","F","2",-2.02797547019681,"23","F","right","8920",1,1,2,2,FALSE,"E_M_liorA.png P_F_staiv.png"
2115,"P_M_gantz.png","P_M_lapid.png","TRUE","pictures/stimuli/P","pictures/stimuli/P","M","M","6",1.07940629865314,"23","F","right","8920",1,1,1,1,FALSE,"P_M_gantz.png P_M_lapid.png"
2190,"E_F_galit_gutman.png","E_F_ilanit.png","TRUE","pictures/stimuli/E","pictures/stimuli/E","F","F","1",-2.80482091240929,"23","F","right","8920",1,1,3,1,FALSE,"E_F_galit_gutman.png E_F_ilanit.png"
2628,"E_F_ninet.png","P_F_regev.png","FALSE","pictures/stimuli/E","pictures/stimuli/P","F","F","6",1.07940629865314,"23","F","right","8920",1,1,2,1,FALSE,"E_F_ninet.png P_F_regev.png"
2651,"P_F_staiv.png","P_M_benet.png","TRUE","pictures/stimuli/P","pictures/stimuli/P","F","M","6",1.07940629865314,"23","F","right","8920",1,1,2,1,FALSE,"P_F_staiv.png P_M_benet.png"
2387,"E_F_galit_gutman.png","P_F_michaeli.png","FALSE","pictures/stimuli/E","pictures/stimuli/P","F","F","5",0.302560856440653,"23","F","right","8920",1,1,3,2,FALSE,"E_F_galit_gutman.png P_F_michaeli.png"
2465,"E_M_ido.png","P_M_saar.png","FALSE","pictures/stimuli/E","pictures/stimuli/P","M","M","3",-1.25113002798432,"23","F","right","8920",1,1,2,3,FALSE,"E_M_ido.png P_M_saar.png"
2437,"E_M_yuda.png","P_F_staiv.png","FALSE","pictures/stimuli/E","pictures/stimuli/P","M","F","6",1.07940629865314,"23","F","right","8920",1,1,1,2,FALSE,"E_M_yuda.png P_F_staiv.png"
2175,"E_F_ninet.png","P_M_lapid.png","FALSE","pictures/stimuli/E","pictures/stimuli/P","F","M","6",1.07940629865314,"23","F","right","8920",1,1,2,1,FALSE,"E_F_ninet.png P_M_lapid.png"
2266,"E_F_shiri.png","P_M_saar.png","FALSE","pictures/stimuli/E","pictures/stimuli/P","F","M","6",1.07940629865314,"23","F","right","8920",1,1,1,3,FALSE,"E_F_shiri.png P_M_saar.png"
2705,"E_M_danker.png","P_M_gantz.png","FALSE","pictures/stimuli/E","pictures/stimuli/P","M","M","5",0.302560856440653,"23","F","right","8920",1,1,1,1,FALSE,"E_M_danker.png P_M_gantz.png"
11937,"E_M_danker.png","P_M_lapid.png","FALSE","pictures/stimuli/E","pictures/stimuli/P","M","M","4",-1.99185025239014,"23","F","right","9221",1,1,2,3,FALSE,"E_M_danker.png P_M_lapid.png"
5616,"P_F_shaked.png","P_M_smut.png","TRUE","pictures/stimuli/P","pictures/stimuli/P","F","M","5",-0.677782377549423,"23","F","right","9221",1,1,2,2,FALSE,"P_F_shaked.png P_M_smut.png"
3914,"E_F_galit_gutman.png","P_M_buji.png","FALSE","pictures/stimuli/E","pictures/stimuli/P","F","M","6",0.636285497291295,"23","F","right","9221",1,1,2,2,FALSE,"E_F_galit_gutman.png P_M_buji.png"
5450,"E_M_yuda.png","P_M_smut.png","FALSE","pictures/stimuli/E","pictures/stimuli/P","M","M","5",-0.677782377549423,"23","F","right","9221",1,1,2,2,FALSE,"E_M_yuda.png P_M_smut.png"
4431,"E_M_asi.png","P_F_staiv.png","FALSE","pictures/stimuli/E","pictures/stimuli/P","M","F","6",0.636285497291295,"23","F","right","9221",1,1,2,3,FALSE,"E_M_asi.png P_F_staiv.png"
3701,"P_F_staiv.png","P_M_buji.png","TRUE","pictures/stimuli/P","pictures/stimuli/P","F","M","6",0.636285497291295,"23","F","right","9221",1,1,3,2,FALSE,"P_F_staiv.png P_M_buji.png"
4924,"E_F_ilanit.png","E_M_liorA.png","TRUE","pictures/stimuli/E","pictures/stimuli/E","F","M","6",0.636285497291295,"23","F","right","9221",1,1,3,2,FALSE,"E_F_ilanit.png E_M_liorA.png"
3740,"E_F_ilanit.png","P_M_buji.png","FALSE","pictures/stimuli/E","pictures/stimuli/P","F","M","6",0.636285497291295,"23","F","right","9221",1,1,3,2,FALSE,"E_F_ilanit.png P_M_buji.png"
3129,"E_F_ninet.png","E_M_asi.png","TRUE","pictures/stimuli/E","pictures/stimuli/E","F","M","6",0.636285497291295,"23","F","right","9221",1,1,2,2,FALSE,"E_F_ninet.png E_M_asi.png"
5163,"E_F_rotem_sela.png","E_F_shiri.png","TRUE","pictures/stimuli/E","pictures/stimuli/E","F","F","6",0.636285497291295,"23","F","right","9221",1,1,2,2,FALSE,"E_F_rotem_sela.png E_F_shiri.png"
4563,"E_M_yuda.png","P_F_staiv.png","FALSE","pictures/stimuli/E","pictures/stimuli/P","M","F","6",0.636285497291295,"23","F","right","9221",1,1,2,3,FALSE,"E_M_yuda.png P_F_staiv.png"
3743,"E_F_ilanit.png","P_M_gantz.png","FALSE","pictures/stimuli/E","pictures/stimuli/P","F","M","6",0.636285497291295,"23","F","right","9221",1,1,3,3,FALSE,"E_F_ilanit.png P_M_gantz.png"
7821,"E_F_rotem_sela.png","E_M_yuda.png","TRUE","pictures/stimuli/E","pictures/stimuli/E","F","M","4",-1.99185025239014,"23","F","right","9221",1,1,2,2,FALSE,"E_F_rotem_sela.png E_M_yuda.png"
3616,"E_M_danker.png","E_M_liorA.png","TRUE","pictures/stimuli/E","pictures/stimuli/E","M","M","4",-1.99185025239014,"23","F","right","9221",1,1,2,2,FALSE,"E_M_danker.png E_M_liorA.png"
6795,"E_F_galit_gutman.png","P_F_shaked.png","FALSE","pictures/stimuli/E","pictures/stimuli/P","F","F","5",-0.677782377549423,"23","F","right","9221",1,1,2,2,FALSE,"E_F_galit_gutman.png P_F_shaked.png"
3414,"E_M_asi.png","P_F_michaeli.png","FALSE","pictures/stimuli/E","pictures/stimuli/P","M","F","6",0.636285497291295,"23","F","right","9221",1,1,2,2,FALSE,"E_M_asi.png P_F_michaeli.png"
3422,"P_M_lapid.png","P_M_buji.png","TRUE","pictures/stimuli/P","pictures/stimuli/P","M","M","6",0.636285497291295,"23","F","right","9221",1,1,3,2,FALSE,"P_M_buji.png P_M_lapid.png"
3700,"E_M_asi.png","P_F_regev.png","FALSE","pictures/stimuli/E","pictures/stimuli/P","M","F","5",-0.677782377549423,"23","F","right","9221",1,1,2,2,FALSE,"E_M_asi.png P_F_regev.png"
3849,"P_F_shaked.png","P_F_staiv.png","TRUE","pictures/stimuli/P","pictures/stimuli/P","F","F","5",-0.677782377549423,"23","F","right","9221",1,1,2,3,FALSE,"P_F_shaked.png P_F_staiv.png"
3360,"E_M_danker.png","P_F_staiv.png","FALSE","pictures/stimuli/E","pictures/stimuli/P","M","F","6",0.636285497291295,"23","F","right","9221",1,1,2,3,FALSE,"E_M_danker.png P_F_staiv.png"
4110,"E_M_asi.png","E_M_ido.png","TRUE","pictures/stimuli/E","pictures/stimuli/E","M","M","5",-0.677782377549423,"23","F","right","9221",1,1,2,3,FALSE,"E_M_asi.png E_M_ido.png"
3722,"E_M_yuda.png","P_M_lapid.png","FALSE","pictures/stimuli/E","pictures/stimuli/P","M","M","6",0.636285497291295,"23","F","right","9221",1,1,2,3,FALSE,"E_M_yuda.png P_M_lapid.png"
5630,"E_M_ido.png","E_M_yuda.png","TRUE","pictures/stimuli/E","pictures/stimuli/E","M","M","6",0.636285497291295,"23","F","right","9221",1,1,3,2,FALSE,"E_M_ido.png E_M_yuda.png"
3422,"P_F_michaeli.png","P_M_benet.png","TRUE","pictures/stimuli/P","pictures/stimuli/P","F","M","6",0.636285497291295,"23","F","right","9221",1,1,2,2,FALSE,"P_F_michaeli.png P_M_benet.png"
4462,"E_F_galit_gutman.png","E_F_rotem_sela.png","TRUE","pictures/stimuli/E","pictures/stimuli/E","F","F","5",-0.677782377549423,"23","F","right","9221",1,1,2,2,FALSE,"E_F_galit_gutman.png E_F_rotem_sela.png"
3313,"E_F_shiri.png","P_M_buji.png","FALSE","pictures/stimuli/E","pictures/stimuli/P","F","M","6",0.636285497291295,"23","F","right","9221",1,1,2,2,FALSE,"E_F_shiri.png P_M_buji.png"
3624,"E_F_ilanit.png","E_F_shiri.png","TRUE","pictures/stimuli/E","pictures/stimuli/E","F","F","6",0.636285497291295,"23","F","right","9221",1,1,3,2,FALSE,"E_F_ilanit.png E_F_shiri.png"
3805,"E_F_shiri.png","E_M_liorA.png","TRUE","pictures/stimuli/E","pictures/stimuli/E","F","M","6",0.636285497291295,"23","F","right","9221",1,1,2,2,FALSE,"E_F_shiri.png E_M_liorA.png"
3830,"P_F_shaked.png","P_M_gantz.png","TRUE","pictures/stimuli/P","pictures/stimuli/P","F","M","5",-0.677782377549423,"23","F","right","9221",1,1,2,3,FALSE,"P_F_shaked.png P_M_gantz.png"
3838,"E_M_asi.png","P_M_saar.png","FALSE","pictures/stimuli/E","pictures/stimuli/P","M","M","4",-1.99185025239014,"23","F","right","9221",1,1,2,3,FALSE,"E_M_asi.png P_M_saar.png"
3846,"E_M_danker.png","P_F_regev.png","FALSE","pictures/stimuli/E","pictures/stimuli/P","M","F","6",0.636285497291295,"23","F","right","9221",1,1,2,2,FALSE,"E_M_danker.png P_F_regev.png"
7245,"P_M_benet.png","P_M_smut.png","TRUE","pictures/stimuli/P","pictures/stimuli/P","M","M","5",-0.677782377549423,"23","F","right","9221",1,1,2,2,FALSE,"P_M_benet.png P_M_smut.png"
5428,"E_F_galit_gutman.png","P_M_gantz.png","FALSE","pictures/stimuli/E","pictures/stimuli/P","F","M","5",-0.677782377549423,"23","F","right","9221",1,1,2,3,FALSE,"E_F_galit_gutman.png P_M_gantz.png"
3688,"E_F_galit_gutman.png","E_M_danker.png","TRUE","pictures/stimuli/E","pictures/stimuli/E","F","M","6",0.636285497291295,"23","F","right","9221",1,1,2,2,FALSE,"E_F_galit_gutman.png E_M_danker.png"
5202,"E_F_shiri.png","P_M_smut.png","FALSE","pictures/stimuli/E","pictures/stimuli/P","F","M","6",0.636285497291295,"23","F","right","9221",1,1,2,2,FALSE,"E_F_shiri.png P_M_smut.png"
4476,"P_F_staiv.png","P_M_gantz.png","TRUE","pictures/stimuli/P","pictures/stimuli/P","F","M","6",0.636285497291295,"23","F","right","9221",1,1,3,3,FALSE,"P_F_staiv.png P_M_gantz.png"
4062,"E_M_ido.png","E_M_liorA.png","TRUE","pictures/stimuli/E","pictures/stimuli/E","M","M","3",-3.30591812723086,"23","F","right","9221",1,1,3,2,FALSE,"E_M_ido.png E_M_liorA.png"
4737,"P_M_lapid.png","P_M_saar.png","TRUE","pictures/stimuli/P","pictures/stimuli/P","M","M","6",0.636285497291295,"23","F","right","9221",1,1,3,3,FALSE,"P_M_lapid.png P_M_saar.png"
3369,"E_M_asi.png","E_M_danker.png","TRUE","pictures/stimuli/E","pictures/stimuli/E","M","M","4",-1.99185025239014,"23","F","right","9221",1,1,2,2,FALSE,"E_M_asi.png E_M_danker.png"
3904,"E_F_ilanit.png","P_F_shaked.png","FALSE","pictures/stimuli/E","pictures/stimuli/P","F","F","6",0.636285497291295,"23","F","right","9221",1,1,3,2,FALSE,"E_F_ilanit.png P_F_shaked.png"
4574,"E_M_danker.png","P_M_gantz.png","FALSE","pictures/stimuli/E","pictures/stimuli/P","M","M","6",0.636285497291295,"23","F","right","9221",1,1,2,3,FALSE,"E_M_danker.png P_M_gantz.png"
4903,"E_F_ilanit.png","E_M_asi.png","TRUE","pictures/stimuli/E","pictures/stimuli/E","F","M","4",-1.99185025239014,"23","F","right","9221",1,1,3,2,FALSE,"E_F_ilanit.png E_M_asi.png"
6310,"E_M_liorA.png","P_M_lapid.png","FALSE","pictures/stimuli/E","pictures/stimuli/P","M","M","6",0.636285497291295,"23","F","right","9221",1,1,2,3,FALSE,"E_M_liorA.png P_M_lapid.png"
5890,"E_M_ido.png","P_M_gantz.png","FALSE","pictures/stimuli/E","pictures/stimuli/P","M","M","5",-0.677782377549423,"23","F","right","9221",1,1,3,3,FALSE,"E_M_ido.png P_M_gantz.png"
3805,"E_M_ido.png","P_M_saar.png","FALSE","pictures/stimuli/E","pictures/stimuli/P","M","M","5",-0.677782377549423,"23","F","right","9221",1,1,3,3,FALSE,"E_M_ido.png P_M_saar.png"
5956,"P_F_michaeli.png","P_M_lapid.png","TRUE","pictures/stimuli/P","pictures/stimuli/P","F","M","6",0.636285497291295,"23","F","right","9221",1,1,2,3,FALSE,"P_F_michaeli.png P_M_lapid.png"
3828,"P_F_regev.png","P_M_saar.png","TRUE","pictures/stimuli/P","pictures/stimuli/P","F","M","6",0.636285497291295,"23","F","right","9221",1,1,2,3,FALSE,"P_F_regev.png P_M_saar.png"
3918,"E_M_liorA.png","P_M_buji.png","FALSE","pictures/stimuli/E","pictures/stimuli/P","M","M","4",-1.99185025239014,"23","F","right","9221",1,1,2,2,FALSE,"E_M_liorA.png P_M_buji.png"
3485,"E_F_shiri.png","E_M_ido.png","TRUE","pictures/stimuli/E","pictures/stimuli/E","F","M","6",0.636285497291295,"23","F","right","9221",1,1,2,3,FALSE,"E_F_shiri.png E_M_ido.png"
3944,"E_M_asi.png","P_M_gantz.png","FALSE","pictures/stimuli/E","pictures/stimuli/P","M","M","6",0.636285497291295,"23","F","right","9221",1,1,2,3,FALSE,"E_M_asi.png P_M_gantz.png"
3198,"E_F_rotem_sela.png","P_M_benet.png","FALSE","pictures/stimuli/E","pictures/stimuli/P","F","M","5",-0.677782377549423,"23","F","right","9221",1,1,2,2,FALSE,"E_F_rotem_sela.png P_M_benet.png"
3486,"E_M_liorA.png","P_F_regev.png","FALSE","pictures/stimuli/E","pictures/stimuli/P","M","F","6",0.636285497291295,"23","F","right","9221",1,1,2,2,FALSE,"E_M_liorA.png P_F_regev.png"
4748,"E_M_yuda.png","P_M_saar.png","FALSE","pictures/stimuli/E","pictures/stimuli/P","M","M","4",-1.99185025239014,"23","F","right","9221",1,1,2,3,FALSE,"E_M_yuda.png P_M_saar.png"
4543,"E_F_ninet.png","P_M_buji.png","FALSE","pictures/stimuli/E","pictures/stimuli/P","F","M","6",0.636285497291295,"23","F","right","9221",1,1,2,2,FALSE,"E_F_ninet.png P_M_buji.png"
4049,"P_F_michaeli.png","P_M_buji.png","TRUE","pictures/stimuli/P","pictures/stimuli/P","F","M","6",0.636285497291295,"23","F","right","9221",1,1,2,2,FALSE,"P_F_michaeli.png P_M_buji.png"
3146,"E_M_asi.png","E_M_liorA.png","TRUE","pictures/stimuli/E","pictures/stimuli/E","M","M","5",-0.677782377549423,"23","F","right","9221",1,1,2,2,FALSE,"E_M_asi.png E_M_liorA.png"
3516,"E_F_ilanit.png","E_F_ninet.png","TRUE","pictures/stimuli/E","pictures/stimuli/E","F","F","6",0.636285497291295,"23","F","right","9221",1,1,3,2,FALSE,"E_F_ilanit.png E_F_ninet.png"
3953,"E_F_rotem_sela.png","P_M_saar.png","FALSE","pictures/stimuli/E","pictures/stimuli/P","F","M","6",0.636285497291295,"23","F","right","9221",1,1,2,3,FALSE,"E_F_rotem_sela.png P_M_saar.png"
3259,"E_F_ilanit.png","P_F_regev.png","FALSE","pictures/stimuli/E","pictures/stimuli/P","F","F","6",0.636285497291295,"23","F","right","9221",1,1,3,2,FALSE,"E_F_ilanit.png P_F_regev.png"
3623,"E_M_ido.png","P_F_michaeli.png","FALSE","pictures/stimuli/E","pictures/stimuli/P","M","F","6",0.636285497291295,"23","F","right","9221",1,1,3,2,FALSE,"E_M_ido.png P_F_michaeli.png"
9594,"E_F_galit_gutman.png","E_M_liorA.png","TRUE","pictures/stimuli/E","pictures/stimuli/E","F","M","4",-1.99185025239014,"23","F","right","9221",1,1,2,2,FALSE,"E_F_galit_gutman.png E_M_liorA.png"
4159,"P_M_gantz.png","P_M_saar.png","TRUE","pictures/stimuli/P","pictures/stimuli/P","M","M","6",0.636285497291295,"23","F","right","9221",1,1,3,3,FALSE,"P_M_gantz.png P_M_saar.png"
2661,"P_F_michaeli.png","P_M_saar.png","TRUE","pictures/stimuli/P","pictures/stimuli/P","F","M","6",0.636285497291295,"23","F","right","9221",1,1,2,3,FALSE,"P_F_michaeli.png P_M_saar.png"
11268,"E_F_ninet.png","P_M_benet.png","FALSE","pictures/stimuli/E","pictures/stimuli/P","F","M","5",-0.677782377549423,"23","F","right","9221",1,1,2,2,FALSE,"E_F_ninet.png P_M_benet.png"
4329,"E_F_galit_gutman.png","P_F_staiv.png","FALSE","pictures/stimuli/E","pictures/stimuli/P","F","F","5",-0.677782377549423,"23","F","right","9221",1,1,2,3,FALSE,"E_F_galit_gutman.png P_F_staiv.png"
3342,"E_M_danker.png","P_M_smut.png","FALSE","pictures/stimuli/E","pictures/stimuli/P","M","M","5",-0.677782377549423,"23","F","right","9221",1,1,2,2,FALSE,"E_M_danker.png P_M_smut.png"
4707,"E_M_liorA.png","P_M_benet.png","FALSE","pictures/stimuli/E","pictures/stimuli/P","M","M","6",0.636285497291295,"23","F","right","9221",1,1,2,2,FALSE,"E_M_liorA.png P_M_benet.png"
3298,"E_F_rotem_sela.png","P_M_smut.png","FALSE","pictures/stimuli/E","pictures/stimuli/P","F","M","6",0.636285497291295,"23","F","right","9221",1,1,2,2,FALSE,"E_F_rotem_sela.png P_M_smut.png"
3283,"E_M_liorA.png","P_F_shaked.png","FALSE","pictures/stimuli/E","pictures/stimuli/P","M","F","6",0.636285497291295,"23","F","right","9221",1,1,2,2,FALSE,"E_M_liorA.png P_F_shaked.png"
3334,"P_F_shaked.png","P_M_benet.png","TRUE","pictures/stimuli/P","pictures/stimuli/P","F","M","5",-0.677782377549423,"23","F","right","9221",1,1,2,2,FALSE,"P_F_shaked.png P_M_benet.png"
3164,"P_M_benet.png","P_M_buji.png","TRUE","pictures/stimuli/P","pictures/stimuli/P","M","M","6",0.636285497291295,"23","F","right","9221",1,1,2,2,FALSE,"P_M_benet.png P_M_buji.png"
3005,"E_F_rotem_sela.png","P_F_regev.png","FALSE","pictures/stimuli/E","pictures/stimuli/P","F","F","6",0.636285497291295,"23","F","right","9221",1,1,2,2,FALSE,"E_F_rotem_sela.png P_F_regev.png"
8407,"E_M_liorA.png","P_M_gantz.png","FALSE","pictures/stimuli/E","pictures/stimuli/P","M","M","1",-5.9340538769123,"23","F","right","9221",1,1,2,3,FALSE,"E_M_liorA.png P_M_gantz.png"
3807,"E_F_ninet.png","P_M_saar.png","FALSE","pictures/stimuli/E","pictures/stimuli/P","F","M","6",0.636285497291295,"23","F","right","9221",1,1,2,3,FALSE,"E_F_ninet.png P_M_saar.png"
3096,"P_F_shaked.png","P_M_saar.png","TRUE","pictures/stimuli/P","pictures/stimuli/P","F","M","6",0.636285497291295,"23","F","right","9221",1,1,2,3,FALSE,"P_F_shaked.png P_M_saar.png"
4954,"E_F_rotem_sela.png","E_M_ido.png","TRUE","pictures/stimuli/E","pictures/stimuli/E","F","M","5",-0.677782377549423,"23","F","right","9221",1,1,2,3,FALSE,"E_F_rotem_sela.png E_M_ido.png"
2933,"E_F_shiri.png","P_F_regev.png","FALSE","pictures/stimuli/E","pictures/stimuli/P","F","F","6",0.636285497291295,"23","F","right","9221",1,1,2,2,FALSE,"E_F_shiri.png P_F_regev.png"
3784,"E_F_galit_gutman.png","E_M_asi.png","TRUE","pictures/stimuli/E","pictures/stimuli/E","F","M","6",0.636285497291295,"23","F","right","9221",1,1,2,2,FALSE,"E_F_galit_gutman.png E_M_asi.png"
3011,"E_F_rotem_sela.png","E_M_asi.png","TRUE","pictures/stimuli/E","pictures/stimuli/E","F","M","6",0.636285497291295,"23","F","right","9221",1,1,2,2,FALSE,"E_F_rotem_sela.png E_M_asi.png"
2598,"E_F_galit_gutman.png","P_F_regev.png","FALSE","pictures/stimuli/E","pictures/stimuli/P","F","F","6",0.636285497291295,"23","F","right","9221",1,1,2,2,FALSE,"E_F_galit_gutman.png P_F_regev.png"
4741,"E_M_asi.png","P_M_smut.png","FALSE","pictures/stimuli/E","pictures/stimuli/P","M","M","5",-0.677782377549423,"23","F","right","9221",1,1,2,2,FALSE,"E_M_asi.png P_M_smut.png"
3170,"P_M_gantz.png","P_M_benet.png","TRUE","pictures/stimuli/P","pictures/stimuli/P","M","M","5",-0.677782377549423,"23","F","right","9221",1,1,3,2,FALSE,"P_M_benet.png P_M_gantz.png"
2667,"P_F_regev.png","P_F_shaked.png","TRUE","pictures/stimuli/P","pictures/stimuli/P","F","F","6",0.636285497291295,"23","F","right","9221",1,1,2,2,FALSE,"P_F_regev.png P_F_shaked.png"
3556,"P_F_michaeli.png","P_F_shaked.png","TRUE","pictures/stimuli/P","pictures/stimuli/P","F","F","6",0.636285497291295,"23","F","right","9221",1,1,2,2,FALSE,"P_F_michaeli.png P_F_shaked.png"
4133,"E_F_ninet.png","P_M_lapid.png","FALSE","pictures/stimuli/E","pictures/stimuli/P","F","M","6",0.636285497291295,"23","F","right","9221",1,1,2,3,FALSE,"E_F_ninet.png P_M_lapid.png"
3966,"E_F_ilanit.png","E_M_danker.png","TRUE","pictures/stimuli/E","pictures/stimuli/E","F","M","6",0.636285497291295,"23","F","right","9221",1,1,3,2,FALSE,"E_F_ilanit.png E_M_danker.png"
6591,"E_F_ilanit.png","P_M_lapid.png","FALSE","pictures/stimuli/E","pictures/stimuli/P","F","M","6",0.636285497291295,"23","F","right","9221",1,1,3,3,FALSE,"E_F_ilanit.png P_M_lapid.png"
3737,"P_F_michaeli.png","P_F_regev.png","TRUE","pictures/stimuli/P","pictures/stimuli/P","F","F","6",0.636285497291295,"23","F","right","9221",1,1,2,2,FALSE,"P_F_michaeli.png P_F_regev.png"
3033,"E_M_yuda.png","P_F_michaeli.png","FALSE","pictures/stimuli/E","pictures/stimuli/P","M","F","6",0.636285497291295,"23","F","right","9221",1,1,2,2,FALSE,"E_M_yuda.png P_F_michaeli.png"
4891,"P_F_regev.png","P_M_smut.png","TRUE","pictures/stimuli/P","pictures/stimuli/P","F","M","6",0.636285497291295,"23","F","right","9221",1,1,2,2,FALSE,"P_F_regev.png P_M_smut.png"
5872,"E_F_shiri.png","P_M_gantz.png","FALSE","pictures/stimuli/E","pictures/stimuli/P","F","M","6",0.636285497291295,"23","F","right","9221",1,1,2,3,FALSE,"E_F_shiri.png P_M_gantz.png"
6899,"P_M_buji.png","P_M_smut.png","TRUE","pictures/stimuli/P","pictures/stimuli/P","M","M","5",-0.677782377549423,"23","F","right","9221",1,1,2,2,FALSE,"P_M_buji.png P_M_smut.png"
4406,"E_F_shiri.png","P_F_staiv.png","FALSE","pictures/stimuli/E","pictures/stimuli/P","F","F","6",0.636285497291295,"23","F","right","9221",1,1,2,3,FALSE,"E_F_shiri.png P_F_staiv.png"
2177,"E_F_ninet.png","P_F_regev.png","FALSE","pictures/stimuli/E","pictures/stimuli/P","F","F","6",0.636285497291295,"23","F","right","9221",1,1,2,2,FALSE,"E_F_ninet.png P_F_regev.png"
3923,"P_F_regev.png","P_F_staiv.png","TRUE","pictures/stimuli/P","pictures/stimuli/P","F","F","6",0.636285497291295,"23","F","right","9221",1,1,2,3,FALSE,"P_F_regev.png P_F_staiv.png"
3713,"P_F_staiv.png","P_M_saar.png","TRUE","pictures/stimuli/P","pictures/stimuli/P","F","M","6",0.636285497291295,"23","F","right","9221",1,1,3,3,FALSE,"P_F_staiv.png P_M_saar.png"
2105,"E_M_yuda.png","P_M_buji.png","FALSE","pictures/stimuli/E","pictures/stimuli/P","M","M","5",-0.677782377549423,"23","F","right","9221",1,1,2,2,FALSE,"E_M_yuda.png P_M_buji.png"
1927,"E_F_ilanit.png","P_M_saar.png","FALSE","pictures/stimuli/E","pictures/stimuli/P","F","M","6",0.636285497291295,"23","F","right","9221",1,1,3,3,FALSE,"E_F_ilanit.png P_M_saar.png"
5973,"E_M_ido.png","P_M_benet.png","FALSE","pictures/stimuli/E","pictures/stimuli/P","M","M","5",-0.677782377549423,"23","F","right","9221",1,1,3,2,FALSE,"E_M_ido.png P_M_benet.png"
6258,"E_F_ilanit.png","E_F_rotem_sela.png","TRUE","pictures/stimuli/E","pictures/stimuli/E","F","F","6",0.636285497291295,"23","F","right","9221",1,1,3,2,FALSE,"E_F_ilanit.png E_F_rotem_sela.png"
3644,"E_F_rotem_sela.png","P_F_shaked.png","FALSE","pictures/stimuli/E","pictures/stimuli/P","F","F","4",-1.99185025239014,"23","F","right","9221",1,1,2,2,FALSE,"E_F_rotem_sela.png P_F_shaked.png"
4206,"E_M_ido.png","P_F_regev.png","FALSE","pictures/stimuli/E","pictures/stimuli/P","M","F","6",0.636285497291295,"23","F","right","9221",1,1,3,2,FALSE,"E_M_ido.png P_F_regev.png"
3163,"E_F_galit_gutman.png","P_M_lapid.png","FALSE","pictures/stimuli/E","pictures/stimuli/P","F","M","6",0.636285497291295,"23","F","right","9221",1,1,2,3,FALSE,"E_F_galit_gutman.png P_M_lapid.png"
2622,"E_F_ninet.png","P_M_smut.png","FALSE","pictures/stimuli/E","pictures/stimuli/P","F","M","5",-0.677782377549423,"23","F","right","9221",1,1,2,2,FALSE,"E_F_ninet.png P_M_smut.png"
2214,"E_M_yuda.png","P_F_shaked.png","FALSE","pictures/stimuli/E","pictures/stimuli/P","M","F","5",-0.677782377549423,"23","F","right","9221",1,1,2,2,FALSE,"E_M_yuda.png P_F_shaked.png"
2386,"E_M_asi.png","E_M_yuda.png","TRUE","pictures/stimuli/E","pictures/stimuli/E","M","M","6",0.636285497291295,"23","F","right","9221",1,1,2,2,FALSE,"E_M_asi.png E_M_yuda.png"
3376,"P_M_benet.png","P_M_saar.png","TRUE","pictures/stimuli/P","pictures/stimuli/P","M","M","6",0.636285497291295,"23","F","right","9221",1,1,2,3,FALSE,"P_M_benet.png P_M_saar.png"
2296,"P_F_regev.png","P_M_lapid.png","TRUE","pictures/stimuli/P","pictures/stimuli/P","F","M","6",0.636285497291295,"23","F","right","9221",1,1,2,3,FALSE,"P_F_regev.png P_M_lapid.png"
1926,"P_F_shaked.png","P_M_lapid.png","TRUE","pictures/stimuli/P","pictures/stimuli/P","F","M","6",0.636285497291295,"23","F","right","9221",1,1,2,3,FALSE,"P_F_shaked.png P_M_lapid.png"
3844,"E_M_ido.png","P_M_lapid.png","FALSE","pictures/stimuli/E","pictures/stimuli/P","M","M","6",0.636285497291295,"23","F","right","9221",1,1,3,3,FALSE,"E_M_ido.png P_M_lapid.png"
3446,"E_M_ido.png","P_F_shaked.png","FALSE","pictures/stimuli/E","pictures/stimuli/P","M","F","5",-0.677782377549423,"23","F","right","9221",1,1,3,2,FALSE,"E_M_ido.png P_F_shaked.png"
2106,"P_F_staiv.png","P_M_lapid.png","TRUE","pictures/stimuli/P","pictures/stimuli/P","F","M","6",0.636285497291295,"23","F","right","9221",1,1,3,3,FALSE,"P_F_staiv.png P_M_lapid.png"
1966,"P_F_regev.png","P_M_buji.png","TRUE","pictures/stimuli/P","pictures/stimuli/P","F","M","6",0.636285497291295,"23","F","right","9221",1,1,2,2,FALSE,"P_F_regev.png P_M_buji.png"
2976,"E_M_danker.png","P_F_michaeli.png","FALSE","pictures/stimuli/E","pictures/stimuli/P","M","F","6",0.636285497291295,"23","F","right","9221",1,1,2,2,FALSE,"E_M_danker.png P_F_michaeli.png"
1951,"E_M_ido.png","P_M_buji.png","FALSE","pictures/stimuli/E","pictures/stimuli/P","M","M","5",-0.677782377549423,"23","F","right","9221",1,1,3,2,FALSE,"E_M_ido.png P_M_buji.png"
1785,"E_F_ilanit.png","P_F_michaeli.png","FALSE","pictures/stimuli/E","pictures/stimuli/P","F","F","6",0.636285497291295,"23","F","right","9221",1,1,3,2,FALSE,"E_F_ilanit.png P_F_michaeli.png"
1832,"P_M_buji.png","P_M_saar.png","TRUE","pictures/stimuli/P","pictures/stimuli/P","M","M","6",0.636285497291295,"23","F","right","9221",1,1,2,3,FALSE,"P_M_buji.png P_M_saar.png"
1928,"E_F_rotem_sela.png","P_F_staiv.png","FALSE","pictures/stimuli/E","pictures/stimuli/P","F","F","5",-0.677782377549423,"23","F","right","9221",1,1,2,3,FALSE,"E_F_rotem_sela.png P_F_staiv.png"
3104,"E_F_ninet.png","P_F_staiv.png","FALSE","pictures/stimuli/E","pictures/stimuli/P","F","F","5",-0.677782377549423,"23","F","right","9221",1,1,2,3,FALSE,"E_F_ninet.png P_F_staiv.png"
3894,"E_F_ninet.png","E_M_liorA.png","TRUE","pictures/stimuli/E","pictures/stimuli/E","F","M","4",-1.99185025239014,"23","F","right","9221",1,1,2,2,FALSE,"E_F_ninet.png E_M_liorA.png"
2074,"E_M_danker.png","E_M_ido.png","TRUE","pictures/stimuli/E","pictures/stimuli/E","M","M","5",-0.677782377549423,"23","F","right","9221",1,1,2,3,FALSE,"E_M_danker.png E_M_ido.png"
2162,"E_M_ido.png","P_M_smut.png","FALSE","pictures/stimuli/E","pictures/stimuli/P","M","M","5",-0.677782377549423,"23","F","right","9221",1,1,3,2,FALSE,"E_M_ido.png P_M_smut.png"
1871,"P_F_shaked.png","P_M_buji.png","TRUE","pictures/stimuli/P","pictures/stimuli/P","F","M","6",0.636285497291295,"23","F","right","9221",1,1,2,2,FALSE,"P_F_shaked.png P_M_buji.png"
1927,"E_M_liorA.png","P_F_staiv.png","FALSE","pictures/stimuli/E","pictures/stimuli/P","M","F","5",-0.677782377549423,"23","F","right","9221",1,1,2,3,FALSE,"E_M_liorA.png P_F_staiv.png"
2547,"E_F_shiri.png","E_M_danker.png","TRUE","pictures/stimuli/E","pictures/stimuli/E","F","M","6",0.636285497291295,"23","F","right","9221",1,1,2,2,FALSE,"E_F_shiri.png E_M_danker.png"
2124,"E_M_asi.png","P_M_benet.png","FALSE","pictures/stimuli/E","pictures/stimuli/P","M","M","6",0.636285497291295,"23","F","right","9221",1,1,2,2,FALSE,"E_M_asi.png P_M_benet.png"
3131,"P_F_staiv.png","P_M_benet.png","TRUE","pictures/stimuli/P","pictures/stimuli/P","F","M","4",-1.99185025239014,"23","F","right","9221",1,1,3,2,FALSE,"P_F_staiv.png P_M_benet.png"
2925,"E_F_rotem_sela.png","E_M_liorA.png","TRUE","pictures/stimuli/E","pictures/stimuli/E","F","M","5",-0.677782377549423,"23","F","right","9221",1,1,2,2,FALSE,"E_F_rotem_sela.png E_M_liorA.png"
2112,"E_F_ninet.png","E_M_ido.png","TRUE","pictures/stimuli/E","pictures/stimuli/E","F","M","6",0.636285497291295,"23","F","right","9221",1,1,2,3,FALSE,"E_F_ninet.png E_M_ido.png"
3665,"E_F_rotem_sela.png","P_M_gantz.png","FALSE","pictures/stimuli/E","pictures/stimuli/P","F","M","4",-1.99185025239014,"23","F","right","9221",1,1,2,3,FALSE,"E_F_rotem_sela.png P_M_gantz.png"
1947,"E_F_ilanit.png","E_M_ido.png","TRUE","pictures/stimuli/E","pictures/stimuli/E","F","M","6",0.636285497291295,"23","F","right","9221",1,1,3,3,FALSE,"E_F_ilanit.png E_M_ido.png"
1914,"E_F_ninet.png","E_F_shiri.png","TRUE","pictures/stimuli/E","pictures/stimuli/E","F","F","6",0.636285497291295,"23","F","right","9221",1,1,2,2,FALSE,"E_F_ninet.png E_F_shiri.png"
4689,"E_M_liorA.png","E_M_yuda.png","TRUE","pictures/stimuli/E","pictures/stimuli/E","M","M","3",-3.30591812723086,"23","F","right","9221",1,1,2,2,FALSE,"E_M_liorA.png E_M_yuda.png"
2967,"E_F_ninet.png","P_M_gantz.png","FALSE","pictures/stimuli/E","pictures/stimuli/P","F","M","5",-0.677782377549423,"23","F","right","9221",1,1,2,3,FALSE,"E_F_ninet.png P_M_gantz.png"
2895,"P_M_gantz.png","P_M_smut.png","TRUE","pictures/stimuli/P","pictures/stimuli/P","M","M","5",-0.677782377549423,"23","F","right","9221",1,1,3,2,FALSE,"P_M_gantz.png P_M_smut.png"
2096,"P_F_michaeli.png","P_F_staiv.png","TRUE","pictures/stimuli/P","pictures/stimuli/P","F","F","6",0.636285497291295,"23","F","right","9221",1,1,2,3,FALSE,"P_F_michaeli.png P_F_staiv.png"
2160,"P_F_michaeli.png","P_M_smut.png","TRUE","pictures/stimuli/P","pictures/stimuli/P","F","M","6",0.636285497291295,"23","F","right","9221",1,1,2,2,FALSE,"P_F_michaeli.png P_M_smut.png"
3889,"E_M_danker.png","P_M_buji.png","FALSE","pictures/stimuli/E","pictures/stimuli/P","M","M","5",-0.677782377549423,"23","F","right","9221",1,1,2,2,FALSE,"E_M_danker.png P_M_buji.png"
1987,"E_F_shiri.png","P_M_saar.png","FALSE","pictures/stimuli/E","pictures/stimuli/P","F","M","6",0.636285497291295,"23","F","right","9221",1,1,2,3,FALSE,"E_F_shiri.png P_M_saar.png"
1705,"P_F_regev.png","P_M_benet.png","TRUE","pictures/stimuli/P","pictures/stimuli/P","F","M","6",0.636285497291295,"23","F","right","9221",1,1,2,2,FALSE,"P_F_regev.png P_M_benet.png"
1774,"E_M_yuda.png","P_M_benet.png","FALSE","pictures/stimuli/E","pictures/stimuli/P","M","M","6",0.636285497291295,"23","F","right","9221",1,1,2,2,FALSE,"E_M_yuda.png P_M_benet.png"
1779,"E_F_rotem_sela.png","P_M_lapid.png","FALSE","pictures/stimuli/E","pictures/stimuli/P","F","M","6",0.636285497291295,"23","F","right","9221",1,1,2,3,FALSE,"E_F_rotem_sela.png P_M_lapid.png"
1789,"P_M_lapid.png","P_M_smut.png","TRUE","pictures/stimuli/P","pictures/stimuli/P","M","M","6",0.636285497291295,"23","F","right","9221",1,1,3,2,FALSE,"P_M_lapid.png P_M_smut.png"
3910,"E_F_rotem_sela.png","E_M_danker.png","TRUE","pictures/stimuli/E","pictures/stimuli/E","F","M","6",0.636285497291295,"23","F","right","9221",1,1,2,2,FALSE,"E_F_rotem_sela.png E_M_danker.png"
2475,"P_M_lapid.png","P_M_benet.png","TRUE","pictures/stimuli/P","pictures/stimuli/P","M","M","6",0.636285497291295,"23","F","right","9221",1,1,3,2,FALSE,"P_M_benet.png P_M_lapid.png"
1859,"P_F_regev.png","P_M_gantz.png","TRUE","pictures/stimuli/P","pictures/stimuli/P","F","M","6",0.636285497291295,"23","F","right","9221",1,1,2,3,FALSE,"P_F_regev.png P_M_gantz.png"
1753,"E_F_ilanit.png","E_M_yuda.png","TRUE","pictures/stimuli/E","pictures/stimuli/E","F","M","6",0.636285497291295,"23","F","right","9221",1,1,3,2,FALSE,"E_F_ilanit.png E_M_yuda.png"
2424,"E_M_danker.png","P_M_saar.png","FALSE","pictures/stimuli/E","pictures/stimuli/P","M","M","5",-0.677782377549423,"23","F","right","9221",1,1,2,3,FALSE,"E_M_danker.png P_M_saar.png"
1835,"E_F_ilanit.png","P_M_smut.png","FALSE","pictures/stimuli/E","pictures/stimuli/P","F","M","6",0.636285497291295,"23","F","right","9221",1,1,3,2,FALSE,"E_F_ilanit.png P_M_smut.png"
3905,"E_M_liorA.png","P_M_saar.png","FALSE","pictures/stimuli/E","pictures/stimuli/P","M","M","5",-0.677782377549423,"23","F","right","9221",1,1,2,3,FALSE,"E_M_liorA.png P_M_saar.png"
1766,"E_F_shiri.png","P_M_lapid.png","FALSE","pictures/stimuli/E","pictures/stimuli/P","F","M","6",0.636285497291295,"23","F","right","9221",1,1,2,3,FALSE,"E_F_shiri.png P_M_lapid.png"
3872,"P_M_saar.png","P_M_smut.png","TRUE","pictures/stimuli/P","pictures/stimuli/P","M","M","6",0.636285497291295,"23","F","right","9221",1,1,3,2,FALSE,"P_M_saar.png P_M_smut.png"
2264,"E_F_ninet.png","E_M_yuda.png","TRUE","pictures/stimuli/E","pictures/stimuli/E","F","M","5",-0.677782377549423,"23","F","right","9221",1,1,2,2,FALSE,"E_F_ninet.png E_M_yuda.png"
2407,"E_F_galit_gutman.png","P_M_saar.png","FALSE","pictures/stimuli/E","pictures/stimuli/P","F","M","6",0.636285497291295,"23","F","right","9221",1,1,2,3,FALSE,"E_F_galit_gutman.png P_M_saar.png"
1915,"E_F_shiri.png","E_M_yuda.png","TRUE","pictures/stimuli/E","pictures/stimuli/E","F","M","6",0.636285497291295,"23","F","right","9221",1,1,2,2,FALSE,"E_F_shiri.png E_M_yuda.png"
1940,"E_F_galit_gutman.png","P_F_michaeli.png","FALSE","pictures/stimuli/E","pictures/stimuli/P","F","F","6",0.636285497291295,"23","F","right","9221",1,1,2,2,FALSE,"E_F_galit_gutman.png P_F_michaeli.png"
3001,"E_F_galit_gutman.png","E_F_ninet.png","TRUE","pictures/stimuli/E","pictures/stimuli/E","F","F","5",-0.677782377549423,"23","F","right","9221",1,1,2,2,FALSE,"E_F_galit_gutman.png E_F_ninet.png"
2319,"E_F_ilanit.png","P_M_benet.png","FALSE","pictures/stimuli/E","pictures/stimuli/P","F","M","6",0.636285497291295,"23","F","right","9221",1,1,3,2,FALSE,"E_F_ilanit.png P_M_benet.png"
1878,"E_M_danker.png","E_M_yuda.png","TRUE","pictures/stimuli/E","pictures/stimuli/E","M","M","5",-0.677782377549423,"23","F","right","9221",1,1,2,2,FALSE,"E_M_danker.png E_M_yuda.png"
2138,"E_M_asi.png","P_F_shaked.png","FALSE","pictures/stimuli/E","pictures/stimuli/P","M","F","6",0.636285497291295,"23","F","right","9221",1,1,2,2,FALSE,"E_M_asi.png P_F_shaked.png"
2247,"E_F_ninet.png","P_F_michaeli.png","FALSE","pictures/stimuli/E","pictures/stimuli/P","F","F","6",0.636285497291295,"23","F","right","9221",1,1,2,2,FALSE,"E_F_ninet.png P_F_michaeli.png"
2040,"P_F_michaeli.png","P_M_gantz.png","TRUE","pictures/stimuli/P","pictures/stimuli/P","F","M","6",0.636285497291295,"23","F","right","9221",1,1,2,3,FALSE,"P_F_michaeli.png P_M_gantz.png"
1646,"E_F_rotem_sela.png","P_F_michaeli.png","FALSE","pictures/stimuli/E","pictures/stimuli/P","F","F","6",0.636285497291295,"23","F","right","9221",1,1,2,2,FALSE,"E_F_rotem_sela.png P_F_michaeli.png"
2609,"P_F_staiv.png","P_M_smut.png","TRUE","pictures/stimuli/P","pictures/stimuli/P","F","M","5",-0.677782377549423,"23","F","right","9221",1,1,3,2,FALSE,"P_F_staiv.png P_M_smut.png"
2781,"E_M_liorA.png","P_F_michaeli.png","FALSE","pictures/stimuli/E","pictures/stimuli/P","M","F","6",0.636285497291295,"23","F","right","9221",1,1,2,2,FALSE,"E_M_liorA.png P_F_michaeli.png"
2011,"P_M_gantz.png","P_M_lapid.png","TRUE","pictures/stimuli/P","pictures/stimuli/P","M","M","6",0.636285497291295,"23","F","right","9221",1,1,3,3,FALSE,"P_M_gantz.png P_M_lapid.png"
2021,"E_F_ninet.png","E_M_danker.png","TRUE","pictures/stimuli/E","pictures/stimuli/E","F","M","5",-0.677782377549423,"23","F","right","9221",1,1,2,2,FALSE,"E_F_ninet.png E_M_danker.png"
2051,"E_F_shiri.png","P_M_benet.png","FALSE","pictures/stimuli/E","pictures/stimuli/P","F","M","6",0.636285497291295,"23","F","right","9221",1,1,2,2,FALSE,"E_F_shiri.png P_M_benet.png"
2698,"P_M_gantz.png","P_M_buji.png","TRUE","pictures/stimuli/P","pictures/stimuli/P","M","M","5",-0.677782377549423,"23","F","right","9221",1,1,3,2,FALSE,"P_M_buji.png P_M_gantz.png"
1933,"E_M_danker.png","P_F_shaked.png","FALSE","pictures/stimuli/E","pictures/stimuli/P","M","F","6",0.636285497291295,"23","F","right","9221",1,1,2,2,FALSE,"E_M_danker.png P_F_shaked.png"
2341,"E_F_galit_gutman.png","E_F_shiri.png","TRUE","pictures/stimuli/E","pictures/stimuli/E","F","F","6",0.636285497291295,"23","F","right","9221",1,1,2,2,FALSE,"E_F_galit_gutman.png E_F_shiri.png"
1810,"E_M_asi.png","P_M_lapid.png","FALSE","pictures/stimuli/E","pictures/stimuli/P","M","M","6",0.636285497291295,"23","F","right","9221",1,1,2,3,FALSE,"E_M_asi.png P_M_lapid.png"
2054,"E_F_shiri.png","E_M_asi.png","TRUE","pictures/stimuli/E","pictures/stimuli/E","F","M","6",0.636285497291295,"23","F","right","9221",1,1,2,2,FALSE,"E_F_shiri.png E_M_asi.png"
1620,"E_M_danker.png","P_M_benet.png","FALSE","pictures/stimuli/E","pictures/stimuli/P","M","M","6",0.636285497291295,"23","F","right","9221",1,1,2,2,FALSE,"E_M_danker.png P_M_benet.png"
1677,"E_F_galit_gutman.png","E_F_ilanit.png","TRUE","pictures/stimuli/E","pictures/stimuli/E","F","F","6",0.636285497291295,"23","F","right","9221",1,1,2,3,FALSE,"E_F_galit_gutman.png E_F_ilanit.png"
1820,"E_F_galit_gutman.png","E_M_ido.png","TRUE","pictures/stimuli/E","pictures/stimuli/E","F","M","6",0.636285497291295,"23","F","right","9221",1,1,2,3,FALSE,"E_F_galit_gutman.png E_M_ido.png"
3212,"E_M_yuda.png","P_M_gantz.png","FALSE","pictures/stimuli/E","pictures/stimuli/P","M","M","6",0.636285497291295,"23","F","right","9221",1,1,2,3,FALSE,"E_M_yuda.png P_M_gantz.png"
2200,"E_F_galit_gutman.png","P_M_benet.png","FALSE","pictures/stimuli/E","pictures/stimuli/P","F","M","5",-0.677782377549423,"23","F","right","9221",1,1,2,2,FALSE,"E_F_galit_gutman.png P_M_benet.png"
2175,"E_F_galit_gutman.png","P_M_smut.png","FALSE","pictures/stimuli/E","pictures/stimuli/P","F","M","5",-0.677782377549423,"23","F","right","9221",1,1,2,2,FALSE,"E_F_galit_gutman.png P_M_smut.png"
3268,"E_M_ido.png","P_F_staiv.png","FALSE","pictures/stimuli/E","pictures/stimuli/P","M","F","6",0.636285497291295,"23","F","right","9221",1,1,3,3,FALSE,"E_M_ido.png P_F_staiv.png"
1988,"E_F_galit_gutman.png","E_M_yuda.png","TRUE","pictures/stimuli/E","pictures/stimuli/E","F","M","5",-0.677782377549423,"23","F","right","9221",1,1,2,2,FALSE,"E_F_galit_gutman.png E_M_yuda.png"
1705,"E_M_yuda.png","P_F_regev.png","FALSE","pictures/stimuli/E","pictures/stimuli/P","M","F","6",0.636285497291295,"23","F","right","9221",1,1,2,2,FALSE,"E_M_yuda.png P_F_regev.png"
1986,"E_F_ninet.png","P_F_shaked.png","FALSE","pictures/stimuli/E","pictures/stimuli/P","F","F","4",-1.99185025239014,"23","F","right","9221",1,1,2,2,FALSE,"E_F_ninet.png P_F_shaked.png"
1680,"E_F_ilanit.png","P_F_staiv.png","FALSE","pictures/stimuli/E","pictures/stimuli/P","F","F","6",0.636285497291295,"23","F","right","9221",1,1,3,3,FALSE,"E_F_ilanit.png P_F_staiv.png"
3182,"E_F_ninet.png","E_F_rotem_sela.png","TRUE","pictures/stimuli/E","pictures/stimuli/E","F","F","5",-0.677782377549423,"23","F","right","9221",1,1,2,2,FALSE,"E_F_ninet.png E_F_rotem_sela.png"
2053,"E_F_shiri.png","P_F_shaked.png","FALSE","pictures/stimuli/E","pictures/stimuli/P","F","F","6",0.636285497291295,"23","F","right","9221",1,1,2,2,FALSE,"E_F_shiri.png P_F_shaked.png"
2523,"E_M_liorA.png","P_M_smut.png","FALSE","pictures/stimuli/E","pictures/stimuli/P","M","M","4",-1.99185025239014,"23","F","right","9221",1,1,2,2,FALSE,"E_M_liorA.png P_M_smut.png"
1874,"E_F_shiri.png","P_F_michaeli.png","FALSE","pictures/stimuli/E","pictures/stimuli/P","F","F","6",0.636285497291295,"23","F","right","9221",1,1,2,2,FALSE,"E_F_shiri.png P_F_michaeli.png"
2619,"E_M_asi.png","P_M_buji.png","FALSE","pictures/stimuli/E","pictures/stimuli/P","M","M","5",-0.677782377549423,"23","F","right","9221",1,1,2,2,FALSE,"E_M_asi.png P_M_buji.png"
4117,"E_F_rotem_sela.png","P_M_buji.png","FALSE","pictures/stimuli/E","pictures/stimuli/P","F","M","5",-0.677782377549423,"23","F","right","9221",1,1,2,2,FALSE,"E_F_rotem_sela.png P_M_buji.png"
6141,"E_F_galit_gutman.png","P_M_benet.png","FALSE","pictures/stimuli/E","pictures/stimuli/P","F","M","6",1.12664353630362,"21","M","right","8985",1,1,3,2,FALSE,"E_F_galit_gutman.png P_M_benet.png"
5993,"E_M_liorA.png","P_M_gantz.png","FALSE","pictures/stimuli/E","pictures/stimuli/P","M","M","6",1.12664353630362,"21","M","right","8985",1,1,2,2,FALSE,"E_M_liorA.png P_M_gantz.png"
4535,"E_F_shiri.png","P_M_smut.png","FALSE","pictures/stimuli/E","pictures/stimuli/P","F","M","6",1.12664353630362,"21","M","right","8985",1,1,1,1,FALSE,"E_F_shiri.png P_M_smut.png"
3423,"P_F_shaked.png","P_M_gantz.png","TRUE","pictures/stimuli/P","pictures/stimuli/P","F","M","6",1.12664353630362,"21","M","right","8985",1,1,1,2,FALSE,"P_F_shaked.png P_M_gantz.png"
5237,"P_M_benet.png","P_M_saar.png","TRUE","pictures/stimuli/P","pictures/stimuli/P","M","M","4",-0.912044767483886,"21","M","right","8985",1,1,2,4,FALSE,"P_M_benet.png P_M_saar.png"
5126,"P_F_regev.png","P_F_staiv.png","TRUE","pictures/stimuli/P","pictures/stimuli/P","F","F","5",0.107299384409869,"21","M","right","8985",1,1,2,2,FALSE,"P_F_regev.png P_F_staiv.png"
5889,"E_M_ido.png","P_F_michaeli.png","FALSE","pictures/stimuli/E","pictures/stimuli/P","M","F","5",0.107299384409869,"21","M","right","8985",1,1,2,1,FALSE,"E_M_ido.png P_F_michaeli.png"
6167,"P_M_lapid.png","P_M_smut.png","TRUE","pictures/stimuli/P","pictures/stimuli/P","M","M","3",-1.93138891937764,"21","M","right","8985",1,1,1,1,FALSE,"P_M_lapid.png P_M_smut.png"
5755,"E_M_ido.png","P_M_lapid.png","FALSE","pictures/stimuli/E","pictures/stimuli/P","M","M","4",-0.912044767483886,"21","M","right","8985",1,1,2,1,FALSE,"E_M_ido.png P_M_lapid.png"
5209,"E_M_ido.png","P_M_buji.png","FALSE","pictures/stimuli/E","pictures/stimuli/P","M","M","4",-0.912044767483886,"21","M","right","8985",1,1,2,2,FALSE,"E_M_ido.png P_M_buji.png"
5641,"P_F_regev.png","P_F_shaked.png","TRUE","pictures/stimuli/P","pictures/stimuli/P","F","F","3",-1.93138891937764,"21","M","right","8985",1,1,2,1,FALSE,"P_F_regev.png P_F_shaked.png"
3844,"E_F_rotem_sela.png","P_F_staiv.png","FALSE","pictures/stimuli/E","pictures/stimuli/P","F","F","3",-1.93138891937764,"21","M","right","8985",1,1,1,2,FALSE,"E_F_rotem_sela.png P_F_staiv.png"
4405,"E_F_rotem_sela.png","E_M_ido.png","TRUE","pictures/stimuli/E","pictures/stimuli/E","F","M","6",1.12664353630362,"21","M","right","8985",1,1,1,2,FALSE,"E_F_rotem_sela.png E_M_ido.png"
3086,"E_F_rotem_sela.png","P_M_benet.png","FALSE","pictures/stimuli/E","pictures/stimuli/P","F","M","5",0.107299384409869,"21","M","right","8985",1,1,1,2,FALSE,"E_F_rotem_sela.png P_M_benet.png"
6768,"P_M_lapid.png","P_M_saar.png","TRUE","pictures/stimuli/P","pictures/stimuli/P","M","M","3",-1.93138891937764,"21","M","right","8985",1,1,1,4,FALSE,"P_M_lapid.png P_M_saar.png"
6549,"E_F_ilanit.png","E_M_yuda.png","TRUE","pictures/stimuli/E","pictures/stimuli/E","F","M","5",0.107299384409869,"21","M","right","8985",1,1,2,2,FALSE,"E_F_ilanit.png E_M_yuda.png"
5143,"E_F_galit_gutman.png","E_F_shiri.png","TRUE","pictures/stimuli/E","pictures/stimuli/E","F","F","2",-2.9507330712714,"21","M","right","8985",1,1,3,1,FALSE,"E_F_galit_gutman.png E_F_shiri.png"
5361,"E_M_ido.png","P_M_benet.png","FALSE","pictures/stimuli/E","pictures/stimuli/P","M","M","5",0.107299384409869,"21","M","right","8985",1,1,2,2,FALSE,"E_M_ido.png P_M_benet.png"
6573,"E_F_ilanit.png","P_M_saar.png","FALSE","pictures/stimuli/E","pictures/stimuli/P","F","M","6",1.12664353630362,"21","M","right","8985",1,1,2,4,FALSE,"E_F_ilanit.png P_M_saar.png"
4041,"P_F_michaeli.png","P_M_benet.png","TRUE","pictures/stimuli/P","pictures/stimuli/P","F","M","4",-0.912044767483886,"21","M","right","8985",1,1,1,2,FALSE,"P_F_michaeli.png P_M_benet.png"
4621,"E_F_rotem_sela.png","P_M_lapid.png","FALSE","pictures/stimuli/E","pictures/stimuli/P","F","M","5",0.107299384409869,"21","M","right","8985",1,1,1,1,FALSE,"E_F_rotem_sela.png P_M_lapid.png"
4681,"P_F_staiv.png","P_M_smut.png","TRUE","pictures/stimuli/P","pictures/stimuli/P","F","M","6",1.12664353630362,"21","M","right","8985",1,1,2,1,FALSE,"P_F_staiv.png P_M_smut.png"
5915,"P_M_saar.png","P_M_smut.png","TRUE","pictures/stimuli/P","pictures/stimuli/P","M","M","5",0.107299384409869,"21","M","right","8985",1,1,4,1,FALSE,"P_M_saar.png P_M_smut.png"
4620,"E_M_asi.png","P_M_smut.png","FALSE","pictures/stimuli/E","pictures/stimuli/P","M","M","5",0.107299384409869,"21","M","right","8985",1,1,1,1,FALSE,"E_M_asi.png P_M_smut.png"
7039,"E_F_shiri.png","P_M_lapid.png","FALSE","pictures/stimuli/E","pictures/stimuli/P","F","M","6",1.12664353630362,"21","M","right","8985",1,1,1,1,FALSE,"E_F_shiri.png P_M_lapid.png"
5219,"E_F_ilanit.png","E_M_ido.png","TRUE","pictures/stimuli/E","pictures/stimuli/E","F","M","3",-1.93138891937764,"21","M","right","8985",1,1,2,2,FALSE,"E_F_ilanit.png E_M_ido.png"
4741,"E_F_galit_gutman.png","E_M_danker.png","TRUE","pictures/stimuli/E","pictures/stimuli/E","F","M","4",-0.912044767483886,"21","M","right","8985",1,1,3,1,FALSE,"E_F_galit_gutman.png E_M_danker.png"
3659,"E_F_ninet.png","P_M_lapid.png","FALSE","pictures/stimuli/E","pictures/stimuli/P","F","M","6",1.12664353630362,"21","M","right","8985",1,1,1,1,FALSE,"E_F_ninet.png P_M_lapid.png"
5961,"P_F_regev.png","P_M_lapid.png","TRUE","pictures/stimuli/P","pictures/stimuli/P","F","M","5",0.107299384409869,"21","M","right","8985",1,1,2,1,FALSE,"P_F_regev.png P_M_lapid.png"
4703,"E_F_shiri.png","E_M_danker.png","TRUE","pictures/stimuli/E","pictures/stimuli/E","F","M","4",-0.912044767483886,"21","M","right","8985",1,1,1,1,FALSE,"E_F_shiri.png E_M_danker.png"
3672,"E_F_shiri.png","P_M_saar.png","FALSE","pictures/stimuli/E","pictures/stimuli/P","F","M","5",0.107299384409869,"21","M","right","8985",1,1,1,4,FALSE,"E_F_shiri.png P_M_saar.png"
5205,"E_F_galit_gutman.png","P_M_gantz.png","FALSE","pictures/stimuli/E","pictures/stimuli/P","F","M","5",0.107299384409869,"21","M","right","8985",1,1,3,2,FALSE,"E_F_galit_gutman.png P_M_gantz.png"
4562,"E_M_danker.png","P_F_staiv.png","FALSE","pictures/stimuli/E","pictures/stimuli/P","M","F","4",-0.912044767483886,"21","M","right","8985",1,1,1,2,FALSE,"E_M_danker.png P_F_staiv.png"
9203,"E_M_liorA.png","P_F_regev.png","FALSE","pictures/stimuli/E","pictures/stimuli/P","M","F","5",0.107299384409869,"21","M","right","8985",1,1,2,2,FALSE,"E_M_liorA.png P_F_regev.png"
3784,"E_M_yuda.png","P_F_staiv.png","FALSE","pictures/stimuli/E","pictures/stimuli/P","M","F","5",0.107299384409869,"21","M","right","8985",1,1,2,2,FALSE,"E_M_yuda.png P_F_staiv.png"
6342,"E_M_asi.png","P_F_shaked.png","FALSE","pictures/stimuli/E","pictures/stimuli/P","M","F","5",0.107299384409869,"21","M","right","8985",1,1,1,1,FALSE,"E_M_asi.png P_F_shaked.png"
2453,"E_F_shiri.png","P_M_buji.png","FALSE","pictures/stimuli/E","pictures/stimuli/P","F","M","6",1.12664353630362,"21","M","right","8985",1,1,1,2,FALSE,"E_F_shiri.png P_M_buji.png"
6817,"E_F_rotem_sela.png","P_F_michaeli.png","FALSE","pictures/stimuli/E","pictures/stimuli/P","F","F","4",-0.912044767483886,"21","M","right","8985",1,1,1,1,FALSE,"E_F_rotem_sela.png P_F_michaeli.png"
7099,"E_F_ninet.png","E_F_rotem_sela.png","TRUE","pictures/stimuli/E","pictures/stimuli/E","F","F","3",-1.93138891937764,"21","M","right","8985",1,1,1,1,FALSE,"E_F_ninet.png E_F_rotem_sela.png"
4210,"E_M_ido.png","P_F_regev.png","FALSE","pictures/stimuli/E","pictures/stimuli/P","M","F","5",0.107299384409869,"21","M","right","8985",1,1,2,2,FALSE,"E_M_ido.png P_F_regev.png"
5439,"E_F_ninet.png","E_M_danker.png","TRUE","pictures/stimuli/E","pictures/stimuli/E","F","M","4",-0.912044767483886,"21","M","right","8985",1,1,1,1,FALSE,"E_F_ninet.png E_M_danker.png"
4904,"E_F_galit_gutman.png","P_F_shaked.png","FALSE","pictures/stimuli/E","pictures/stimuli/P","F","F","2",-2.9507330712714,"21","M","right","8985",1,1,3,1,FALSE,"E_F_galit_gutman.png P_F_shaked.png"
3936,"E_F_shiri.png","E_M_liorA.png","TRUE","pictures/stimuli/E","pictures/stimuli/E","F","M","5",0.107299384409869,"21","M","right","8985",1,1,1,2,FALSE,"E_F_shiri.png E_M_liorA.png"
5677,"P_F_staiv.png","P_M_saar.png","TRUE","pictures/stimuli/P","pictures/stimuli/P","F","M","6",1.12664353630362,"21","M","right","8985",1,1,2,4,FALSE,"P_F_staiv.png P_M_saar.png"
5039,"E_M_danker.png","E_M_yuda.png","TRUE","pictures/stimuli/E","pictures/stimuli/E","M","M","4",-0.912044767483886,"21","M","right","8985",1,1,1,2,FALSE,"E_M_danker.png E_M_yuda.png"
5098,"P_F_staiv.png","P_M_benet.png","TRUE","pictures/stimuli/P","pictures/stimuli/P","F","M","4",-0.912044767483886,"21","M","right","8985",1,1,2,2,FALSE,"P_F_staiv.png P_M_benet.png"
11059,"E_F_galit_gutman.png","E_M_ido.png","TRUE","pictures/stimuli/E","pictures/stimuli/E","F","M","4",-0.912044767483886,"21","M","right","8985",1,1,3,2,FALSE,"E_F_galit_gutman.png E_M_ido.png"
6808,"P_M_benet.png","P_M_smut.png","TRUE","pictures/stimuli/P","pictures/stimuli/P","M","M","5",0.107299384409869,"21","M","right","8985",1,1,2,1,FALSE,"P_M_benet.png P_M_smut.png"
4162,"P_F_shaked.png","P_M_smut.png","TRUE","pictures/stimuli/P","pictures/stimuli/P","F","M","5",0.107299384409869,"21","M","right","8985",1,1,1,1,FALSE,"P_F_shaked.png P_M_smut.png"
5018,"P_F_michaeli.png","P_F_regev.png","TRUE","pictures/stimuli/P","pictures/stimuli/P","F","F","4",-0.912044767483886,"21","M","right","8985",1,1,1,2,FALSE,"P_F_michaeli.png P_F_regev.png"
5418,"E_M_ido.png","P_F_shaked.png","FALSE","pictures/stimuli/E","pictures/stimuli/P","M","F","6",1.12664353630362,"21","M","right","8985",1,1,2,1,FALSE,"E_M_ido.png P_F_shaked.png"
2939,"P_F_staiv.png","P_M_buji.png","TRUE","pictures/stimuli/P","pictures/stimuli/P","F","M","6",1.12664353630362,"21","M","right","8985",1,1,2,2,FALSE,"P_F_staiv.png P_M_buji.png"
6789,"E_F_galit_gutman.png","P_M_lapid.png","FALSE","pictures/stimuli/E","pictures/stimuli/P","F","M","5",0.107299384409869,"21","M","right","8985",1,1,3,1,FALSE,"E_F_galit_gutman.png P_M_lapid.png"
6210,"P_F_michaeli.png","P_M_saar.png","TRUE","pictures/stimuli/P","pictures/stimuli/P","F","M","4",-0.912044767483886,"21","M","right","8985",1,1,1,4,FALSE,"P_F_michaeli.png P_M_saar.png"
8911,"E_F_shiri.png","E_M_ido.png","TRUE","pictures/stimuli/E","pictures/stimuli/E","F","M","5",0.107299384409869,"21","M","right","8985",1,1,1,2,FALSE,"E_F_shiri.png E_M_ido.png"
7274,"E_F_shiri.png","P_F_shaked.png","FALSE","pictures/stimuli/E","pictures/stimuli/P","F","F","4",-0.912044767483886,"21","M","right","8985",1,1,1,1,FALSE,"E_F_shiri.png P_F_shaked.png"
6162,"E_F_galit_gutman.png","P_M_saar.png","FALSE","pictures/stimuli/E","pictures/stimuli/P","F","M","5",0.107299384409869,"21","M","right","8985",1,1,3,4,FALSE,"E_F_galit_gutman.png P_M_saar.png"
4683,"E_M_danker.png","P_M_lapid.png","FALSE","pictures/stimuli/E","pictures/stimuli/P","M","M","5",0.107299384409869,"21","M","right","8985",1,1,1,1,FALSE,"E_M_danker.png P_M_lapid.png"
7969,"E_M_liorA.png","P_M_lapid.png","FALSE","pictures/stimuli/E","pictures/stimuli/P","M","M","4",-0.912044767483886,"21","M","right","8985",1,1,2,1,FALSE,"E_M_liorA.png P_M_lapid.png"
2042,"E_F_galit_gutman.png","P_M_buji.png","FALSE","pictures/stimuli/E","pictures/stimuli/P","F","M","6",1.12664353630362,"21","M","right","8985",1,1,3,2,FALSE,"E_F_galit_gutman.png P_M_buji.png"
2195,"E_F_shiri.png","P_M_gantz.png","FALSE","pictures/stimuli/E","pictures/stimuli/P","F","M","6",1.12664353630362,"21","M","right","8985",1,1,1,2,FALSE,"E_F_shiri.png P_M_gantz.png"
3905,"E_M_danker.png","P_F_regev.png","FALSE","pictures/stimuli/E","pictures/stimuli/P","M","F","6",1.12664353630362,"21","M","right","8985",1,1,1,2,FALSE,"E_M_danker.png P_F_regev.png"
3426,"E_F_ninet.png","E_M_liorA.png","TRUE","pictures/stimuli/E","pictures/stimuli/E","F","M","5",0.107299384409869,"21","M","right","8985",1,1,1,2,FALSE,"E_F_ninet.png E_M_liorA.png"
5548,"E_F_galit_gutman.png","E_M_yuda.png","TRUE","pictures/stimuli/E","pictures/stimuli/E","F","M","5",0.107299384409869,"21","M","right","8985",1,1,3,2,FALSE,"E_F_galit_gutman.png E_M_yuda.png"
7936,"E_M_asi.png","P_M_gantz.png","FALSE","pictures/stimuli/E","pictures/stimuli/P","M","M","6",1.12664353630362,"21","M","right","8985",1,1,1,2,FALSE,"E_M_asi.png P_M_gantz.png"
5209,"E_M_asi.png","P_M_saar.png","FALSE","pictures/stimuli/E","pictures/stimuli/P","M","M","5",0.107299384409869,"21","M","right","8985",1,1,1,4,FALSE,"E_M_asi.png P_M_saar.png"
8550,"E_M_yuda.png","P_F_shaked.png","FALSE","pictures/stimuli/E","pictures/stimuli/P","M","F","4",-0.912044767483886,"21","M","right","8985",1,1,2,1,FALSE,"E_M_yuda.png P_F_shaked.png"
4410,"E_M_asi.png","E_M_danker.png","TRUE","pictures/stimuli/E","pictures/stimuli/E","M","M","4",-0.912044767483886,"21","M","right","8985",1,1,1,1,FALSE,"E_M_asi.png E_M_danker.png"
6742,"P_F_shaked.png","P_M_lapid.png","TRUE","pictures/stimuli/P","pictures/stimuli/P","F","M","6",1.12664353630362,"21","M","right","8985",1,1,1,1,FALSE,"P_F_shaked.png P_M_lapid.png"
12876,"E_F_ilanit.png","E_F_shiri.png","TRUE","pictures/stimuli/E","pictures/stimuli/E","F","F","3",-1.93138891937764,"21","M","right","8985",1,1,2,1,FALSE,"E_F_ilanit.png E_F_shiri.png"
6840,"E_M_asi.png","P_M_benet.png","FALSE","pictures/stimuli/E","pictures/stimuli/P","M","M","4",-0.912044767483886,"21","M","right","8985",1,1,1,2,FALSE,"E_M_asi.png P_M_benet.png"
3157,"E_F_ninet.png","P_M_smut.png","FALSE","pictures/stimuli/E","pictures/stimuli/P","F","M","6",1.12664353630362,"21","M","right","8985",1,1,1,1,FALSE,"E_F_ninet.png P_M_smut.png"
4200,"E_M_yuda.png","P_M_benet.png","FALSE","pictures/stimuli/E","pictures/stimuli/P","M","M","5",0.107299384409869,"21","M","right","8985",1,1,2,2,FALSE,"E_M_yuda.png P_M_benet.png"
8195,"P_F_shaked.png","P_F_staiv.png","TRUE","pictures/stimuli/P","pictures/stimuli/P","F","F","4",-0.912044767483886,"21","M","right","8985",1,1,1,2,FALSE,"P_F_shaked.png P_F_staiv.png"
4397,"E_M_liorA.png","P_F_shaked.png","FALSE","pictures/stimuli/E","pictures/stimuli/P","M","F","6",1.12664353630362,"21","M","right","8985",1,1,2,1,FALSE,"E_M_liorA.png P_F_shaked.png"
3211,"E_M_asi.png","P_M_lapid.png","FALSE","pictures/stimuli/E","pictures/stimuli/P","M","M","5",0.107299384409869,"21","M","right","8985",1,1,1,1,FALSE,"E_M_asi.png P_M_lapid.png"
4873,"E_F_ninet.png","E_M_ido.png","TRUE","pictures/stimuli/E","pictures/stimuli/E","F","M","5",0.107299384409869,"21","M","right","8985",1,1,1,2,FALSE,"E_F_ninet.png E_M_ido.png"
7112,"E_M_liorA.png","P_F_staiv.png","FALSE","pictures/stimuli/E","pictures/stimuli/P","M","F","5",0.107299384409869,"21","M","right","8985",1,1,2,2,FALSE,"E_M_liorA.png P_F_staiv.png"
4095,"P_F_michaeli.png","P_M_smut.png","TRUE","pictures/stimuli/P","pictures/stimuli/P","F","M","6",1.12664353630362,"21","M","right","8985",1,1,1,1,FALSE,"P_F_michaeli.png P_M_smut.png"
3961,"E_M_ido.png","P_M_smut.png","FALSE","pictures/stimuli/E","pictures/stimuli/P","M","M","5",0.107299384409869,"21","M","right","8985",1,1,2,1,FALSE,"E_M_ido.png P_M_smut.png"
11123,"E_F_ninet.png","P_F_shaked.png","FALSE","pictures/stimuli/E","pictures/stimuli/P","F","F","4",-0.912044767483886,"21","M","right","8985",1,1,1,1,FALSE,"E_F_ninet.png P_F_shaked.png"
4622,"E_M_ido.png","P_M_saar.png","FALSE","pictures/stimuli/E","pictures/stimuli/P","M","M","4",-0.912044767483886,"21","M","right","8985",1,1,2,4,FALSE,"E_M_ido.png P_M_saar.png"
3255,"E_M_ido.png","E_M_yuda.png","TRUE","pictures/stimuli/E","pictures/stimuli/E","M","M","4",-0.912044767483886,"21","M","right","8985",1,1,2,2,FALSE,"E_M_ido.png E_M_yuda.png"
2469,"E_F_ninet.png","P_M_buji.png","FALSE","pictures/stimuli/E","pictures/stimuli/P","F","M","6",1.12664353630362,"21","M","right","8985",1,1,1,2,FALSE,"E_F_ninet.png P_M_buji.png"
7286,"E_M_asi.png","P_M_buji.png","FALSE","pictures/stimuli/E","pictures/stimuli/P","M","M","6",1.12664353630362,"21","M","right","8985",1,1,1,2,FALSE,"E_M_asi.png P_M_buji.png"
4802,"E_M_asi.png","E_M_yuda.png","TRUE","pictures/stimuli/E","pictures/stimuli/E","M","M","5",0.107299384409869,"21","M","right","8985",1,1,1,2,FALSE,"E_M_asi.png E_M_yuda.png"
11880,"P_F_regev.png","P_M_benet.png","TRUE","pictures/stimuli/P","pictures/stimuli/P","F","M","5",0.107299384409869,"21","M","right","8985",1,1,2,2,FALSE,"P_F_regev.png P_M_benet.png"
5560,"P_F_shaked.png","P_M_benet.png","TRUE","pictures/stimuli/P","pictures/stimuli/P","F","M","4",-0.912044767483886,"21","M","right","8985",1,1,1,2,FALSE,"P_F_shaked.png P_M_benet.png"
6591,"E_F_ilanit.png","P_F_staiv.png","FALSE","pictures/stimuli/E","pictures/stimuli/P","F","F","4",-0.912044767483886,"21","M","right","8985",1,1,2,2,FALSE,"E_F_ilanit.png P_F_staiv.png"
6235,"E_F_rotem_sela.png","P_F_shaked.png","FALSE","pictures/stimuli/E","pictures/stimuli/P","F","F","4",-0.912044767483886,"21","M","right","8985",1,1,1,1,FALSE,"E_F_rotem_sela.png P_F_shaked.png"
2826,"E_F_galit_gutman.png","P_M_smut.png","FALSE","pictures/stimuli/E","pictures/stimuli/P","F","M","6",1.12664353630362,"21","M","right","8985",1,1,3,1,FALSE,"E_F_galit_gutman.png P_M_smut.png"
6284,"E_F_galit_gutman.png","P_F_michaeli.png","FALSE","pictures/stimuli/E","pictures/stimuli/P","F","F","5",0.107299384409869,"21","M","right","8985",1,1,3,1,FALSE,"E_F_galit_gutman.png P_F_michaeli.png"
3022,"E_F_ilanit.png","P_F_shaked.png","FALSE","pictures/stimuli/E","pictures/stimuli/P","F","F","4",-0.912044767483886,"21","M","right","8985",1,1,2,1,FALSE,"E_F_ilanit.png P_F_shaked.png"
5472,"E_F_ilanit.png","E_M_danker.png","TRUE","pictures/stimuli/E","pictures/stimuli/E","F","M","5",0.107299384409869,"21","M","right","8985",1,1,2,1,FALSE,"E_F_ilanit.png E_M_danker.png"
4236,"P_F_regev.png","P_M_buji.png","TRUE","pictures/stimuli/P","pictures/stimuli/P","F","M","6",1.12664353630362,"21","M","right","8985",1,1,2,2,FALSE,"P_F_regev.png P_M_buji.png"
6660,"E_M_danker.png","E_M_liorA.png","TRUE","pictures/stimuli/E","pictures/stimuli/E","M","M","5",0.107299384409869,"21","M","right","8985",1,1,1,2,FALSE,"E_M_danker.png E_M_liorA.png"
5835,"E_M_liorA.png","P_M_benet.png","FALSE","pictures/stimuli/E","pictures/stimuli/P","M","M","5",0.107299384409869,"21","M","right","8985",1,1,2,2,FALSE,"E_M_liorA.png P_M_benet.png"
7401,"E_F_rotem_sela.png","E_F_shiri.png","TRUE","pictures/stimuli/E","pictures/stimuli/E","F","F","2",-2.9507330712714,"21","M","right","8985",1,1,1,1,FALSE,"E_F_rotem_sela.png E_F_shiri.png"
4348,"E_F_shiri.png","P_F_regev.png","FALSE","pictures/stimuli/E","pictures/stimuli/P","F","F","5",0.107299384409869,"21","M","right","8985",1,1,1,2,FALSE,"E_F_shiri.png P_F_regev.png"
6267,"E_M_yuda.png","P_M_saar.png","FALSE","pictures/stimuli/E","pictures/stimuli/P","M","M","4",-0.912044767483886,"21","M","right","8985",1,1,2,4,FALSE,"E_M_yuda.png P_M_saar.png"
5116,"P_F_michaeli.png","P_F_staiv.png","TRUE","pictures/stimuli/P","pictures/stimuli/P","F","F","5",0.107299384409869,"21","M","right","8985",1,1,1,2,FALSE,"P_F_michaeli.png P_F_staiv.png"
4036,"E_F_ilanit.png","E_F_rotem_sela.png","TRUE","pictures/stimuli/E","pictures/stimuli/E","F","F","3",-1.93138891937764,"21","M","right","8985",1,1,2,1,FALSE,"E_F_ilanit.png E_F_rotem_sela.png"
4301,"E_F_rotem_sela.png","P_M_saar.png","FALSE","pictures/stimuli/E","pictures/stimuli/P","F","M","6",1.12664353630362,"21","M","right","8985",1,1,1,4,FALSE,"E_F_rotem_sela.png P_M_saar.png"
2816,"E_F_ninet.png","P_F_regev.png","FALSE","pictures/stimuli/E","pictures/stimuli/P","F","F","5",0.107299384409869,"21","M","right","8985",1,1,1,2,FALSE,"E_F_ninet.png P_F_regev.png"
11217,"E_M_asi.png","P_F_regev.png","FALSE","pictures/stimuli/E","pictures/stimuli/P","M","F","5",0.107299384409869,"21","M","right","8985",1,1,1,2,FALSE,"E_M_asi.png P_F_regev.png"
5246,"E_M_yuda.png","P_M_lapid.png","FALSE","pictures/stimuli/E","pictures/stimuli/P","M","M","3",-1.93138891937764,"21","M","right","8985",1,1,2,1,FALSE,"E_M_yuda.png P_M_lapid.png"
4933,"E_M_asi.png","E_M_ido.png","TRUE","pictures/stimuli/E","pictures/stimuli/E","M","M","4",-0.912044767483886,"21","M","right","8985",1,1,1,2,FALSE,"E_M_asi.png E_M_ido.png"
7104,"E_M_yuda.png","P_M_gantz.png","FALSE","pictures/stimuli/E","pictures/stimuli/P","M","M","5",0.107299384409869,"21","M","right","8985",1,1,2,2,FALSE,"E_M_yuda.png P_M_gantz.png"
4729,"E_M_danker.png","P_F_shaked.png","FALSE","pictures/stimuli/E","pictures/stimuli/P","M","F","6",1.12664353630362,"21","M","right","8985",1,1,1,1,FALSE,"E_M_danker.png P_F_shaked.png"
7387,"E_F_galit_gutman.png","P_F_regev.png","FALSE","pictures/stimuli/E","pictures/stimuli/P","F","F","5",0.107299384409869,"21","M","right","8985",1,1,3,2,FALSE,"E_F_galit_gutman.png P_F_regev.png"
12697,"P_M_gantz.png","P_M_saar.png","TRUE","pictures/stimuli/P","pictures/stimuli/P","M","M","3",-1.93138891937764,"21","M","right","8985",1,1,2,4,FALSE,"P_M_gantz.png P_M_saar.png"
4204,"P_F_michaeli.png","P_F_shaked.png","TRUE","pictures/stimuli/P","pictures/stimuli/P","F","F","4",-0.912044767483886,"21","M","right","8985",1,1,1,1,FALSE,"P_F_michaeli.png P_F_shaked.png"
3305,"E_F_rotem_sela.png","E_M_danker.png","TRUE","pictures/stimuli/E","pictures/stimuli/E","F","M","5",0.107299384409869,"21","M","right","8985",1,1,1,1,FALSE,"E_F_rotem_sela.png E_M_danker.png"
4502,"P_F_michaeli.png","P_M_buji.png","TRUE","pictures/stimuli/P","pictures/stimuli/P","F","M","6",1.12664353630362,"21","M","right","8985",1,1,1,2,FALSE,"P_F_michaeli.png P_M_buji.png"
4453,"P_F_staiv.png","P_M_lapid.png","TRUE","pictures/stimuli/P","pictures/stimuli/P","F","M","6",1.12664353630362,"21","M","right","8985",1,1,2,1,FALSE,"P_F_staiv.png P_M_lapid.png"
5262,"E_F_ninet.png","P_F_staiv.png","FALSE","pictures/stimuli/E","pictures/stimuli/P","F","F","4",-0.912044767483886,"21","M","right","8985",1,1,1,2,FALSE,"E_F_ninet.png P_F_staiv.png"
3572,"P_F_shaked.png","P_M_buji.png","TRUE","pictures/stimuli/P","pictures/stimuli/P","F","M","6",1.12664353630362,"21","M","right","8985",1,1,1,2,FALSE,"P_F_shaked.png P_M_buji.png"
5950,"P_F_regev.png","P_M_saar.png","TRUE","pictures/stimuli/P","pictures/stimuli/P","F","M","6",1.12664353630362,"21","M","right","8985",1,1,2,4,FALSE,"P_F_regev.png P_M_saar.png"
4683,"E_M_ido.png","E_M_liorA.png","TRUE","pictures/stimuli/E","pictures/stimuli/E","M","M","5",0.107299384409869,"21","M","right","8985",1,1,2,2,FALSE,"E_M_ido.png E_M_liorA.png"
3543,"E_M_liorA.png","P_M_buji.png","FALSE","pictures/stimuli/E","pictures/stimuli/P","M","M","6",1.12664353630362,"21","M","right","8985",1,1,2,2,FALSE,"E_M_liorA.png P_M_buji.png"
7776,"P_M_lapid.png","P_M_buji.png","TRUE","pictures/stimuli/P","pictures/stimuli/P","M","M","5",0.107299384409869,"21","M","right","8985",1,1,1,2,FALSE,"P_M_buji.png P_M_lapid.png"
12453,"E_F_ninet.png","P_F_michaeli.png","FALSE","pictures/stimuli/E","pictures/stimuli/P","F","F","5",0.107299384409869,"21","M","right","8985",1,1,1,1,FALSE,"E_F_ninet.png P_F_michaeli.png"
7593,"E_M_liorA.png","P_M_smut.png","FALSE","pictures/stimuli/E","pictures/stimuli/P","M","M","5",0.107299384409869,"21","M","right","8985",1,1,2,1,FALSE,"E_M_liorA.png P_M_smut.png"
2846,"E_M_asi.png","E_M_liorA.png","TRUE","pictures/stimuli/E","pictures/stimuli/E","M","M","5",0.107299384409869,"21","M","right","8985",1,1,1,2,FALSE,"E_M_asi.png E_M_liorA.png"
5081,"E_M_danker.png","P_M_gantz.png","FALSE","pictures/stimuli/E","pictures/stimuli/P","M","M","6",1.12664353630362,"21","M","right","8985",1,1,1,2,FALSE,"E_M_danker.png P_M_gantz.png"
4684,"P_F_regev.png","P_M_smut.png","TRUE","pictures/stimuli/P","pictures/stimuli/P","F","M","6",1.12664353630362,"21","M","right","8985",1,1,2,1,FALSE,"P_F_regev.png P_M_smut.png"
3198,"E_F_ilanit.png","P_F_michaeli.png","FALSE","pictures/stimuli/E","pictures/stimuli/P","F","F","5",0.107299384409869,"21","M","right","8985",1,1,2,1,FALSE,"E_F_ilanit.png P_F_michaeli.png"
8081,"E_M_danker.png","P_M_benet.png","FALSE","pictures/stimuli/E","pictures/stimuli/P","M","M","5",0.107299384409869,"21","M","right","8985",1,1,1,2,FALSE,"E_M_danker.png P_M_benet.png"
6278,"E_M_yuda.png","P_M_smut.png","FALSE","pictures/stimuli/E","pictures/stimuli/P","M","M","5",0.107299384409869,"21","M","right","8985",1,1,2,1,FALSE,"E_M_yuda.png P_M_smut.png"
4239,"E_M_liorA.png","P_M_saar.png","FALSE","pictures/stimuli/E","pictures/stimuli/P","M","M","6",1.12664353630362,"21","M","right","8985",1,1,2,4,FALSE,"E_M_liorA.png P_M_saar.png"
3310,"E_M_danker.png","P_M_buji.png","FALSE","pictures/stimuli/E","pictures/stimuli/P","M","M","6",1.12664353630362,"21","M","right","8985",1,1,1,2,FALSE,"E_M_danker.png P_M_buji.png"
7253,"P_M_buji.png","P_M_saar.png","TRUE","pictures/stimuli/P","pictures/stimuli/P","M","M","5",0.107299384409869,"21","M","right","8985",1,1,2,4,FALSE,"P_M_buji.png P_M_saar.png"
4593,"E_F_shiri.png","E_M_asi.png","TRUE","pictures/stimuli/E","pictures/stimuli/E","F","M","5",0.107299384409869,"21","M","right","8985",1,1,1,1,FALSE,"E_F_shiri.png E_M_asi.png"
12150,"E_F_galit_gutman.png","E_F_ninet.png","TRUE","pictures/stimuli/E","pictures/stimuli/E","F","F","3",-1.93138891937764,"21","M","right","8985",1,1,3,1,FALSE,"E_F_galit_gutman.png E_F_ninet.png"
5512,"E_F_galit_gutman.png","E_M_liorA.png","TRUE","pictures/stimuli/E","pictures/stimuli/E","F","M","6",1.12664353630362,"21","M","right","8985",1,1,3,2,FALSE,"E_F_galit_gutman.png E_M_liorA.png"
5517,"P_F_michaeli.png","P_M_gantz.png","TRUE","pictures/stimuli/P","pictures/stimuli/P","F","M","5",0.107299384409869,"21","M","right","8985",1,1,1,2,FALSE,"P_F_michaeli.png P_M_gantz.png"
3174,"P_M_gantz.png","P_M_benet.png","TRUE","pictures/stimuli/P","pictures/stimuli/P","M","M","5",0.107299384409869,"21","M","right","8985",1,1,2,2,FALSE,"P_M_benet.png P_M_gantz.png"
6687,"E_F_ilanit.png","P_M_gantz.png","FALSE","pictures/stimuli/E","pictures/stimuli/P","F","M","6",1.12664353630362,"21","M","right","8985",1,1,2,2,FALSE,"E_F_ilanit.png P_M_gantz.png"
7251,"P_M_gantz.png","P_M_buji.png","TRUE","pictures/stimuli/P","pictures/stimuli/P","M","M","5",0.107299384409869,"21","M","right","8985",1,1,2,2,FALSE,"P_M_buji.png P_M_gantz.png"
7616,"E_M_yuda.png","P_M_buji.png","FALSE","pictures/stimuli/E","pictures/stimuli/P","M","M","6",1.12664353630362,"21","M","right","8985",1,1,2,2,FALSE,"E_M_yuda.png P_M_buji.png"
3957,"E_F_ninet.png","E_M_asi.png","TRUE","pictures/stimuli/E","pictures/stimuli/E","F","M","5",0.107299384409869,"21","M","right","8985",1,1,1,1,FALSE,"E_F_ninet.png E_M_asi.png"
3089,"E_F_ilanit.png","P_M_smut.png","FALSE","pictures/stimuli/E","pictures/stimuli/P","F","M","6",1.12664353630362,"21","M","right","8985",1,1,2,1,FALSE,"E_F_ilanit.png P_M_smut.png"
5037,"P_F_michaeli.png","P_M_lapid.png","TRUE","pictures/stimuli/P","pictures/stimuli/P","F","M","5",0.107299384409869,"21","M","right","8985",1,1,1,1,FALSE,"P_F_michaeli.png P_M_lapid.png"
5761,"E_F_ninet.png","P_M_benet.png","FALSE","pictures/stimuli/E","pictures/stimuli/P","F","M","5",0.107299384409869,"21","M","right","8985",1,1,1,2,FALSE,"E_F_ninet.png P_M_benet.png"
7158,"E_M_ido.png","P_F_staiv.png","FALSE","pictures/stimuli/E","pictures/stimuli/P","M","F","5",0.107299384409869,"21","M","right","8985",1,1,2,2,FALSE,"E_M_ido.png P_F_staiv.png"
3179,"E_F_galit_gutman.png","P_F_staiv.png","FALSE","pictures/stimuli/E","pictures/stimuli/P","F","F","4",-0.912044767483886,"21","M","right","8985",1,1,3,2,FALSE,"E_F_galit_gutman.png P_F_staiv.png"
5169,"E_F_shiri.png","P_F_staiv.png","FALSE","pictures/stimuli/E","pictures/stimuli/P","F","F","4",-0.912044767483886,"21","M","right","8985",1,1,1,2,FALSE,"E_F_shiri.png P_F_staiv.png"
3898,"E_M_danker.png","P_M_smut.png","FALSE","pictures/stimuli/E","pictures/stimuli/P","M","M","5",0.107299384409869,"21","M","right","8985",1,1,1,1,FALSE,"E_M_danker.png P_M_smut.png"
5220,"E_F_galit_gutman.png","E_F_ilanit.png","TRUE","pictures/stimuli/E","pictures/stimuli/E","F","F","2",-2.9507330712714,"21","M","right","8985",1,1,3,2,FALSE,"E_F_galit_gutman.png E_F_ilanit.png"
5844,"P_M_benet.png","P_M_buji.png","TRUE","pictures/stimuli/P","pictures/stimuli/P","M","M","5",0.107299384409869,"21","M","right","8985",1,1,2,2,FALSE,"P_M_benet.png P_M_buji.png"
6059,"E_M_danker.png","E_M_ido.png","TRUE","pictures/stimuli/E","pictures/stimuli/E","M","M","4",-0.912044767483886,"21","M","right","8985",1,1,1,2,FALSE,"E_M_danker.png E_M_ido.png"
5111,"E_M_yuda.png","P_F_michaeli.png","FALSE","pictures/stimuli/E","pictures/stimuli/P","M","F","6",1.12664353630362,"21","M","right","8985",1,1,2,1,FALSE,"E_M_yuda.png P_F_michaeli.png"
3141,"E_M_asi.png","P_F_staiv.png","FALSE","pictures/stimuli/E","pictures/stimuli/P","M","F","5",0.107299384409869,"21","M","right","8985",1,1,1,2,FALSE,"E_M_asi.png P_F_staiv.png"
4803,"P_F_shaked.png","P_M_saar.png","TRUE","pictures/stimuli/P","pictures/stimuli/P","F","M","6",1.12664353630362,"21","M","right","8985",1,1,1,4,FALSE,"P_F_shaked.png P_M_saar.png"
