"RT","img_1","img_2","isSameProffesion","img1proffesion","img2proffesion","img1Gender","img2Gender","keyPressed","participant","time","normlised_keyPress","age","gender","handedness","isFamiliar_img1","isFamiliar_img2","vividness_img1","vividness_img2","reject_trial","pair"
10623,"E_C_F_ornaBanai.jpg","P_P_M_benet.jpg","FALSE","pictures/stimuli/E","pictures/stimuli/P","F","M","3","5c0d83e9b24b5c00017950db","06/08/2022, 17:28:42",-0.255932315351385,"27","M","left",1,1,0,0,FALSE,"E_C_F_ornaBanai.jpg P_P_M_benet.jpg"
11520,"E_C_F_harLev.jpg","P_P_M_peretz.jpg","FALSE","pictures/stimuli/E","pictures/stimuli/P","F","M","5","5c0d83e9b24b5c00017950db","06/08/2022, 17:28:42",1.33840014093593,"27","M","left",1,1,0,0,FALSE,"E_C_F_harLev.jpg P_P_M_peretz.jpg"
10151,"E_C_M_katorza.jpg","P_N_M_lapid.jpg","FALSE","pictures/stimuli/E","pictures/stimuli/P","M","M","2","5c0d83e9b24b5c00017950db","06/08/2022, 17:28:42",-1.05309854349504,"27","M","left",1,1,0,0,FALSE,"E_C_M_katorza.jpg P_N_M_lapid.jpg"
8101,"E_C_M_mushonov.jpg","E_M_M_tavori.jpg","TRUE","pictures/stimuli/E","pictures/stimuli/E","M","M","5","5c0d83e9b24b5c00017950db","06/08/2022, 17:28:42",1.33840014093593,"27","M","left",1,1,0,0,FALSE,"E_C_M_mushonov.jpg E_M_M_tavori.jpg"
7362,"E_C_M_shaharHasson.jpg","E_C_M_mushonov.jpg","TRUE","pictures/stimuli/E","pictures/stimuli/E","M","M","2","5c0d83e9b24b5c00017950db","06/08/2022, 17:28:42",-1.05309854349504,"27","M","left",1,1,0,0,FALSE,"E_C_M_mushonov.jpg E_C_M_shaharHasson.jpg"
7972,"P_P_M_smootrich.jpg","P_N_F_yehimovitz.jpg","TRUE","pictures/stimuli/P","pictures/stimuli/P","M","F","6","5c0d83e9b24b5c00017950db","06/08/2022, 17:28:42",2.13556636907959,"27","M","left",1,1,0,0,FALSE,"P_N_F_yehimovitz.jpg P_P_M_smootrich.jpg"
8252,"E_C_M_katorza.jpg","P_P_M_liberman.jpg","FALSE","pictures/stimuli/E","pictures/stimuli/P","M","M","3","5c0d83e9b24b5c00017950db","06/08/2022, 17:28:42",-0.255932315351385,"27","M","left",1,1,0,0,FALSE,"E_C_M_katorza.jpg P_P_M_liberman.jpg"
8401,"P_P_M_peretz.jpg","P_P_M_smootrich.jpg","TRUE","pictures/stimuli/P","pictures/stimuli/P","M","M","6","5c0d83e9b24b5c00017950db","06/08/2022, 17:28:42",2.13556636907959,"27","M","left",1,1,0,0,FALSE,"P_P_M_peretz.jpg P_P_M_smootrich.jpg"
10082,"E_C_F_ornaBanai.jpg","E_H_F_yanai.jpg","TRUE","pictures/stimuli/E","pictures/stimuli/E","F","F","3","5c0d83e9b24b5c00017950db","06/08/2022, 17:28:42",-0.255932315351385,"27","M","left",1,1,0,0,FALSE,"E_C_F_ornaBanai.jpg E_H_F_yanai.jpg"
8687,"E_C_M_mushonov.jpg","E_H_F_yanai.jpg","TRUE","pictures/stimuli/E","pictures/stimuli/E","M","F","3","5c0d83e9b24b5c00017950db","06/08/2022, 17:28:42",-0.255932315351385,"27","M","left",1,1,0,0,FALSE,"E_C_M_mushonov.jpg E_H_F_yanai.jpg"
11882,"P_P_M_benet.jpg","P_P_M_liberman.jpg","TRUE","pictures/stimuli/P","pictures/stimuli/P","M","M","2","5c0d83e9b24b5c00017950db","06/08/2022, 17:28:42",-1.05309854349504,"27","M","left",1,1,0,0,FALSE,"P_P_M_benet.jpg P_P_M_liberman.jpg"
6431,"E_C_M_mushonov.jpg","P_P_M_smootrich.jpg","FALSE","pictures/stimuli/E","pictures/stimuli/P","M","M","5","5c0d83e9b24b5c00017950db","06/08/2022, 17:28:42",1.33840014093593,"27","M","left",1,1,0,0,FALSE,"E_C_M_mushonov.jpg P_P_M_smootrich.jpg"
5672,"P_P_F_michaeliM.jpg","P_P_F_shaked.jpg","TRUE","pictures/stimuli/P","pictures/stimuli/P","F","F","5","5c0d83e9b24b5c00017950db","06/08/2022, 17:28:42",1.33840014093593,"27","M","left",1,1,0,0,FALSE,"P_P_F_michaeliM.jpg P_P_F_shaked.jpg"
15811,"E_M_M_Ivri.jpg","P_P_M_zamir.jpg","FALSE","pictures/stimuli/E","pictures/stimuli/P","M","M","3","5c0d83e9b24b5c00017950db","06/08/2022, 17:28:42",-0.255932315351385,"27","M","left",1,1,0,0,FALSE,"E_M_M_Ivri.jpg P_P_M_zamir.jpg"
6072,"P_P_M_benet.jpg","P_P_M_zamir.jpg","TRUE","pictures/stimuli/P","pictures/stimuli/P","M","M","3","5c0d83e9b24b5c00017950db","06/08/2022, 17:28:42",-0.255932315351385,"27","M","left",1,1,0,0,FALSE,"P_P_M_benet.jpg P_P_M_zamir.jpg"
17232,"E_C_M_alfi.jpg","P_P_F_shaked.jpg","FALSE","pictures/stimuli/E","pictures/stimuli/P","M","F","3","5c0d83e9b24b5c00017950db","06/08/2022, 17:28:42",-0.255932315351385,"27","M","left",1,1,0,0,FALSE,"E_C_M_alfi.jpg P_P_F_shaked.jpg"
6182,"E_M_M_Ivri.jpg","E_C_M_mushonov.jpg","TRUE","pictures/stimuli/E","pictures/stimuli/E","M","M","2","5c0d83e9b24b5c00017950db","06/08/2022, 17:28:42",-1.05309854349504,"27","M","left",1,1,0,0,FALSE,"E_C_M_mushonov.jpg E_M_M_Ivri.jpg"
7811,"E_C_M_katorza.jpg","E_C_F_harLev.jpg","TRUE","pictures/stimuli/E","pictures/stimuli/E","M","F","2","5c0d83e9b24b5c00017950db","06/08/2022, 17:28:42",-1.05309854349504,"27","M","left",1,1,0,0,FALSE,"E_C_F_harLev.jpg E_C_M_katorza.jpg"
5441,"E_M_M_Ivri.jpg","E_H_F_yanai.jpg","TRUE","pictures/stimuli/E","pictures/stimuli/E","M","F","3","5c0d83e9b24b5c00017950db","06/08/2022, 17:28:42",-0.255932315351385,"27","M","left",1,1,0,0,FALSE,"E_H_F_yanai.jpg E_M_M_Ivri.jpg"
5731,"E_C_F_harLev.jpg","P_P_M_smootrich.jpg","FALSE","pictures/stimuli/E","pictures/stimuli/P","F","M","5","5c0d83e9b24b5c00017950db","06/08/2022, 17:28:42",1.33840014093593,"27","M","left",1,1,0,0,FALSE,"E_C_F_harLev.jpg P_P_M_smootrich.jpg"
7702,"E_M_M_Ivri.jpg","P_N_F_yehimovitz.jpg","FALSE","pictures/stimuli/E","pictures/stimuli/P","M","F","2","5c0d83e9b24b5c00017950db","06/08/2022, 17:28:42",-1.05309854349504,"27","M","left",1,1,0,0,FALSE,"E_M_M_Ivri.jpg P_N_F_yehimovitz.jpg"
13762,"E_C_M_alfi.jpg","P_P_M_peretz.jpg","FALSE","pictures/stimuli/E","pictures/stimuli/P","M","M","2","5c0d83e9b24b5c00017950db","06/08/2022, 17:28:42",-1.05309854349504,"27","M","left",1,1,0,0,FALSE,"E_C_M_alfi.jpg P_P_M_peretz.jpg"
9983,"E_M_M_tavori.jpg","P_P_M_benet.jpg","FALSE","pictures/stimuli/E","pictures/stimuli/P","M","M","4","5c0d83e9b24b5c00017950db","06/08/2022, 17:28:42",0.541233912792273,"27","M","left",1,1,0,0,FALSE,"E_M_M_tavori.jpg P_P_M_benet.jpg"
7472,"E_C_M_shaharHasson.jpg","P_N_F_yehimovitz.jpg","FALSE","pictures/stimuli/E","pictures/stimuli/P","M","F","4","5c0d83e9b24b5c00017950db","06/08/2022, 17:28:42",0.541233912792273,"27","M","left",1,1,0,0,FALSE,"E_C_M_shaharHasson.jpg P_N_F_yehimovitz.jpg"
6421,"E_C_M_katorza.jpg","E_C_F_shaniCo.jpg","TRUE","pictures/stimuli/E","pictures/stimuli/E","M","F","2","5c0d83e9b24b5c00017950db","06/08/2022, 17:28:42",-1.05309854349504,"27","M","left",1,1,0,0,FALSE,"E_C_F_shaniCo.jpg E_C_M_katorza.jpg"
6042,"P_P_M_benet.jpg","P_P_M_peretz.jpg","TRUE","pictures/stimuli/P","pictures/stimuli/P","M","M","4","5c0d83e9b24b5c00017950db","06/08/2022, 17:28:42",0.541233912792273,"27","M","left",1,1,0,0,FALSE,"P_P_M_benet.jpg P_P_M_peretz.jpg"
6412,"E_C_F_ornaBanai.jpg","P_P_M_zamir.jpg","FALSE","pictures/stimuli/E","pictures/stimuli/P","F","M","2","5c0d83e9b24b5c00017950db","06/08/2022, 17:28:42",-1.05309854349504,"27","M","left",1,1,0,0,FALSE,"E_C_F_ornaBanai.jpg P_P_M_zamir.jpg"
7231,"E_C_F_shaniCo.jpg","E_H_F_yanai.jpg","TRUE","pictures/stimuli/E","pictures/stimuli/E","F","F","3","5c0d83e9b24b5c00017950db","06/08/2022, 17:28:42",-0.255932315351385,"27","M","left",1,1,0,0,FALSE,"E_C_F_shaniCo.jpg E_H_F_yanai.jpg"
12521,"E_C_M_alfi.jpg","E_H_F_yanai.jpg","TRUE","pictures/stimuli/E","pictures/stimuli/E","M","F","3","5c0d83e9b24b5c00017950db","06/08/2022, 17:28:42",-0.255932315351385,"27","M","left",1,1,0,0,FALSE,"E_C_M_alfi.jpg E_H_F_yanai.jpg"
3652,"E_C_M_mushonov.jpg","P_P_F_michaeliM.jpg","FALSE","pictures/stimuli/E","pictures/stimuli/P","M","F","2","5c0d83e9b24b5c00017950db","06/08/2022, 17:28:42",-1.05309854349504,"27","M","left",1,1,0,0,FALSE,"E_C_M_mushonov.jpg P_P_F_michaeliM.jpg"
8322,"E_C_F_ornaBanai.jpg","P_P_M_peretz.jpg","FALSE","pictures/stimuli/E","pictures/stimuli/P","F","M","2","5c0d83e9b24b5c00017950db","06/08/2022, 17:28:42",-1.05309854349504,"27","M","left",1,1,0,0,FALSE,"E_C_F_ornaBanai.jpg P_P_M_peretz.jpg"
7372,"E_M_F_rita.jpg","P_P_M_benet.jpg","FALSE","pictures/stimuli/E","pictures/stimuli/P","F","M","3","5c0d83e9b24b5c00017950db","06/08/2022, 17:28:42",-0.255932315351385,"27","M","left",1,1,0,0,FALSE,"E_M_F_rita.jpg P_P_M_benet.jpg"
4441,"E_C_F_harLev.jpg","P_P_F_michaeliM.jpg","FALSE","pictures/stimuli/E","pictures/stimuli/P","F","F","2","5c0d83e9b24b5c00017950db","06/08/2022, 17:28:42",-1.05309854349504,"27","M","left",1,1,0,0,FALSE,"E_C_F_harLev.jpg P_P_F_michaeliM.jpg"
11962,"E_C_F_shaniCo.jpg","P_N_F_yehimovitz.jpg","FALSE","pictures/stimuli/E","pictures/stimuli/P","F","F","2","5c0d83e9b24b5c00017950db","06/08/2022, 17:28:42",-1.05309854349504,"27","M","left",1,1,0,0,FALSE,"E_C_F_shaniCo.jpg P_N_F_yehimovitz.jpg"
6146,"P_P_M_liberman.jpg","P_P_M_peretz.jpg","TRUE","pictures/stimuli/P","pictures/stimuli/P","M","M","4","5c0d83e9b24b5c00017950db","06/08/2022, 17:28:42",0.541233912792273,"27","M","left",1,1,0,0,FALSE,"P_P_M_liberman.jpg P_P_M_peretz.jpg"
10544,"E_C_M_shaharHasson.jpg","E_M_M_Ivri.jpg","TRUE","pictures/stimuli/E","pictures/stimuli/E","M","M","3","5c0d83e9b24b5c00017950db","06/08/2022, 17:28:42",-0.255932315351385,"27","M","left",1,1,0,0,FALSE,"E_C_M_shaharHasson.jpg E_M_M_Ivri.jpg"
7551,"E_C_F_harLev.jpg","E_C_F_shaniCo.jpg","TRUE","pictures/stimuli/E","pictures/stimuli/E","F","F","2","5c0d83e9b24b5c00017950db","06/08/2022, 17:28:42",-1.05309854349504,"27","M","left",1,1,0,0,FALSE,"E_C_F_harLev.jpg E_C_F_shaniCo.jpg"
9043,"E_C_F_ornaBanai.jpg","P_N_M_lapid.jpg","FALSE","pictures/stimuli/E","pictures/stimuli/P","F","M","2","5c0d83e9b24b5c00017950db","06/08/2022, 17:28:42",-1.05309854349504,"27","M","left",1,1,0,0,FALSE,"E_C_F_ornaBanai.jpg P_N_M_lapid.jpg"
3562,"E_C_F_shaniCo.jpg","E_M_M_tavori.jpg","TRUE","pictures/stimuli/E","pictures/stimuli/E","F","M","4","5c0d83e9b24b5c00017950db","06/08/2022, 17:28:42",0.541233912792273,"27","M","left",1,1,0,0,FALSE,"E_C_F_shaniCo.jpg E_M_M_tavori.jpg"
8677,"E_C_F_harLev.jpg","P_P_F_shaked.jpg","FALSE","pictures/stimuli/E","pictures/stimuli/P","F","F","5","5c0d83e9b24b5c00017950db","06/08/2022, 17:28:42",1.33840014093593,"27","M","left",1,1,0,0,FALSE,"E_C_F_harLev.jpg P_P_F_shaked.jpg"
6641,"E_C_M_katorza.jpg","E_M_M_Ivri.jpg","TRUE","pictures/stimuli/E","pictures/stimuli/E","M","M","2","5c0d83e9b24b5c00017950db","06/08/2022, 17:28:42",-1.05309854349504,"27","M","left",1,1,0,0,FALSE,"E_C_M_katorza.jpg E_M_M_Ivri.jpg"
8571,"E_C_M_shaharHasson.jpg","P_P_F_michaeliM.jpg","FALSE","pictures/stimuli/E","pictures/stimuli/P","M","F","4","5c0d83e9b24b5c00017950db","06/08/2022, 17:28:42",0.541233912792273,"27","M","left",1,1,0,0,FALSE,"E_C_M_shaharHasson.jpg P_P_F_michaeliM.jpg"
7072,"E_M_F_rita.jpg","P_P_F_shaked.jpg","FALSE","pictures/stimuli/E","pictures/stimuli/P","F","F","3","5c0d83e9b24b5c00017950db","06/08/2022, 17:28:42",-0.255932315351385,"27","M","left",1,1,0,0,FALSE,"E_M_F_rita.jpg P_P_F_shaked.jpg"
7002,"E_H_F_yanai.jpg","P_P_M_benet.jpg","FALSE","pictures/stimuli/E","pictures/stimuli/P","F","M","4","5c0d83e9b24b5c00017950db","06/08/2022, 17:28:42",0.541233912792273,"27","M","left",1,1,0,0,FALSE,"E_H_F_yanai.jpg P_P_M_benet.jpg"
12893,"E_M_M_Ivri.jpg","P_P_M_liberman.jpg","FALSE","pictures/stimuli/E","pictures/stimuli/P","M","M","4","5c0d83e9b24b5c00017950db","06/08/2022, 17:28:42",0.541233912792273,"27","M","left",1,1,0,0,FALSE,"E_M_M_Ivri.jpg P_P_M_liberman.jpg"
3291,"E_C_M_alfi.jpg","E_C_F_harLev.jpg","TRUE","pictures/stimuli/E","pictures/stimuli/E","M","F","2","5c0d83e9b24b5c00017950db","06/08/2022, 17:28:42",-1.05309854349504,"27","M","left",1,1,0,0,FALSE,"E_C_F_harLev.jpg E_C_M_alfi.jpg"
4161,"E_C_M_katorza.jpg","P_N_F_yehimovitz.jpg","FALSE","pictures/stimuli/E","pictures/stimuli/P","M","F","3","5c0d83e9b24b5c00017950db","06/08/2022, 17:28:42",-0.255932315351385,"27","M","left",1,1,0,0,FALSE,"E_C_M_katorza.jpg P_N_F_yehimovitz.jpg"
5862,"E_C_M_mushonov.jpg","E_M_F_rita.jpg","TRUE","pictures/stimuli/E","pictures/stimuli/E","M","F","3","5c0d83e9b24b5c00017950db","06/08/2022, 17:28:42",-0.255932315351385,"27","M","left",1,1,0,0,FALSE,"E_C_M_mushonov.jpg E_M_F_rita.jpg"
4022,"E_C_F_shaniCo.jpg","P_P_M_zamir.jpg","FALSE","pictures/stimuli/E","pictures/stimuli/P","F","M","2","5c0d83e9b24b5c00017950db","06/08/2022, 17:28:42",-1.05309854349504,"27","M","left",1,1,0,0,FALSE,"E_C_F_shaniCo.jpg P_P_M_zamir.jpg"
9481,"P_P_M_benet.jpg","P_P_F_michaeliM.jpg","TRUE","pictures/stimuli/P","pictures/stimuli/P","M","F","4","5c0d83e9b24b5c00017950db","06/08/2022, 17:28:42",0.541233912792273,"27","M","left",1,1,0,0,FALSE,"P_P_F_michaeliM.jpg P_P_M_benet.jpg"
4912,"E_C_M_shaharHasson.jpg","P_P_M_benet.jpg","FALSE","pictures/stimuli/E","pictures/stimuli/P","M","M","3","5c0d83e9b24b5c00017950db","06/08/2022, 17:28:42",-0.255932315351385,"27","M","left",1,1,0,0,FALSE,"E_C_M_shaharHasson.jpg P_P_M_benet.jpg"
8012,"E_C_F_harLev.jpg","E_H_F_yanai.jpg","TRUE","pictures/stimuli/E","pictures/stimuli/E","F","F","3","5c0d83e9b24b5c00017950db","06/08/2022, 17:28:42",-0.255932315351385,"27","M","left",1,1,0,0,FALSE,"E_C_F_harLev.jpg E_H_F_yanai.jpg"
7092,"P_P_M_smootrich.jpg","P_P_M_zamir.jpg","TRUE","pictures/stimuli/P","pictures/stimuli/P","M","M","6","5c0d83e9b24b5c00017950db","06/08/2022, 17:28:42",2.13556636907959,"27","M","left",1,1,0,0,FALSE,"P_P_M_smootrich.jpg P_P_M_zamir.jpg"
5851,"E_C_M_shaharHasson.jpg","P_P_M_smootrich.jpg","FALSE","pictures/stimuli/E","pictures/stimuli/P","M","M","5","5c0d83e9b24b5c00017950db","06/08/2022, 17:28:42",1.33840014093593,"27","M","left",1,1,0,0,FALSE,"E_C_M_shaharHasson.jpg P_P_M_smootrich.jpg"
6882,"P_P_M_liberman.jpg","P_N_F_yehimovitz.jpg","TRUE","pictures/stimuli/P","pictures/stimuli/P","M","F","5","5c0d83e9b24b5c00017950db","06/08/2022, 17:28:42",1.33840014093593,"27","M","left",1,1,0,0,FALSE,"P_N_F_yehimovitz.jpg P_P_M_liberman.jpg"
20702,"E_M_F_rita.jpg","P_P_M_liberman.jpg","FALSE","pictures/stimuli/E","pictures/stimuli/P","F","M","3","5c0d83e9b24b5c00017950db","06/08/2022, 17:28:42",-0.255932315351385,"27","M","left",1,1,0,0,FALSE,"E_M_F_rita.jpg P_P_M_liberman.jpg"
11162,"P_N_M_lapid.jpg","P_P_M_zamir.jpg","TRUE","pictures/stimuli/P","pictures/stimuli/P","M","M","2","5c0d83e9b24b5c00017950db","06/08/2022, 17:28:42",-1.05309854349504,"27","M","left",1,1,0,0,FALSE,"P_N_M_lapid.jpg P_P_M_zamir.jpg"
25902,"E_C_F_harLev.jpg","E_C_F_ornaBanai.jpg","TRUE","pictures/stimuli/E","pictures/stimuli/E","F","F","2","5c0d83e9b24b5c00017950db","06/08/2022, 17:28:42",-1.05309854349504,"27","M","left",1,1,0,0,FALSE,"E_C_F_harLev.jpg E_C_F_ornaBanai.jpg"
4712,"E_C_F_ornaBanai.jpg","P_N_F_yehimovitz.jpg","FALSE","pictures/stimuli/E","pictures/stimuli/P","F","F","2","5c0d83e9b24b5c00017950db","06/08/2022, 17:28:42",-1.05309854349504,"27","M","left",1,1,0,0,FALSE,"E_C_F_ornaBanai.jpg P_N_F_yehimovitz.jpg"
9421,"P_P_M_liberman.jpg","P_P_F_shaked.jpg","TRUE","pictures/stimuli/P","pictures/stimuli/P","M","F","5","5c0d83e9b24b5c00017950db","06/08/2022, 17:28:42",1.33840014093593,"27","M","left",1,1,0,0,FALSE,"P_P_F_shaked.jpg P_P_M_liberman.jpg"
12092,"P_P_M_benet.jpg","P_N_F_yehimovitz.jpg","TRUE","pictures/stimuli/P","pictures/stimuli/P","M","F","6","5c0d83e9b24b5c00017950db","06/08/2022, 17:28:42",2.13556636907959,"27","M","left",1,1,0,0,FALSE,"P_N_F_yehimovitz.jpg P_P_M_benet.jpg"
4082,"E_C_F_shaniCo.jpg","P_P_F_michaeliM.jpg","FALSE","pictures/stimuli/E","pictures/stimuli/P","F","F","2","5c0d83e9b24b5c00017950db","06/08/2022, 17:28:42",-1.05309854349504,"27","M","left",1,1,0,0,FALSE,"E_C_F_shaniCo.jpg P_P_F_michaeliM.jpg"
3832,"P_P_F_michaeliM.jpg","P_P_M_smootrich.jpg","TRUE","pictures/stimuli/P","pictures/stimuli/P","F","M","6","5c0d83e9b24b5c00017950db","06/08/2022, 17:28:42",2.13556636907959,"27","M","left",1,1,0,0,FALSE,"P_P_F_michaeliM.jpg P_P_M_smootrich.jpg"
5802,"E_M_M_tavori.jpg","P_P_F_michaeliM.jpg","FALSE","pictures/stimuli/E","pictures/stimuli/P","M","F","5","5c0d83e9b24b5c00017950db","06/08/2022, 17:28:42",1.33840014093593,"27","M","left",1,1,0,0,FALSE,"E_M_M_tavori.jpg P_P_F_michaeliM.jpg"
5072,"E_C_M_mushonov.jpg","P_N_M_lapid.jpg","FALSE","pictures/stimuli/E","pictures/stimuli/P","M","M","2","5c0d83e9b24b5c00017950db","06/08/2022, 17:28:42",-1.05309854349504,"27","M","left",1,1,0,0,FALSE,"E_C_M_mushonov.jpg P_N_M_lapid.jpg"
16261,"P_N_M_lapid.jpg","P_P_F_michaeliM.jpg","TRUE","pictures/stimuli/P","pictures/stimuli/P","M","F","2","5c0d83e9b24b5c00017950db","06/08/2022, 17:28:42",-1.05309854349504,"27","M","left",1,1,0,0,FALSE,"P_N_M_lapid.jpg P_P_F_michaeliM.jpg"
3772,"E_M_M_Ivri.jpg","P_N_M_lapid.jpg","FALSE","pictures/stimuli/E","pictures/stimuli/P","M","M","2","5c0d83e9b24b5c00017950db","06/08/2022, 17:28:42",-1.05309854349504,"27","M","left",1,1,0,0,FALSE,"E_M_M_Ivri.jpg P_N_M_lapid.jpg"
5004,"E_C_F_harLev.jpg","E_C_M_mushonov.jpg","TRUE","pictures/stimuli/E","pictures/stimuli/E","F","M","3","5c0d83e9b24b5c00017950db","06/08/2022, 17:28:42",-0.255932315351385,"27","M","left",1,1,0,0,FALSE,"E_C_F_harLev.jpg E_C_M_mushonov.jpg"
15400,"E_C_F_ornaBanai.jpg","P_P_M_liberman.jpg","FALSE","pictures/stimuli/E","pictures/stimuli/P","F","M","5","5c0d83e9b24b5c00017950db","06/08/2022, 17:28:42",1.33840014093593,"27","M","left",1,1,0,0,FALSE,"E_C_F_ornaBanai.jpg P_P_M_liberman.jpg"
6476,"E_C_F_harLev.jpg","E_M_F_rita.jpg","TRUE","pictures/stimuli/E","pictures/stimuli/E","F","F","3","5c0d83e9b24b5c00017950db","06/08/2022, 17:28:42",-0.255932315351385,"27","M","left",1,1,0,0,FALSE,"E_C_F_harLev.jpg E_M_F_rita.jpg"
5130,"E_M_M_tavori.jpg","P_P_F_shaked.jpg","FALSE","pictures/stimuli/E","pictures/stimuli/P","M","F","3","5c0d83e9b24b5c00017950db","06/08/2022, 17:28:42",-0.255932315351385,"27","M","left",1,1,0,0,FALSE,"E_M_M_tavori.jpg P_P_F_shaked.jpg"
3692,"P_P_F_shaked.jpg","P_N_F_yehimovitz.jpg","TRUE","pictures/stimuli/P","pictures/stimuli/P","F","F","6","5c0d83e9b24b5c00017950db","06/08/2022, 17:28:42",2.13556636907959,"27","M","left",1,1,0,0,FALSE,"P_N_F_yehimovitz.jpg P_P_F_shaked.jpg"
6455,"E_C_F_harLev.jpg","P_P_M_zamir.jpg","FALSE","pictures/stimuli/E","pictures/stimuli/P","F","M","2","5c0d83e9b24b5c00017950db","06/08/2022, 17:28:42",-1.05309854349504,"27","M","left",1,1,0,0,FALSE,"E_C_F_harLev.jpg P_P_M_zamir.jpg"
6651,"E_H_F_yanai.jpg","P_P_F_michaeliM.jpg","FALSE","pictures/stimuli/E","pictures/stimuli/P","F","F","2","5c0d83e9b24b5c00017950db","06/08/2022, 17:28:42",-1.05309854349504,"27","M","left",1,1,0,0,FALSE,"E_H_F_yanai.jpg P_P_F_michaeliM.jpg"
10687,"E_M_F_rita.jpg","P_P_M_zamir.jpg","FALSE","pictures/stimuli/E","pictures/stimuli/P","F","M","3","5c0d83e9b24b5c00017950db","06/08/2022, 17:28:42",-0.255932315351385,"27","M","left",1,1,0,0,FALSE,"E_M_F_rita.jpg P_P_M_zamir.jpg"
5462,"E_M_M_Ivri.jpg","E_C_F_shaniCo.jpg","TRUE","pictures/stimuli/E","pictures/stimuli/E","M","F","2","5c0d83e9b24b5c00017950db","06/08/2022, 17:28:42",-1.05309854349504,"27","M","left",1,1,0,0,FALSE,"E_C_F_shaniCo.jpg E_M_M_Ivri.jpg"
4461,"E_C_M_shaharHasson.jpg","E_C_F_shaniCo.jpg","TRUE","pictures/stimuli/E","pictures/stimuli/E","M","F","3","5c0d83e9b24b5c00017950db","06/08/2022, 17:28:42",-0.255932315351385,"27","M","left",1,1,0,0,FALSE,"E_C_F_shaniCo.jpg E_C_M_shaharHasson.jpg"
8141,"E_C_M_shaharHasson.jpg","P_P_M_liberman.jpg","FALSE","pictures/stimuli/E","pictures/stimuli/P","M","M","3","5c0d83e9b24b5c00017950db","06/08/2022, 17:28:42",-0.255932315351385,"27","M","left",1,1,0,0,FALSE,"E_C_M_shaharHasson.jpg P_P_M_liberman.jpg"
3700,"E_C_M_katorza.jpg","E_M_F_rita.jpg","TRUE","pictures/stimuli/E","pictures/stimuli/E","M","F","3","5c0d83e9b24b5c00017950db","06/08/2022, 17:28:42",-0.255932315351385,"27","M","left",1,1,0,0,FALSE,"E_C_M_katorza.jpg E_M_F_rita.jpg"
6746,"E_M_M_tavori.jpg","P_P_M_liberman.jpg","FALSE","pictures/stimuli/E","pictures/stimuli/P","M","M","4","5c0d83e9b24b5c00017950db","06/08/2022, 17:28:42",0.541233912792273,"27","M","left",1,1,0,0,FALSE,"E_M_M_tavori.jpg P_P_M_liberman.jpg"
9884,"E_C_M_katorza.jpg","E_C_M_mushonov.jpg","TRUE","pictures/stimuli/E","pictures/stimuli/E","M","M","2","5c0d83e9b24b5c00017950db","06/08/2022, 17:28:42",-1.05309854349504,"27","M","left",1,1,0,0,FALSE,"E_C_M_katorza.jpg E_C_M_mushonov.jpg"
5271,"E_C_F_harLev.jpg","P_P_M_benet.jpg","FALSE","pictures/stimuli/E","pictures/stimuli/P","F","M","5","5c0d83e9b24b5c00017950db","06/08/2022, 17:28:42",1.33840014093593,"27","M","left",1,1,0,0,FALSE,"E_C_F_harLev.jpg P_P_M_benet.jpg"
4457,"E_C_F_harLev.jpg","E_M_M_Ivri.jpg","TRUE","pictures/stimuli/E","pictures/stimuli/E","F","M","2","5c0d83e9b24b5c00017950db","06/08/2022, 17:28:42",-1.05309854349504,"27","M","left",1,1,0,0,FALSE,"E_C_F_harLev.jpg E_M_M_Ivri.jpg"
8086,"E_C_F_shaniCo.jpg","P_P_M_peretz.jpg","FALSE","pictures/stimuli/E","pictures/stimuli/P","F","M","2","5c0d83e9b24b5c00017950db","06/08/2022, 17:28:42",-1.05309854349504,"27","M","left",1,1,0,0,FALSE,"E_C_F_shaniCo.jpg P_P_M_peretz.jpg"
6891,"E_C_M_alfi.jpg","E_M_F_rita.jpg","TRUE","pictures/stimuli/E","pictures/stimuli/E","M","F","3","5c0d83e9b24b5c00017950db","06/08/2022, 17:28:42",-0.255932315351385,"27","M","left",1,1,0,0,FALSE,"E_C_M_alfi.jpg E_M_F_rita.jpg"
6836,"P_P_F_michaeliM.jpg","P_P_M_peretz.jpg","TRUE","pictures/stimuli/P","pictures/stimuli/P","F","M","1","5c0d83e9b24b5c00017950db","06/08/2022, 17:28:42",-1.8502647716387,"27","M","left",1,1,0,0,FALSE,"P_P_F_michaeliM.jpg P_P_M_peretz.jpg"
7691,"E_M_M_tavori.jpg","E_H_F_yanai.jpg","TRUE","pictures/stimuli/E","pictures/stimuli/E","M","F","4","5c0d83e9b24b5c00017950db","06/08/2022, 17:28:42",0.541233912792273,"27","M","left",1,1,0,0,FALSE,"E_H_F_yanai.jpg E_M_M_tavori.jpg"
4230,"E_C_M_katorza.jpg","E_C_F_ornaBanai.jpg","TRUE","pictures/stimuli/E","pictures/stimuli/E","M","F","3","5c0d83e9b24b5c00017950db","06/08/2022, 17:28:42",-0.255932315351385,"27","M","left",1,1,0,0,FALSE,"E_C_F_ornaBanai.jpg E_C_M_katorza.jpg"
5660,"E_C_M_shaharHasson.jpg","P_P_F_shaked.jpg","FALSE","pictures/stimuli/E","pictures/stimuli/P","M","F","3","5c0d83e9b24b5c00017950db","06/08/2022, 17:28:42",-0.255932315351385,"27","M","left",1,1,0,0,FALSE,"E_C_M_shaharHasson.jpg P_P_F_shaked.jpg"
5387,"E_C_M_katorza.jpg","P_P_M_peretz.jpg","FALSE","pictures/stimuli/E","pictures/stimuli/P","M","M","2","5c0d83e9b24b5c00017950db","06/08/2022, 17:28:42",-1.05309854349504,"27","M","left",1,1,0,0,FALSE,"E_C_M_katorza.jpg P_P_M_peretz.jpg"
13173,"E_C_F_shaniCo.jpg","P_P_M_liberman.jpg","FALSE","pictures/stimuli/E","pictures/stimuli/P","F","M","5","5c0d83e9b24b5c00017950db","06/08/2022, 17:28:42",1.33840014093593,"27","M","left",1,1,0,0,FALSE,"E_C_F_shaniCo.jpg P_P_M_liberman.jpg"
7062,"E_C_M_katorza.jpg","E_M_M_tavori.jpg","TRUE","pictures/stimuli/E","pictures/stimuli/E","M","M","4","5c0d83e9b24b5c00017950db","06/08/2022, 17:28:42",0.541233912792273,"27","M","left",1,1,0,0,FALSE,"E_C_M_katorza.jpg E_M_M_tavori.jpg"
5852,"E_C_F_shaniCo.jpg","P_P_M_smootrich.jpg","FALSE","pictures/stimuli/E","pictures/stimuli/P","F","M","5","5c0d83e9b24b5c00017950db","06/08/2022, 17:28:42",1.33840014093593,"27","M","left",1,1,0,0,FALSE,"E_C_F_shaniCo.jpg P_P_M_smootrich.jpg"
21642,"E_C_M_mushonov.jpg","P_P_F_shaked.jpg","FALSE","pictures/stimuli/E","pictures/stimuli/P","M","F","4","5c0d83e9b24b5c00017950db","06/08/2022, 17:28:42",0.541233912792273,"27","M","left",1,1,0,0,FALSE,"E_C_M_mushonov.jpg P_P_F_shaked.jpg"
3543,"P_N_M_lapid.jpg","P_P_M_peretz.jpg","TRUE","pictures/stimuli/P","pictures/stimuli/P","M","M","2","5c0d83e9b24b5c00017950db","06/08/2022, 17:28:42",-1.05309854349504,"27","M","left",1,1,0,0,FALSE,"P_N_M_lapid.jpg P_P_M_peretz.jpg"
28423,"E_C_M_alfi.jpg","P_P_M_zamir.jpg","FALSE","pictures/stimuli/E","pictures/stimuli/P","M","M","2","5c0d83e9b24b5c00017950db","06/08/2022, 17:28:42",-1.05309854349504,"27","M","left",1,1,0,0,FALSE,"E_C_M_alfi.jpg P_P_M_zamir.jpg"
7542,"E_C_M_shaharHasson.jpg","E_M_F_rita.jpg","TRUE","pictures/stimuli/E","pictures/stimuli/E","M","F","3","5c0d83e9b24b5c00017950db","06/08/2022, 17:28:42",-0.255932315351385,"27","M","left",1,1,0,0,FALSE,"E_C_M_shaharHasson.jpg E_M_F_rita.jpg"
4432,"E_M_M_Ivri.jpg","E_M_M_tavori.jpg","TRUE","pictures/stimuli/E","pictures/stimuli/E","M","M","4","5c0d83e9b24b5c00017950db","06/08/2022, 17:28:42",0.541233912792273,"27","M","left",1,1,0,0,FALSE,"E_M_M_Ivri.jpg E_M_M_tavori.jpg"
57762,"E_C_F_ornaBanai.jpg","E_C_F_shaniCo.jpg","TRUE","pictures/stimuli/E","pictures/stimuli/E","F","F","2","5c0d83e9b24b5c00017950db","06/08/2022, 17:28:42",-1.05309854349504,"27","M","left",1,1,0,0,TRUE,"E_C_F_ornaBanai.jpg E_C_F_shaniCo.jpg"
4752,"P_N_M_lapid.jpg","P_N_F_yehimovitz.jpg","TRUE","pictures/stimuli/P","pictures/stimuli/P","M","F","2","5c0d83e9b24b5c00017950db","06/08/2022, 17:28:42",-1.05309854349504,"27","M","left",1,1,0,0,FALSE,"P_N_F_yehimovitz.jpg P_N_M_lapid.jpg"
32192,"E_H_F_yanai.jpg","P_P_M_peretz.jpg","FALSE","pictures/stimuli/E","pictures/stimuli/P","F","M","3","5c0d83e9b24b5c00017950db","06/08/2022, 17:28:42",-0.255932315351385,"27","M","left",1,1,0,0,TRUE,"E_H_F_yanai.jpg P_P_M_peretz.jpg"
11902,"P_P_F_shaked.jpg","P_P_M_smootrich.jpg","TRUE","pictures/stimuli/P","pictures/stimuli/P","F","M","2","5c0d83e9b24b5c00017950db","06/08/2022, 17:28:42",-1.05309854349504,"27","M","left",1,1,0,0,FALSE,"P_P_F_shaked.jpg P_P_M_smootrich.jpg"
4481,"E_C_F_ornaBanai.jpg","E_M_M_tavori.jpg","TRUE","pictures/stimuli/E","pictures/stimuli/E","F","M","5","5c0d83e9b24b5c00017950db","06/08/2022, 17:28:42",1.33840014093593,"27","M","left",1,1,0,0,FALSE,"E_C_F_ornaBanai.jpg E_M_M_tavori.jpg"
9395,"E_H_F_yanai.jpg","P_N_F_yehimovitz.jpg","FALSE","pictures/stimuli/E","pictures/stimuli/P","F","F","3","5c0d83e9b24b5c00017950db","06/08/2022, 17:28:42",-0.255932315351385,"27","M","left",1,1,0,0,FALSE,"E_H_F_yanai.jpg P_N_F_yehimovitz.jpg"
7312,"P_P_M_benet.jpg","P_N_M_lapid.jpg","TRUE","pictures/stimuli/P","pictures/stimuli/P","M","M","3","5c0d83e9b24b5c00017950db","06/08/2022, 17:28:42",-0.255932315351385,"27","M","left",1,1,0,0,FALSE,"P_N_M_lapid.jpg P_P_M_benet.jpg"
5004,"E_C_M_alfi.jpg","P_N_F_yehimovitz.jpg","FALSE","pictures/stimuli/E","pictures/stimuli/P","M","F","2","5c0d83e9b24b5c00017950db","06/08/2022, 17:28:42",-1.05309854349504,"27","M","left",1,1,0,0,FALSE,"E_C_M_alfi.jpg P_N_F_yehimovitz.jpg"
5727,"E_M_F_rita.jpg","E_M_M_tavori.jpg","TRUE","pictures/stimuli/E","pictures/stimuli/E","F","M","3","5c0d83e9b24b5c00017950db","06/08/2022, 17:28:42",-0.255932315351385,"27","M","left",1,1,0,0,FALSE,"E_M_F_rita.jpg E_M_M_tavori.jpg"
12573,"E_C_M_alfi.jpg","E_C_F_ornaBanai.jpg","TRUE","pictures/stimuli/E","pictures/stimuli/E","M","F","2","5c0d83e9b24b5c00017950db","06/08/2022, 17:28:42",-1.05309854349504,"27","M","left",1,1,0,0,FALSE,"E_C_F_ornaBanai.jpg E_C_M_alfi.jpg"
23152,"E_H_F_yanai.jpg","P_P_F_shaked.jpg","FALSE","pictures/stimuli/E","pictures/stimuli/P","F","F","4","5c0d83e9b24b5c00017950db","06/08/2022, 17:28:42",0.541233912792273,"27","M","left",1,1,0,0,FALSE,"E_H_F_yanai.jpg P_P_F_shaked.jpg"
56151,"E_C_F_ornaBanai.jpg","P_P_F_shaked.jpg","FALSE","pictures/stimuli/E","pictures/stimuli/P","F","F","3","5c0d83e9b24b5c00017950db","06/08/2022, 17:28:42",-0.255932315351385,"27","M","left",1,1,0,0,TRUE,"E_C_F_ornaBanai.jpg P_P_F_shaked.jpg"
6411,"P_P_M_liberman.jpg","P_P_F_michaeliM.jpg","TRUE","pictures/stimuli/P","pictures/stimuli/P","M","F","5","5c0d83e9b24b5c00017950db","06/08/2022, 17:28:42",1.33840014093593,"27","M","left",1,1,0,0,FALSE,"P_P_F_michaeliM.jpg P_P_M_liberman.jpg"
3892,"E_C_F_ornaBanai.jpg","E_M_F_rita.jpg","TRUE","pictures/stimuli/E","pictures/stimuli/E","F","F","3","5c0d83e9b24b5c00017950db","06/08/2022, 17:28:42",-0.255932315351385,"27","M","left",1,1,0,0,FALSE,"E_C_F_ornaBanai.jpg E_M_F_rita.jpg"
7282,"E_C_M_alfi.jpg","P_N_M_lapid.jpg","FALSE","pictures/stimuli/E","pictures/stimuli/P","M","M","2","5c0d83e9b24b5c00017950db","06/08/2022, 17:28:42",-1.05309854349504,"27","M","left",1,1,0,0,FALSE,"E_C_M_alfi.jpg P_N_M_lapid.jpg"
28202,"E_C_F_shaniCo.jpg","P_N_M_lapid.jpg","FALSE","pictures/stimuli/E","pictures/stimuli/P","F","M","2","5c0d83e9b24b5c00017950db","06/08/2022, 17:28:42",-1.05309854349504,"27","M","left",1,1,0,0,FALSE,"E_C_F_shaniCo.jpg P_N_M_lapid.jpg"
18141,"E_C_F_harLev.jpg","P_N_F_yehimovitz.jpg","FALSE","pictures/stimuli/E","pictures/stimuli/P","F","F","3","5c0d83e9b24b5c00017950db","06/08/2022, 17:28:42",-0.255932315351385,"27","M","left",1,1,0,0,FALSE,"E_C_F_harLev.jpg P_N_F_yehimovitz.jpg"
5142,"E_M_M_tavori.jpg","P_P_M_zamir.jpg","FALSE","pictures/stimuli/E","pictures/stimuli/P","M","M","4","5c0d83e9b24b5c00017950db","06/08/2022, 17:28:42",0.541233912792273,"27","M","left",1,1,0,0,FALSE,"E_M_M_tavori.jpg P_P_M_zamir.jpg"
4241,"E_C_M_shaharHasson.jpg","E_C_F_ornaBanai.jpg","TRUE","pictures/stimuli/E","pictures/stimuli/E","M","F","3","5c0d83e9b24b5c00017950db","06/08/2022, 17:28:42",-0.255932315351385,"27","M","left",1,1,0,0,FALSE,"E_C_F_ornaBanai.jpg E_C_M_shaharHasson.jpg"
7852,"E_M_M_Ivri.jpg","P_P_F_shaked.jpg","FALSE","pictures/stimuli/E","pictures/stimuli/P","M","F","5","5c0d83e9b24b5c00017950db","06/08/2022, 17:28:42",1.33840014093593,"27","M","left",1,1,0,0,FALSE,"E_M_M_Ivri.jpg P_P_F_shaked.jpg"
4772,"E_M_M_tavori.jpg","P_P_M_smootrich.jpg","FALSE","pictures/stimuli/E","pictures/stimuli/P","M","M","3","5c0d83e9b24b5c00017950db","06/08/2022, 17:28:42",-0.255932315351385,"27","M","left",1,1,0,0,FALSE,"E_M_M_tavori.jpg P_P_M_smootrich.jpg"
3001,"E_M_M_Ivri.jpg","E_C_F_ornaBanai.jpg","TRUE","pictures/stimuli/E","pictures/stimuli/E","M","F","3","5c0d83e9b24b5c00017950db","06/08/2022, 17:28:42",-0.255932315351385,"27","M","left",1,1,0,0,FALSE,"E_C_F_ornaBanai.jpg E_M_M_Ivri.jpg"
3683,"E_M_F_rita.jpg","P_P_M_peretz.jpg","FALSE","pictures/stimuli/E","pictures/stimuli/P","F","M","3","5c0d83e9b24b5c00017950db","06/08/2022, 17:28:42",-0.255932315351385,"27","M","left",1,1,0,0,FALSE,"E_M_F_rita.jpg P_P_M_peretz.jpg"
7172,"E_C_F_harLev.jpg","P_P_M_liberman.jpg","FALSE","pictures/stimuli/E","pictures/stimuli/P","F","M","5","5c0d83e9b24b5c00017950db","06/08/2022, 17:28:42",1.33840014093593,"27","M","left",1,1,0,0,FALSE,"E_C_F_harLev.jpg P_P_M_liberman.jpg"
9742,"E_C_M_katorza.jpg","E_H_F_yanai.jpg","TRUE","pictures/stimuli/E","pictures/stimuli/E","M","F","2","5c0d83e9b24b5c00017950db","06/08/2022, 17:28:42",-1.05309854349504,"27","M","left",1,1,0,0,FALSE,"E_C_M_katorza.jpg E_H_F_yanai.jpg"
2811,"E_C_M_alfi.jpg","E_C_F_shaniCo.jpg","TRUE","pictures/stimuli/E","pictures/stimuli/E","M","F","2","5c0d83e9b24b5c00017950db","06/08/2022, 17:28:42",-1.05309854349504,"27","M","left",1,1,0,0,FALSE,"E_C_F_shaniCo.jpg E_C_M_alfi.jpg"
3021,"E_C_M_mushonov.jpg","E_C_F_shaniCo.jpg","TRUE","pictures/stimuli/E","pictures/stimuli/E","M","F","2","5c0d83e9b24b5c00017950db","06/08/2022, 17:28:42",-1.05309854349504,"27","M","left",1,1,0,0,FALSE,"E_C_F_shaniCo.jpg E_C_M_mushonov.jpg"
3822,"E_C_F_harLev.jpg","E_M_M_tavori.jpg","TRUE","pictures/stimuli/E","pictures/stimuli/E","F","M","5","5c0d83e9b24b5c00017950db","06/08/2022, 17:28:42",1.33840014093593,"27","M","left",1,1,0,0,FALSE,"E_C_F_harLev.jpg E_M_M_tavori.jpg"
89218,"E_C_F_ornaBanai.jpg","P_P_M_smootrich.jpg","FALSE","pictures/stimuli/E","pictures/stimuli/P","F","M","4","5c0d83e9b24b5c00017950db","06/08/2022, 17:28:42",0.541233912792273,"27","M","left",1,1,0,0,TRUE,"E_C_F_ornaBanai.jpg P_P_M_smootrich.jpg"
4720,"E_M_F_rita.jpg","P_N_F_yehimovitz.jpg","FALSE","pictures/stimuli/E","pictures/stimuli/P","F","F","3","5c0d83e9b24b5c00017950db","06/08/2022, 17:28:42",-0.255932315351385,"27","M","left",1,1,0,0,FALSE,"E_M_F_rita.jpg P_N_F_yehimovitz.jpg"
4052,"E_M_F_rita.jpg","P_N_M_lapid.jpg","FALSE","pictures/stimuli/E","pictures/stimuli/P","F","M","3","5c0d83e9b24b5c00017950db","06/08/2022, 17:28:42",-0.255932315351385,"27","M","left",1,1,0,0,FALSE,"E_M_F_rita.jpg P_N_M_lapid.jpg"
7084,"E_C_F_shaniCo.jpg","P_P_M_benet.jpg","FALSE","pictures/stimuli/E","pictures/stimuli/P","F","M","5","5c0d83e9b24b5c00017950db","06/08/2022, 17:28:42",1.33840014093593,"27","M","left",1,1,0,0,FALSE,"E_C_F_shaniCo.jpg P_P_M_benet.jpg"
4011,"E_H_F_yanai.jpg","P_P_M_liberman.jpg","FALSE","pictures/stimuli/E","pictures/stimuli/P","F","M","4","5c0d83e9b24b5c00017950db","06/08/2022, 17:28:42",0.541233912792273,"27","M","left",1,1,0,0,FALSE,"E_H_F_yanai.jpg P_P_M_liberman.jpg"
3602,"E_M_M_tavori.jpg","P_N_F_yehimovitz.jpg","FALSE","pictures/stimuli/E","pictures/stimuli/P","M","F","4","5c0d83e9b24b5c00017950db","06/08/2022, 17:28:42",0.541233912792273,"27","M","left",1,1,0,0,FALSE,"E_M_M_tavori.jpg P_N_F_yehimovitz.jpg"
4613,"E_M_M_Ivri.jpg","E_M_F_rita.jpg","TRUE","pictures/stimuli/E","pictures/stimuli/E","M","F","3","5c0d83e9b24b5c00017950db","06/08/2022, 17:28:42",-0.255932315351385,"27","M","left",1,1,0,0,FALSE,"E_M_F_rita.jpg E_M_M_Ivri.jpg"
9102,"P_P_M_benet.jpg","P_P_F_shaked.jpg","TRUE","pictures/stimuli/P","pictures/stimuli/P","M","F","1","5c0d83e9b24b5c00017950db","06/08/2022, 17:28:42",-1.8502647716387,"27","M","left",1,1,0,0,FALSE,"P_P_F_shaked.jpg P_P_M_benet.jpg"
4571,"E_C_M_mushonov.jpg","P_P_M_liberman.jpg","FALSE","pictures/stimuli/E","pictures/stimuli/P","M","M","5","5c0d83e9b24b5c00017950db","06/08/2022, 17:28:42",1.33840014093593,"27","M","left",1,1,0,0,FALSE,"E_C_M_mushonov.jpg P_P_M_liberman.jpg"
36648,"E_C_M_katorza.jpg","P_P_M_benet.jpg","FALSE","pictures/stimuli/E","pictures/stimuli/P","M","M","5","5c0d83e9b24b5c00017950db","06/08/2022, 17:28:42",1.33840014093593,"27","M","left",1,1,0,0,TRUE,"E_C_M_katorza.jpg P_P_M_benet.jpg"
9871,"E_C_M_katorza.jpg","E_C_M_shaharHasson.jpg","TRUE","pictures/stimuli/E","pictures/stimuli/E","M","M","4","5c0d83e9b24b5c00017950db","06/08/2022, 17:28:42",0.541233912792273,"27","M","left",1,1,0,0,FALSE,"E_C_M_katorza.jpg E_C_M_shaharHasson.jpg"
8442,"P_P_F_michaeliM.jpg","P_P_M_zamir.jpg","TRUE","pictures/stimuli/P","pictures/stimuli/P","F","M","2","5c0d83e9b24b5c00017950db","06/08/2022, 17:28:42",-1.05309854349504,"27","M","left",1,1,0,0,FALSE,"P_P_F_michaeliM.jpg P_P_M_zamir.jpg"
6362,"E_C_M_alfi.jpg","P_P_M_liberman.jpg","FALSE","pictures/stimuli/E","pictures/stimuli/P","M","M","4","5c0d83e9b24b5c00017950db","06/08/2022, 17:28:42",0.541233912792273,"27","M","left",1,1,0,0,FALSE,"E_C_M_alfi.jpg P_P_M_liberman.jpg"
3373,"E_C_M_katorza.jpg","P_P_F_michaeliM.jpg","FALSE","pictures/stimuli/E","pictures/stimuli/P","M","F","2","5c0d83e9b24b5c00017950db","06/08/2022, 17:28:42",-1.05309854349504,"27","M","left",1,1,0,0,FALSE,"E_C_M_katorza.jpg P_P_F_michaeliM.jpg"
6982,"E_C_M_shaharHasson.jpg","E_M_M_tavori.jpg","TRUE","pictures/stimuli/E","pictures/stimuli/E","M","M","3","5c0d83e9b24b5c00017950db","06/08/2022, 17:28:42",-0.255932315351385,"27","M","left",1,1,0,0,FALSE,"E_C_M_shaharHasson.jpg E_M_M_tavori.jpg"
3362,"E_M_F_rita.jpg","E_H_F_yanai.jpg","TRUE","pictures/stimuli/E","pictures/stimuli/E","F","F","3","5c0d83e9b24b5c00017950db","06/08/2022, 17:28:42",-0.255932315351385,"27","M","left",1,1,0,0,FALSE,"E_H_F_yanai.jpg E_M_F_rita.jpg"
6982,"E_C_M_mushonov.jpg","P_P_M_peretz.jpg","FALSE","pictures/stimuli/E","pictures/stimuli/P","M","M","3","5c0d83e9b24b5c00017950db","06/08/2022, 17:28:42",-0.255932315351385,"27","M","left",1,1,0,0,FALSE,"E_C_M_mushonov.jpg P_P_M_peretz.jpg"
5848,"E_C_F_harLev.jpg","E_C_M_shaharHasson.jpg","TRUE","pictures/stimuli/E","pictures/stimuli/E","F","M","3","5c0d83e9b24b5c00017950db","06/08/2022, 17:28:42",-0.255932315351385,"27","M","left",1,1,0,0,FALSE,"E_C_F_harLev.jpg E_C_M_shaharHasson.jpg"
6300,"E_M_M_tavori.jpg","P_N_M_lapid.jpg","FALSE","pictures/stimuli/E","pictures/stimuli/P","M","M","5","5c0d83e9b24b5c00017950db","06/08/2022, 17:28:42",1.33840014093593,"27","M","left",1,1,0,0,FALSE,"E_M_M_tavori.jpg P_N_M_lapid.jpg"
7961,"E_C_F_shaniCo.jpg","P_P_F_shaked.jpg","FALSE","pictures/stimuli/E","pictures/stimuli/P","F","F","5","5c0d83e9b24b5c00017950db","06/08/2022, 17:28:42",1.33840014093593,"27","M","left",1,1,0,0,FALSE,"E_C_F_shaniCo.jpg P_P_F_shaked.jpg"
30801,"E_M_M_tavori.jpg","P_P_M_peretz.jpg","FALSE","pictures/stimuli/E","pictures/stimuli/P","M","M","5","5c0d83e9b24b5c00017950db","06/08/2022, 17:28:42",1.33840014093593,"27","M","left",1,1,0,0,TRUE,"E_M_M_tavori.jpg P_P_M_peretz.jpg"
4031,"E_C_M_alfi.jpg","E_C_M_mushonov.jpg","TRUE","pictures/stimuli/E","pictures/stimuli/E","M","M","2","5c0d83e9b24b5c00017950db","06/08/2022, 17:28:42",-1.05309854349504,"27","M","left",1,1,0,0,FALSE,"E_C_M_alfi.jpg E_C_M_mushonov.jpg"
3431,"E_C_M_mushonov.jpg","P_P_M_benet.jpg","FALSE","pictures/stimuli/E","pictures/stimuli/P","M","M","5","5c0d83e9b24b5c00017950db","06/08/2022, 17:28:42",1.33840014093593,"27","M","left",1,1,0,0,FALSE,"E_C_M_mushonov.jpg P_P_M_benet.jpg"
11041,"E_C_M_alfi.jpg","P_P_M_smootrich.jpg","FALSE","pictures/stimuli/E","pictures/stimuli/P","M","M","5","5c0d83e9b24b5c00017950db","06/08/2022, 17:28:42",1.33840014093593,"27","M","left",1,1,0,0,FALSE,"E_C_M_alfi.jpg P_P_M_smootrich.jpg"
5941,"P_P_M_peretz.jpg","P_P_F_shaked.jpg","TRUE","pictures/stimuli/P","pictures/stimuli/P","M","F","5","5c0d83e9b24b5c00017950db","06/08/2022, 17:28:42",1.33840014093593,"27","M","left",1,1,0,0,FALSE,"P_P_F_shaked.jpg P_P_M_peretz.jpg"
3712,"E_C_M_katorza.jpg","P_P_M_smootrich.jpg","FALSE","pictures/stimuli/E","pictures/stimuli/P","M","M","5","5c0d83e9b24b5c00017950db","06/08/2022, 17:28:42",1.33840014093593,"27","M","left",1,1,0,0,FALSE,"E_C_M_katorza.jpg P_P_M_smootrich.jpg"
2813,"E_M_F_rita.jpg","P_P_F_michaeliM.jpg","FALSE","pictures/stimuli/E","pictures/stimuli/P","F","F","3","5c0d83e9b24b5c00017950db","06/08/2022, 17:28:42",-0.255932315351385,"27","M","left",1,1,0,0,FALSE,"E_M_F_rita.jpg P_P_F_michaeliM.jpg"
4582,"E_C_M_alfi.jpg","E_M_M_tavori.jpg","TRUE","pictures/stimuli/E","pictures/stimuli/E","M","M","4","5c0d83e9b24b5c00017950db","06/08/2022, 17:28:42",0.541233912792273,"27","M","left",1,1,0,0,FALSE,"E_C_M_alfi.jpg E_M_M_tavori.jpg"
7812,"E_M_F_rita.jpg","P_P_M_smootrich.jpg","FALSE","pictures/stimuli/E","pictures/stimuli/P","F","M","4","5c0d83e9b24b5c00017950db","06/08/2022, 17:28:42",0.541233912792273,"27","M","left",1,1,0,0,FALSE,"E_M_F_rita.jpg P_P_M_smootrich.jpg"
5461,"E_M_M_Ivri.jpg","P_P_M_smootrich.jpg","FALSE","pictures/stimuli/E","pictures/stimuli/P","M","M","5","5c0d83e9b24b5c00017950db","06/08/2022, 17:28:42",1.33840014093593,"27","M","left",1,1,0,0,FALSE,"E_M_M_Ivri.jpg P_P_M_smootrich.jpg"
4721,"E_C_M_alfi.jpg","P_P_F_michaeliM.jpg","FALSE","pictures/stimuli/E","pictures/stimuli/P","M","F","2","5c0d83e9b24b5c00017950db","06/08/2022, 17:28:42",-1.05309854349504,"27","M","left",1,1,0,0,FALSE,"E_C_M_alfi.jpg P_P_F_michaeliM.jpg"
5421,"E_C_M_shaharHasson.jpg","P_N_M_lapid.jpg","FALSE","pictures/stimuli/E","pictures/stimuli/P","M","M","4","5c0d83e9b24b5c00017950db","06/08/2022, 17:28:42",0.541233912792273,"27","M","left",1,1,0,0,FALSE,"E_C_M_shaharHasson.jpg P_N_M_lapid.jpg"
4231,"E_C_M_shaharHasson.jpg","P_P_M_peretz.jpg","FALSE","pictures/stimuli/E","pictures/stimuli/P","M","M","4","5c0d83e9b24b5c00017950db","06/08/2022, 17:28:42",0.541233912792273,"27","M","left",1,1,0,0,FALSE,"E_C_M_shaharHasson.jpg P_P_M_peretz.jpg"
4453,"E_C_M_mushonov.jpg","P_N_F_yehimovitz.jpg","FALSE","pictures/stimuli/E","pictures/stimuli/P","M","F","2","5c0d83e9b24b5c00017950db","06/08/2022, 17:28:42",-1.05309854349504,"27","M","left",1,1,0,0,FALSE,"E_C_M_mushonov.jpg P_N_F_yehimovitz.jpg"
11726,"E_C_M_alfi.jpg","E_C_M_shaharHasson.jpg","TRUE","pictures/stimuli/E","pictures/stimuli/E","M","M","4","5c0d83e9b24b5c00017950db","06/08/2022, 17:28:42",0.541233912792273,"27","M","left",1,1,0,0,FALSE,"E_C_M_alfi.jpg E_C_M_shaharHasson.jpg"
4391,"E_C_M_mushonov.jpg","E_C_F_ornaBanai.jpg","TRUE","pictures/stimuli/E","pictures/stimuli/E","M","F","3","5c0d83e9b24b5c00017950db","06/08/2022, 17:28:42",-0.255932315351385,"27","M","left",1,1,0,0,FALSE,"E_C_F_ornaBanai.jpg E_C_M_mushonov.jpg"
3471,"P_P_M_peretz.jpg","P_N_F_yehimovitz.jpg","TRUE","pictures/stimuli/P","pictures/stimuli/P","M","F","2","5c0d83e9b24b5c00017950db","06/08/2022, 17:28:42",-1.05309854349504,"27","M","left",1,1,0,0,FALSE,"P_N_F_yehimovitz.jpg P_P_M_peretz.jpg"
4742,"P_P_M_liberman.jpg","P_P_M_zamir.jpg","TRUE","pictures/stimuli/P","pictures/stimuli/P","M","M","5","5c0d83e9b24b5c00017950db","06/08/2022, 17:28:42",1.33840014093593,"27","M","left",1,1,0,0,FALSE,"P_P_M_liberman.jpg P_P_M_zamir.jpg"
4382,"E_C_M_katorza.jpg","P_P_F_shaked.jpg","FALSE","pictures/stimuli/E","pictures/stimuli/P","M","F","5","5c0d83e9b24b5c00017950db","06/08/2022, 17:28:42",1.33840014093593,"27","M","left",1,1,0,0,FALSE,"E_C_M_katorza.jpg P_P_F_shaked.jpg"
3221,"E_M_M_Ivri.jpg","P_P_F_michaeliM.jpg","FALSE","pictures/stimuli/E","pictures/stimuli/P","M","F","2","5c0d83e9b24b5c00017950db","06/08/2022, 17:28:42",-1.05309854349504,"27","M","left",1,1,0,0,FALSE,"E_M_M_Ivri.jpg P_P_F_michaeliM.jpg"
5687,"P_N_M_lapid.jpg","P_P_M_liberman.jpg","TRUE","pictures/stimuli/P","pictures/stimuli/P","M","M","5","5c0d83e9b24b5c00017950db","06/08/2022, 17:28:42",1.33840014093593,"27","M","left",1,1,0,0,FALSE,"P_N_M_lapid.jpg P_P_M_liberman.jpg"
4239,"E_C_M_shaharHasson.jpg","E_H_F_yanai.jpg","TRUE","pictures/stimuli/E","pictures/stimuli/E","M","F","4","5c0d83e9b24b5c00017950db","06/08/2022, 17:28:42",0.541233912792273,"27","M","left",1,1,0,0,FALSE,"E_C_M_shaharHasson.jpg E_H_F_yanai.jpg"
32642,"P_P_M_liberman.jpg","P_P_M_smootrich.jpg","TRUE","pictures/stimuli/P","pictures/stimuli/P","M","M","6","5c0d83e9b24b5c00017950db","06/08/2022, 17:28:42",2.13556636907959,"27","M","left",1,1,0,0,TRUE,"P_P_M_liberman.jpg P_P_M_smootrich.jpg"
40171,"E_H_F_yanai.jpg","P_P_M_zamir.jpg","FALSE","pictures/stimuli/E","pictures/stimuli/P","F","M","3","5c0d83e9b24b5c00017950db","06/08/2022, 17:28:42",-0.255932315351385,"27","M","left",1,1,0,0,TRUE,"E_H_F_yanai.jpg P_P_M_zamir.jpg"
20852,"P_N_F_yehimovitz.jpg","P_P_M_zamir.jpg","TRUE","pictures/stimuli/P","pictures/stimuli/P","F","M","2","5c0d83e9b24b5c00017950db","06/08/2022, 17:28:42",-1.05309854349504,"27","M","left",1,1,0,0,FALSE,"P_N_F_yehimovitz.jpg P_P_M_zamir.jpg"
14750,"E_M_F_rita.jpg","E_C_F_shaniCo.jpg","TRUE","pictures/stimuli/E","pictures/stimuli/E","F","F","3","5c0d83e9b24b5c00017950db","06/08/2022, 17:28:42",-0.255932315351385,"27","M","left",1,1,0,0,FALSE,"E_C_F_shaniCo.jpg E_M_F_rita.jpg"
6442,"P_P_M_peretz.jpg","P_P_M_zamir.jpg","TRUE","pictures/stimuli/P","pictures/stimuli/P","M","M","2","5c0d83e9b24b5c00017950db","06/08/2022, 17:28:42",-1.05309854349504,"27","M","left",1,1,0,0,FALSE,"P_P_M_peretz.jpg P_P_M_zamir.jpg"
4462,"P_P_F_shaked.jpg","P_P_M_zamir.jpg","TRUE","pictures/stimuli/P","pictures/stimuli/P","F","M","5","5c0d83e9b24b5c00017950db","06/08/2022, 17:28:42",1.33840014093593,"27","M","left",1,1,0,0,FALSE,"P_P_F_shaked.jpg P_P_M_zamir.jpg"
7672,"E_H_F_yanai.jpg","P_P_M_smootrich.jpg","FALSE","pictures/stimuli/E","pictures/stimuli/P","F","M","5","5c0d83e9b24b5c00017950db","06/08/2022, 17:28:42",1.33840014093593,"27","M","left",1,1,0,0,FALSE,"E_H_F_yanai.jpg P_P_M_smootrich.jpg"
11351,"E_C_M_alfi.jpg","E_C_M_katorza.jpg","TRUE","pictures/stimuli/E","pictures/stimuli/E","M","M","2","5c0d83e9b24b5c00017950db","06/08/2022, 17:28:42",-1.05309854349504,"27","M","left",1,1,0,0,FALSE,"E_C_M_alfi.jpg E_C_M_katorza.jpg"
5472,"E_H_F_yanai.jpg","P_N_M_lapid.jpg","FALSE","pictures/stimuli/E","pictures/stimuli/P","F","M","3","5c0d83e9b24b5c00017950db","06/08/2022, 17:28:42",-0.255932315351385,"27","M","left",1,1,0,0,FALSE,"E_H_F_yanai.jpg P_N_M_lapid.jpg"
3641,"E_C_M_shaharHasson.jpg","P_P_M_zamir.jpg","FALSE","pictures/stimuli/E","pictures/stimuli/P","M","M","4","5c0d83e9b24b5c00017950db","06/08/2022, 17:28:42",0.541233912792273,"27","M","left",1,1,0,0,FALSE,"E_C_M_shaharHasson.jpg P_P_M_zamir.jpg"
21832,"E_C_M_alfi.jpg","E_M_M_Ivri.jpg","TRUE","pictures/stimuli/E","pictures/stimuli/E","M","M","2","5c0d83e9b24b5c00017950db","06/08/2022, 17:28:42",-1.05309854349504,"27","M","left",1,1,0,0,FALSE,"E_C_M_alfi.jpg E_M_M_Ivri.jpg"
7192,"P_P_F_michaeliM.jpg","P_N_F_yehimovitz.jpg","TRUE","pictures/stimuli/P","pictures/stimuli/P","F","F","2","5c0d83e9b24b5c00017950db","06/08/2022, 17:28:42",-1.05309854349504,"27","M","left",1,1,0,0,FALSE,"P_N_F_yehimovitz.jpg P_P_F_michaeliM.jpg"
4032,"E_C_M_mushonov.jpg","P_P_M_zamir.jpg","FALSE","pictures/stimuli/E","pictures/stimuli/P","M","M","2","5c0d83e9b24b5c00017950db","06/08/2022, 17:28:42",-1.05309854349504,"27","M","left",1,1,0,0,FALSE,"E_C_M_mushonov.jpg P_P_M_zamir.jpg"
3282,"E_C_M_alfi.jpg","P_P_M_benet.jpg","FALSE","pictures/stimuli/E","pictures/stimuli/P","M","M","5","5c0d83e9b24b5c00017950db","06/08/2022, 17:28:42",1.33840014093593,"27","M","left",1,1,0,0,FALSE,"E_C_M_alfi.jpg P_P_M_benet.jpg"
4451,"E_C_F_ornaBanai.jpg","P_P_F_michaeliM.jpg","FALSE","pictures/stimuli/E","pictures/stimuli/P","F","F","2","5c0d83e9b24b5c00017950db","06/08/2022, 17:28:42",-1.05309854349504,"27","M","left",1,1,0,0,FALSE,"E_C_F_ornaBanai.jpg P_P_F_michaeliM.jpg"
5452,"P_N_M_lapid.jpg","P_P_F_shaked.jpg","TRUE","pictures/stimuli/P","pictures/stimuli/P","M","F","5","5c0d83e9b24b5c00017950db","06/08/2022, 17:28:42",1.33840014093593,"27","M","left",1,1,0,0,FALSE,"P_N_M_lapid.jpg P_P_F_shaked.jpg"
7991,"E_M_M_Ivri.jpg","P_P_M_benet.jpg","FALSE","pictures/stimuli/E","pictures/stimuli/P","M","M","5","5c0d83e9b24b5c00017950db","06/08/2022, 17:28:42",1.33840014093593,"27","M","left",1,1,0,0,FALSE,"E_M_M_Ivri.jpg P_P_M_benet.jpg"
13891,"P_N_M_lapid.jpg","P_P_M_smootrich.jpg","TRUE","pictures/stimuli/P","pictures/stimuli/P","M","M","5","5c0d83e9b24b5c00017950db","06/08/2022, 17:28:42",1.33840014093593,"27","M","left",1,1,0,0,FALSE,"P_N_M_lapid.jpg P_P_M_smootrich.jpg"
4651,"E_M_M_Ivri.jpg","P_P_M_peretz.jpg","FALSE","pictures/stimuli/E","pictures/stimuli/P","M","M","2","5c0d83e9b24b5c00017950db","06/08/2022, 17:28:42",-1.05309854349504,"27","M","left",1,1,0,0,FALSE,"E_M_M_Ivri.jpg P_P_M_peretz.jpg"
11464,"P_P_M_benet.jpg","P_P_M_smootrich.jpg","TRUE","pictures/stimuli/P","pictures/stimuli/P","M","M","2","5c0d83e9b24b5c00017950db","06/08/2022, 17:28:42",-1.05309854349504,"27","M","left",1,1,0,0,FALSE,"P_P_M_benet.jpg P_P_M_smootrich.jpg"
5491,"E_C_F_harLev.jpg","P_N_M_lapid.jpg","FALSE","pictures/stimuli/E","pictures/stimuli/P","F","M","2","5c0d83e9b24b5c00017950db","06/08/2022, 17:28:42",-1.05309854349504,"27","M","left",1,1,0,0,FALSE,"E_C_F_harLev.jpg P_N_M_lapid.jpg"
2691,"E_C_M_katorza.jpg","P_P_M_zamir.jpg","FALSE","pictures/stimuli/E","pictures/stimuli/P","M","M","2","5c0d83e9b24b5c00017950db","06/08/2022, 17:28:42",-1.05309854349504,"27","M","left",1,1,0,0,FALSE,"E_C_M_katorza.jpg P_P_M_zamir.jpg"
4703,"E_C_F_shaniCo.jpg","P_P_M_liberman.jpg","FALSE","pictures/stimuli/E","pictures/stimuli/P","F","M","6","5d02695334bace00012a468c","06/08/2022, 13:26:31",1.31412048246377,"24","M","right",1,1,0,0,TRUE,"E_C_F_shaniCo.jpg P_P_M_liberman.jpg"
2846,"E_C_M_alfi.jpg","P_P_F_shaked.jpg","FALSE","pictures/stimuli/E","pictures/stimuli/P","M","F","6","5d02695334bace00012a468c","06/08/2022, 13:26:31",1.31412048246377,"24","M","right",1,1,0,0,TRUE,"E_C_M_alfi.jpg P_P_F_shaked.jpg"
5479,"E_C_M_mushonov.jpg","P_N_F_yehimovitz.jpg","FALSE","pictures/stimuli/E","pictures/stimuli/P","M","F","3","5d02695334bace00012a468c","06/08/2022, 13:26:31",-0.503958825799214,"24","M","right",0,0,0,0,TRUE,"E_C_M_mushonov.jpg P_N_F_yehimovitz.jpg"
3095,"E_M_F_rita.jpg","E_C_F_shaniCo.jpg","TRUE","pictures/stimuli/E","pictures/stimuli/E","F","F","4","5d02695334bace00012a468c","06/08/2022, 13:26:31",0.102067610288448,"24","M","right",0,1,0,0,TRUE,"E_C_F_shaniCo.jpg E_M_F_rita.jpg"
3078,"E_M_M_Ivri.jpg","P_N_F_yehimovitz.jpg","FALSE","pictures/stimuli/E","pictures/stimuli/P","M","F","5","5d02695334bace00012a468c","06/08/2022, 13:26:31",0.708094046376111,"24","M","right",0,0,0,0,TRUE,"E_M_M_Ivri.jpg P_N_F_yehimovitz.jpg"
4671,"E_M_F_rita.jpg","P_P_M_liberman.jpg","FALSE","pictures/stimuli/E","pictures/stimuli/P","F","M","6","5d02695334bace00012a468c","06/08/2022, 13:26:31",1.31412048246377,"24","M","right",0,1,0,0,TRUE,"E_M_F_rita.jpg P_P_M_liberman.jpg"
2671,"E_M_M_Ivri.jpg","E_C_F_ornaBanai.jpg","TRUE","pictures/stimuli/E","pictures/stimuli/E","M","F","5","5d02695334bace00012a468c","06/08/2022, 13:26:31",0.708094046376111,"24","M","right",0,1,0,0,TRUE,"E_C_F_ornaBanai.jpg E_M_M_Ivri.jpg"
2614,"E_C_M_shaharHasson.jpg","P_P_M_peretz.jpg","FALSE","pictures/stimuli/E","pictures/stimuli/P","M","M","6","5d02695334bace00012a468c","06/08/2022, 13:26:31",1.31412048246377,"24","M","right",1,1,0,0,TRUE,"E_C_M_shaharHasson.jpg P_P_M_peretz.jpg"
4911,"E_H_F_yanai.jpg","P_P_F_shaked.jpg","FALSE","pictures/stimuli/E","pictures/stimuli/P","F","F","6","5d02695334bace00012a468c","06/08/2022, 13:26:31",1.31412048246377,"24","M","right",0,1,0,0,TRUE,"E_H_F_yanai.jpg P_P_F_shaked.jpg"
3510,"E_M_M_tavori.jpg","P_P_M_zamir.jpg","FALSE","pictures/stimuli/E","pictures/stimuli/P","M","M","5","5d02695334bace00012a468c","06/08/2022, 13:26:31",0.708094046376111,"24","M","right",1,0,0,0,TRUE,"E_M_M_tavori.jpg P_P_M_zamir.jpg"
2223,"E_C_M_katorza.jpg","P_P_M_liberman.jpg","FALSE","pictures/stimuli/E","pictures/stimuli/P","M","M","6","5d02695334bace00012a468c","06/08/2022, 13:26:31",1.31412048246377,"24","M","right",1,1,0,0,TRUE,"E_C_M_katorza.jpg P_P_M_liberman.jpg"
2919,"P_P_M_liberman.jpg","P_P_M_zamir.jpg","TRUE","pictures/stimuli/P","pictures/stimuli/P","M","M","5","5d02695334bace00012a468c","06/08/2022, 13:26:31",0.708094046376111,"24","M","right",1,0,0,0,TRUE,"P_P_M_liberman.jpg P_P_M_zamir.jpg"
2463,"E_C_M_alfi.jpg","E_M_F_rita.jpg","TRUE","pictures/stimuli/E","pictures/stimuli/E","M","F","5","5d02695334bace00012a468c","06/08/2022, 13:26:31",0.708094046376111,"24","M","right",1,0,0,0,TRUE,"E_C_M_alfi.jpg E_M_F_rita.jpg"
5615,"E_C_M_mushonov.jpg","P_P_F_michaeliM.jpg","FALSE","pictures/stimuli/E","pictures/stimuli/P","M","F","4","5d02695334bace00012a468c","06/08/2022, 13:26:31",0.102067610288448,"24","M","right",0,1,0,0,TRUE,"E_C_M_mushonov.jpg P_P_F_michaeliM.jpg"
3623,"E_C_F_harLev.jpg","E_C_M_shaharHasson.jpg","TRUE","pictures/stimuli/E","pictures/stimuli/E","F","M","2","5d02695334bace00012a468c","06/08/2022, 13:26:31",-1.10998526188688,"24","M","right",1,1,0,0,TRUE,"E_C_F_harLev.jpg E_C_M_shaharHasson.jpg"
2327,"E_C_F_shaniCo.jpg","E_M_M_tavori.jpg","TRUE","pictures/stimuli/E","pictures/stimuli/E","F","M","4","5d02695334bace00012a468c","06/08/2022, 13:26:31",0.102067610288448,"24","M","right",1,1,0,0,TRUE,"E_C_F_shaniCo.jpg E_M_M_tavori.jpg"
3799,"E_C_F_harLev.jpg","P_N_M_lapid.jpg","FALSE","pictures/stimuli/E","pictures/stimuli/P","F","M","4","5d02695334bace00012a468c","06/08/2022, 13:26:31",0.102067610288448,"24","M","right",1,1,0,0,TRUE,"E_C_F_harLev.jpg P_N_M_lapid.jpg"
6543,"E_C_F_shaniCo.jpg","P_P_M_smootrich.jpg","FALSE","pictures/stimuli/E","pictures/stimuli/P","F","M","6","5d02695334bace00012a468c","06/08/2022, 13:26:31",1.31412048246377,"24","M","right",1,1,0,0,TRUE,"E_C_F_shaniCo.jpg P_P_M_smootrich.jpg"
2967,"P_P_M_peretz.jpg","P_P_F_shaked.jpg","TRUE","pictures/stimuli/P","pictures/stimuli/P","M","F","2","5d02695334bace00012a468c","06/08/2022, 13:26:31",-1.10998526188688,"24","M","right",1,1,0,0,TRUE,"P_P_F_shaked.jpg P_P_M_peretz.jpg"
3375,"E_C_M_mushonov.jpg","P_P_M_benet.jpg","FALSE","pictures/stimuli/E","pictures/stimuli/P","M","M","3","5d02695334bace00012a468c","06/08/2022, 13:26:31",-0.503958825799214,"24","M","right",0,1,0,0,TRUE,"E_C_M_mushonov.jpg P_P_M_benet.jpg"
2294,"P_P_M_smootrich.jpg","P_N_F_yehimovitz.jpg","TRUE","pictures/stimuli/P","pictures/stimuli/P","M","F","3","5d02695334bace00012a468c","06/08/2022, 13:26:31",-0.503958825799214,"24","M","right",1,0,0,0,TRUE,"P_N_F_yehimovitz.jpg P_P_M_smootrich.jpg"
2790,"E_C_F_harLev.jpg","E_M_M_Ivri.jpg","TRUE","pictures/stimuli/E","pictures/stimuli/E","F","M","3","5d02695334bace00012a468c","06/08/2022, 13:26:31",-0.503958825799214,"24","M","right",1,0,0,0,TRUE,"E_C_F_harLev.jpg E_M_M_Ivri.jpg"
4607,"E_C_M_katorza.jpg","E_M_M_tavori.jpg","TRUE","pictures/stimuli/E","pictures/stimuli/E","M","M","4","5d02695334bace00012a468c","06/08/2022, 13:26:31",0.102067610288448,"24","M","right",1,1,0,0,TRUE,"E_C_M_katorza.jpg E_M_M_tavori.jpg"
2791,"E_C_M_katorza.jpg","P_P_F_michaeliM.jpg","FALSE","pictures/stimuli/E","pictures/stimuli/P","M","F","1","5d02695334bace00012a468c","06/08/2022, 13:26:31",-1.71601169797454,"24","M","right",1,1,0,0,TRUE,"E_C_M_katorza.jpg P_P_F_michaeliM.jpg"
5519,"E_C_M_shaharHasson.jpg","E_M_M_tavori.jpg","TRUE","pictures/stimuli/E","pictures/stimuli/E","M","M","5","5d02695334bace00012a468c","06/08/2022, 13:26:31",0.708094046376111,"24","M","right",1,1,0,0,TRUE,"E_C_M_shaharHasson.jpg E_M_M_tavori.jpg"
4511,"E_C_M_shaharHasson.jpg","P_P_M_smootrich.jpg","FALSE","pictures/stimuli/E","pictures/stimuli/P","M","M","1","5d02695334bace00012a468c","06/08/2022, 13:26:31",-1.71601169797454,"24","M","right",1,1,0,0,TRUE,"E_C_M_shaharHasson.jpg P_P_M_smootrich.jpg"
3655,"E_C_F_ornaBanai.jpg","P_P_M_zamir.jpg","FALSE","pictures/stimuli/E","pictures/stimuli/P","F","M","4","5d02695334bace00012a468c","06/08/2022, 13:26:31",0.102067610288448,"24","M","right",1,0,0,0,TRUE,"E_C_F_ornaBanai.jpg P_P_M_zamir.jpg"
2734,"E_C_F_shaniCo.jpg","P_P_M_peretz.jpg","FALSE","pictures/stimuli/E","pictures/stimuli/P","F","M","6","5d02695334bace00012a468c","06/08/2022, 13:26:31",1.31412048246377,"24","M","right",1,1,0,0,TRUE,"E_C_F_shaniCo.jpg P_P_M_peretz.jpg"
2727,"E_C_F_harLev.jpg","E_M_M_tavori.jpg","TRUE","pictures/stimuli/E","pictures/stimuli/E","F","M","5","5d02695334bace00012a468c","06/08/2022, 13:26:31",0.708094046376111,"24","M","right",1,1,0,0,TRUE,"E_C_F_harLev.jpg E_M_M_tavori.jpg"
2183,"E_C_M_alfi.jpg","E_C_M_mushonov.jpg","TRUE","pictures/stimuli/E","pictures/stimuli/E","M","M","5","5d02695334bace00012a468c","06/08/2022, 13:26:31",0.708094046376111,"24","M","right",1,0,0,0,TRUE,"E_C_M_alfi.jpg E_C_M_mushonov.jpg"
3521,"E_C_M_alfi.jpg","P_P_F_michaeliM.jpg","FALSE","pictures/stimuli/E","pictures/stimuli/P","M","F","6","5d02695334bace00012a468c","06/08/2022, 13:26:31",1.31412048246377,"24","M","right",1,1,0,0,TRUE,"E_C_M_alfi.jpg P_P_F_michaeliM.jpg"
3343,"E_C_F_harLev.jpg","P_P_M_zamir.jpg","FALSE","pictures/stimuli/E","pictures/stimuli/P","F","M","3","5d02695334bace00012a468c","06/08/2022, 13:26:31",-0.503958825799214,"24","M","right",1,0,0,0,TRUE,"E_C_F_harLev.jpg P_P_M_zamir.jpg"
6462,"P_P_F_michaeliM.jpg","P_P_M_zamir.jpg","TRUE","pictures/stimuli/P","pictures/stimuli/P","F","M","4","5d02695334bace00012a468c","06/08/2022, 13:26:31",0.102067610288448,"24","M","right",1,0,0,0,TRUE,"P_P_F_michaeliM.jpg P_P_M_zamir.jpg"
1807,"E_C_M_alfi.jpg","P_N_M_lapid.jpg","FALSE","pictures/stimuli/E","pictures/stimuli/P","M","M","6","5d02695334bace00012a468c","06/08/2022, 13:26:31",1.31412048246377,"24","M","right",1,1,0,0,TRUE,"E_C_M_alfi.jpg P_N_M_lapid.jpg"
2046,"E_M_M_Ivri.jpg","E_M_M_tavori.jpg","TRUE","pictures/stimuli/E","pictures/stimuli/E","M","M","4","5d02695334bace00012a468c","06/08/2022, 13:26:31",0.102067610288448,"24","M","right",0,1,0,0,TRUE,"E_M_M_Ivri.jpg E_M_M_tavori.jpg"
2478,"E_C_M_alfi.jpg","P_N_F_yehimovitz.jpg","FALSE","pictures/stimuli/E","pictures/stimuli/P","M","F","5","5d02695334bace00012a468c","06/08/2022, 13:26:31",0.708094046376111,"24","M","right",1,0,0,0,TRUE,"E_C_M_alfi.jpg P_N_F_yehimovitz.jpg"
2327,"E_M_M_Ivri.jpg","E_M_F_rita.jpg","TRUE","pictures/stimuli/E","pictures/stimuli/E","M","F","4","5d02695334bace00012a468c","06/08/2022, 13:26:31",0.102067610288448,"24","M","right",0,0,0,0,TRUE,"E_M_F_rita.jpg E_M_M_Ivri.jpg"
2431,"P_P_M_benet.jpg","P_P_M_liberman.jpg","TRUE","pictures/stimuli/P","pictures/stimuli/P","M","M","1","5d02695334bace00012a468c","06/08/2022, 13:26:31",-1.71601169797454,"24","M","right",1,1,0,0,TRUE,"P_P_M_benet.jpg P_P_M_liberman.jpg"
2159,"P_P_M_liberman.jpg","P_N_F_yehimovitz.jpg","TRUE","pictures/stimuli/P","pictures/stimuli/P","M","F","2","5d02695334bace00012a468c","06/08/2022, 13:26:31",-1.10998526188688,"24","M","right",1,0,0,0,TRUE,"P_N_F_yehimovitz.jpg P_P_M_liberman.jpg"
4230,"E_C_F_harLev.jpg","E_C_F_ornaBanai.jpg","TRUE","pictures/stimuli/E","pictures/stimuli/E","F","F","2","5d02695334bace00012a468c","06/08/2022, 13:26:31",-1.10998526188688,"24","M","right",1,1,0,0,TRUE,"E_C_F_harLev.jpg E_C_F_ornaBanai.jpg"
2653,"E_C_F_ornaBanai.jpg","P_P_M_benet.jpg","FALSE","pictures/stimuli/E","pictures/stimuli/P","F","M","4","5d02695334bace00012a468c","06/08/2022, 13:26:31",0.102067610288448,"24","M","right",1,1,0,0,TRUE,"E_C_F_ornaBanai.jpg P_P_M_benet.jpg"
4334,"E_H_F_yanai.jpg","P_P_M_zamir.jpg","FALSE","pictures/stimuli/E","pictures/stimuli/P","F","M","3","5d02695334bace00012a468c","06/08/2022, 13:26:31",-0.503958825799214,"24","M","right",0,0,0,0,TRUE,"E_H_F_yanai.jpg P_P_M_zamir.jpg"
3735,"E_C_M_katorza.jpg","P_P_M_benet.jpg","FALSE","pictures/stimuli/E","pictures/stimuli/P","M","M","6","5d02695334bace00012a468c","06/08/2022, 13:26:31",1.31412048246377,"24","M","right",1,1,0,0,TRUE,"E_C_M_katorza.jpg P_P_M_benet.jpg"
2598,"P_P_M_smootrich.jpg","P_P_M_zamir.jpg","TRUE","pictures/stimuli/P","pictures/stimuli/P","M","M","4","5d02695334bace00012a468c","06/08/2022, 13:26:31",0.102067610288448,"24","M","right",1,0,0,0,TRUE,"P_P_M_smootrich.jpg P_P_M_zamir.jpg"
2159,"E_C_M_alfi.jpg","P_P_M_liberman.jpg","FALSE","pictures/stimuli/E","pictures/stimuli/P","M","M","6","5d02695334bace00012a468c","06/08/2022, 13:26:31",1.31412048246377,"24","M","right",1,1,0,0,TRUE,"E_C_M_alfi.jpg P_P_M_liberman.jpg"
5318,"E_M_F_rita.jpg","P_P_M_zamir.jpg","FALSE","pictures/stimuli/E","pictures/stimuli/P","F","M","4","5d02695334bace00012a468c","06/08/2022, 13:26:31",0.102067610288448,"24","M","right",0,0,0,0,TRUE,"E_M_F_rita.jpg P_P_M_zamir.jpg"
3190,"E_H_F_yanai.jpg","P_N_F_yehimovitz.jpg","FALSE","pictures/stimuli/E","pictures/stimuli/P","F","F","4","5d02695334bace00012a468c","06/08/2022, 13:26:31",0.102067610288448,"24","M","right",0,0,0,0,TRUE,"E_H_F_yanai.jpg P_N_F_yehimovitz.jpg"
1630,"E_M_F_rita.jpg","P_N_M_lapid.jpg","FALSE","pictures/stimuli/E","pictures/stimuli/P","F","M","4","5d02695334bace00012a468c","06/08/2022, 13:26:31",0.102067610288448,"24","M","right",0,1,0,0,TRUE,"E_M_F_rita.jpg P_N_M_lapid.jpg"
6360,"E_C_M_shaharHasson.jpg","P_P_M_benet.jpg","FALSE","pictures/stimuli/E","pictures/stimuli/P","M","M","6","5d02695334bace00012a468c","06/08/2022, 13:26:31",1.31412048246377,"24","M","right",1,1,0,0,TRUE,"E_C_M_shaharHasson.jpg P_P_M_benet.jpg"
4176,"P_P_M_liberman.jpg","P_P_F_shaked.jpg","TRUE","pictures/stimuli/P","pictures/stimuli/P","M","F","1","5d02695334bace00012a468c","06/08/2022, 13:26:31",-1.71601169797454,"24","M","right",1,1,0,0,TRUE,"P_P_F_shaked.jpg P_P_M_liberman.jpg"
4742,"E_C_M_shaharHasson.jpg","E_C_F_ornaBanai.jpg","TRUE","pictures/stimuli/E","pictures/stimuli/E","M","F","1","5d02695334bace00012a468c","06/08/2022, 13:26:31",-1.71601169797454,"24","M","right",1,1,0,0,TRUE,"E_C_F_ornaBanai.jpg E_C_M_shaharHasson.jpg"
2039,"E_C_F_shaniCo.jpg","E_H_F_yanai.jpg","TRUE","pictures/stimuli/E","pictures/stimuli/E","F","F","4","5d02695334bace00012a468c","06/08/2022, 13:26:31",0.102067610288448,"24","M","right",1,0,0,0,TRUE,"E_C_F_shaniCo.jpg E_H_F_yanai.jpg"
1928,"E_C_F_harLev.jpg","P_P_F_shaked.jpg","FALSE","pictures/stimuli/E","pictures/stimuli/P","F","F","6","5d02695334bace00012a468c","06/08/2022, 13:26:31",1.31412048246377,"24","M","right",1,1,0,0,TRUE,"E_C_F_harLev.jpg P_P_F_shaked.jpg"
2157,"E_C_M_shaharHasson.jpg","E_H_F_yanai.jpg","TRUE","pictures/stimuli/E","pictures/stimuli/E","M","F","4","5d02695334bace00012a468c","06/08/2022, 13:26:31",0.102067610288448,"24","M","right",1,0,0,0,TRUE,"E_C_M_shaharHasson.jpg E_H_F_yanai.jpg"
3823,"P_N_M_lapid.jpg","P_P_F_shaked.jpg","TRUE","pictures/stimuli/P","pictures/stimuli/P","M","F","1","5d02695334bace00012a468c","06/08/2022, 13:26:31",-1.71601169797454,"24","M","right",1,1,0,0,TRUE,"P_N_M_lapid.jpg P_P_F_shaked.jpg"
5669,"E_C_F_shaniCo.jpg","P_P_F_shaked.jpg","FALSE","pictures/stimuli/E","pictures/stimuli/P","F","F","6","5d02695334bace00012a468c","06/08/2022, 13:26:31",1.31412048246377,"24","M","right",1,1,0,0,TRUE,"E_C_F_shaniCo.jpg P_P_F_shaked.jpg"
7085,"P_N_M_lapid.jpg","P_P_M_smootrich.jpg","TRUE","pictures/stimuli/P","pictures/stimuli/P","M","M","1","5d02695334bace00012a468c","06/08/2022, 13:26:31",-1.71601169797454,"24","M","right",1,1,0,0,TRUE,"P_N_M_lapid.jpg P_P_M_smootrich.jpg"
2111,"P_P_M_benet.jpg","P_N_F_yehimovitz.jpg","TRUE","pictures/stimuli/P","pictures/stimuli/P","M","F","4","5d02695334bace00012a468c","06/08/2022, 13:26:31",0.102067610288448,"24","M","right",1,0,0,0,TRUE,"P_N_F_yehimovitz.jpg P_P_M_benet.jpg"
1662,"P_P_M_benet.jpg","P_N_M_lapid.jpg","TRUE","pictures/stimuli/P","pictures/stimuli/P","M","M","1","5d02695334bace00012a468c","06/08/2022, 13:26:31",-1.71601169797454,"24","M","right",1,1,0,0,TRUE,"P_N_M_lapid.jpg P_P_M_benet.jpg"
4535,"E_C_M_katorza.jpg","P_P_M_smootrich.jpg","FALSE","pictures/stimuli/E","pictures/stimuli/P","M","M","5","5d02695334bace00012a468c","06/08/2022, 13:26:31",0.708094046376111,"24","M","right",1,1,0,0,TRUE,"E_C_M_katorza.jpg P_P_M_smootrich.jpg"
2158,"E_C_M_alfi.jpg","P_P_M_smootrich.jpg","FALSE","pictures/stimuli/E","pictures/stimuli/P","M","M","5","5d02695334bace00012a468c","06/08/2022, 13:26:31",0.708094046376111,"24","M","right",1,1,0,0,TRUE,"E_C_M_alfi.jpg P_P_M_smootrich.jpg"
4287,"E_C_M_alfi.jpg","E_C_M_shaharHasson.jpg","TRUE","pictures/stimuli/E","pictures/stimuli/E","M","M","1","5d02695334bace00012a468c","06/08/2022, 13:26:31",-1.71601169797454,"24","M","right",1,1,0,0,TRUE,"E_C_M_alfi.jpg E_C_M_shaharHasson.jpg"
2173,"E_H_F_yanai.jpg","P_P_M_benet.jpg","FALSE","pictures/stimuli/E","pictures/stimuli/P","F","M","4","5d02695334bace00012a468c","06/08/2022, 13:26:31",0.102067610288448,"24","M","right",0,1,0,0,TRUE,"E_H_F_yanai.jpg P_P_M_benet.jpg"
2077,"E_M_M_Ivri.jpg","P_P_F_shaked.jpg","FALSE","pictures/stimuli/E","pictures/stimuli/P","M","F","4","5d02695334bace00012a468c","06/08/2022, 13:26:31",0.102067610288448,"24","M","right",0,1,0,0,TRUE,"E_M_M_Ivri.jpg P_P_F_shaked.jpg"
1839,"E_C_M_mushonov.jpg","E_C_F_shaniCo.jpg","TRUE","pictures/stimuli/E","pictures/stimuli/E","M","F","4","5d02695334bace00012a468c","06/08/2022, 13:26:31",0.102067610288448,"24","M","right",0,1,0,0,TRUE,"E_C_F_shaniCo.jpg E_C_M_mushonov.jpg"
4318,"E_C_M_alfi.jpg","E_M_M_tavori.jpg","TRUE","pictures/stimuli/E","pictures/stimuli/E","M","M","4","5d02695334bace00012a468c","06/08/2022, 13:26:31",0.102067610288448,"24","M","right",1,1,0,0,TRUE,"E_C_M_alfi.jpg E_M_M_tavori.jpg"
3382,"E_C_F_shaniCo.jpg","P_P_M_zamir.jpg","FALSE","pictures/stimuli/E","pictures/stimuli/P","F","M","3","5d02695334bace00012a468c","06/08/2022, 13:26:31",-0.503958825799214,"24","M","right",1,0,0,0,TRUE,"E_C_F_shaniCo.jpg P_P_M_zamir.jpg"
2831,"P_P_F_shaked.jpg","P_N_F_yehimovitz.jpg","TRUE","pictures/stimuli/P","pictures/stimuli/P","F","F","3","5d02695334bace00012a468c","06/08/2022, 13:26:31",-0.503958825799214,"24","M","right",1,0,0,0,TRUE,"P_N_F_yehimovitz.jpg P_P_F_shaked.jpg"
2535,"E_M_M_tavori.jpg","P_N_F_yehimovitz.jpg","FALSE","pictures/stimuli/E","pictures/stimuli/P","M","F","3","5d02695334bace00012a468c","06/08/2022, 13:26:31",-0.503958825799214,"24","M","right",1,0,0,0,TRUE,"E_M_M_tavori.jpg P_N_F_yehimovitz.jpg"
1262,"P_P_F_michaeliM.jpg","P_N_F_yehimovitz.jpg","TRUE","pictures/stimuli/P","pictures/stimuli/P","F","F","3","5d02695334bace00012a468c","06/08/2022, 13:26:31",-0.503958825799214,"24","M","right",1,0,0,0,TRUE,"P_N_F_yehimovitz.jpg P_P_F_michaeliM.jpg"
4558,"E_C_M_katorza.jpg","P_P_F_shaked.jpg","FALSE","pictures/stimuli/E","pictures/stimuli/P","M","F","6","5d02695334bace00012a468c","06/08/2022, 13:26:31",1.31412048246377,"24","M","right",1,1,0,0,TRUE,"E_C_M_katorza.jpg P_P_F_shaked.jpg"
3575,"E_C_F_ornaBanai.jpg","P_N_F_yehimovitz.jpg","FALSE","pictures/stimuli/E","pictures/stimuli/P","F","F","5","5d02695334bace00012a468c","06/08/2022, 13:26:31",0.708094046376111,"24","M","right",1,0,0,0,TRUE,"E_C_F_ornaBanai.jpg P_N_F_yehimovitz.jpg"
2990,"E_M_M_tavori.jpg","E_H_F_yanai.jpg","TRUE","pictures/stimuli/E","pictures/stimuli/E","M","F","4","5d02695334bace00012a468c","06/08/2022, 13:26:31",0.102067610288448,"24","M","right",1,0,0,0,TRUE,"E_H_F_yanai.jpg E_M_M_tavori.jpg"
8575,"E_H_F_yanai.jpg","P_P_M_liberman.jpg","FALSE","pictures/stimuli/E","pictures/stimuli/P","F","M","3","5d02695334bace00012a468c","06/08/2022, 13:26:31",-0.503958825799214,"24","M","right",0,1,0,0,TRUE,"E_H_F_yanai.jpg P_P_M_liberman.jpg"
5558,"E_C_M_mushonov.jpg","P_P_M_smootrich.jpg","FALSE","pictures/stimuli/E","pictures/stimuli/P","M","M","4","5d02695334bace00012a468c","06/08/2022, 13:26:31",0.102067610288448,"24","M","right",0,1,0,0,TRUE,"E_C_M_mushonov.jpg P_P_M_smootrich.jpg"
3503,"P_P_M_peretz.jpg","P_P_M_smootrich.jpg","TRUE","pictures/stimuli/P","pictures/stimuli/P","M","M","1","5d02695334bace00012a468c","06/08/2022, 13:26:31",-1.71601169797454,"24","M","right",1,1,0,0,TRUE,"P_P_M_peretz.jpg P_P_M_smootrich.jpg"
1855,"E_M_M_Ivri.jpg","E_C_M_mushonov.jpg","TRUE","pictures/stimuli/E","pictures/stimuli/E","M","M","3","5d02695334bace00012a468c","06/08/2022, 13:26:31",-0.503958825799214,"24","M","right",0,0,0,0,TRUE,"E_C_M_mushonov.jpg E_M_M_Ivri.jpg"
3742,"E_M_M_Ivri.jpg","P_P_M_smootrich.jpg","FALSE","pictures/stimuli/E","pictures/stimuli/P","M","M","4","5d02695334bace00012a468c","06/08/2022, 13:26:31",0.102067610288448,"24","M","right",0,1,0,0,TRUE,"E_M_M_Ivri.jpg P_P_M_smootrich.jpg"
2735,"E_C_M_katorza.jpg","E_C_F_ornaBanai.jpg","TRUE","pictures/stimuli/E","pictures/stimuli/E","M","F","1","5d02695334bace00012a468c","06/08/2022, 13:26:31",-1.71601169797454,"24","M","right",1,1,0,0,TRUE,"E_C_F_ornaBanai.jpg E_C_M_katorza.jpg"
1245,"E_C_F_harLev.jpg","P_N_F_yehimovitz.jpg","FALSE","pictures/stimuli/E","pictures/stimuli/P","F","F","3","5d02695334bace00012a468c","06/08/2022, 13:26:31",-0.503958825799214,"24","M","right",1,0,0,0,TRUE,"E_C_F_harLev.jpg P_N_F_yehimovitz.jpg"
7383,"E_C_M_katorza.jpg","P_N_M_lapid.jpg","FALSE","pictures/stimuli/E","pictures/stimuli/P","M","M","6","5d02695334bace00012a468c","06/08/2022, 13:26:31",1.31412048246377,"24","M","right",1,1,0,0,TRUE,"E_C_M_katorza.jpg P_N_M_lapid.jpg"
4062,"P_P_M_benet.jpg","P_P_M_peretz.jpg","TRUE","pictures/stimuli/P","pictures/stimuli/P","M","M","1","5d02695334bace00012a468c","06/08/2022, 13:26:31",-1.71601169797454,"24","M","right",1,1,0,0,TRUE,"P_P_M_benet.jpg P_P_M_peretz.jpg"
3623,"E_M_F_rita.jpg","P_P_M_benet.jpg","FALSE","pictures/stimuli/E","pictures/stimuli/P","F","M","4","5d02695334bace00012a468c","06/08/2022, 13:26:31",0.102067610288448,"24","M","right",0,1,0,0,TRUE,"E_M_F_rita.jpg P_P_M_benet.jpg"
3638,"E_C_M_katorza.jpg","E_C_F_shaniCo.jpg","TRUE","pictures/stimuli/E","pictures/stimuli/E","M","F","1","5d02695334bace00012a468c","06/08/2022, 13:26:31",-1.71601169797454,"24","M","right",1,1,0,0,TRUE,"E_C_F_shaniCo.jpg E_C_M_katorza.jpg"
2053,"E_C_M_alfi.jpg","P_P_M_zamir.jpg","FALSE","pictures/stimuli/E","pictures/stimuli/P","M","M","3","5d02695334bace00012a468c","06/08/2022, 13:26:31",-0.503958825799214,"24","M","right",1,0,0,0,TRUE,"E_C_M_alfi.jpg P_P_M_zamir.jpg"
1647,"E_C_M_mushonov.jpg","E_C_F_ornaBanai.jpg","TRUE","pictures/stimuli/E","pictures/stimuli/E","M","F","3","5d02695334bace00012a468c","06/08/2022, 13:26:31",-0.503958825799214,"24","M","right",0,1,0,0,TRUE,"E_C_F_ornaBanai.jpg E_C_M_mushonov.jpg"
5534,"E_C_M_katorza.jpg","P_P_M_peretz.jpg","FALSE","pictures/stimuli/E","pictures/stimuli/P","M","M","6","5d02695334bace00012a468c","06/08/2022, 13:26:31",1.31412048246377,"24","M","right",1,1,0,0,TRUE,"E_C_M_katorza.jpg P_P_M_peretz.jpg"
3071,"P_P_M_benet.jpg","P_P_F_shaked.jpg","TRUE","pictures/stimuli/P","pictures/stimuli/P","M","F","1","5d02695334bace00012a468c","06/08/2022, 13:26:31",-1.71601169797454,"24","M","right",1,1,0,0,TRUE,"P_P_F_shaked.jpg P_P_M_benet.jpg"
1789,"E_M_M_tavori.jpg","P_P_M_benet.jpg","FALSE","pictures/stimuli/E","pictures/stimuli/P","M","M","6","5d02695334bace00012a468c","06/08/2022, 13:26:31",1.31412048246377,"24","M","right",1,1,0,0,TRUE,"E_M_M_tavori.jpg P_P_M_benet.jpg"
4598,"E_M_M_Ivri.jpg","P_P_F_michaeliM.jpg","FALSE","pictures/stimuli/E","pictures/stimuli/P","M","F","4","5d02695334bace00012a468c","06/08/2022, 13:26:31",0.102067610288448,"24","M","right",0,1,0,0,TRUE,"E_M_M_Ivri.jpg P_P_F_michaeliM.jpg"
2262,"E_M_M_tavori.jpg","P_P_M_liberman.jpg","FALSE","pictures/stimuli/E","pictures/stimuli/P","M","M","6","5d02695334bace00012a468c","06/08/2022, 13:26:31",1.31412048246377,"24","M","right",1,1,0,0,TRUE,"E_M_M_tavori.jpg P_P_M_liberman.jpg"
2240,"P_N_M_lapid.jpg","P_N_F_yehimovitz.jpg","TRUE","pictures/stimuli/P","pictures/stimuli/P","M","F","4","5d02695334bace00012a468c","06/08/2022, 13:26:31",0.102067610288448,"24","M","right",1,0,0,0,TRUE,"P_N_F_yehimovitz.jpg P_N_M_lapid.jpg"
4000,"E_C_F_ornaBanai.jpg","E_M_F_rita.jpg","TRUE","pictures/stimuli/E","pictures/stimuli/E","F","F","4","5d02695334bace00012a468c","06/08/2022, 13:26:31",0.102067610288448,"24","M","right",1,0,0,0,TRUE,"E_C_F_ornaBanai.jpg E_M_F_rita.jpg"
2301,"E_C_M_mushonov.jpg","E_M_F_rita.jpg","TRUE","pictures/stimuli/E","pictures/stimuli/E","M","F","3","5d02695334bace00012a468c","06/08/2022, 13:26:31",-0.503958825799214,"24","M","right",0,0,0,0,TRUE,"E_C_M_mushonov.jpg E_M_F_rita.jpg"
2494,"P_N_M_lapid.jpg","P_P_F_michaeliM.jpg","TRUE","pictures/stimuli/P","pictures/stimuli/P","M","F","1","5d02695334bace00012a468c","06/08/2022, 13:26:31",-1.71601169797454,"24","M","right",1,1,0,0,TRUE,"P_N_M_lapid.jpg P_P_F_michaeliM.jpg"
3750,"P_P_M_benet.jpg","P_P_M_zamir.jpg","TRUE","pictures/stimuli/P","pictures/stimuli/P","M","M","3","5d02695334bace00012a468c","06/08/2022, 13:26:31",-0.503958825799214,"24","M","right",1,0,0,0,TRUE,"P_P_M_benet.jpg P_P_M_zamir.jpg"
3246,"E_C_F_shaniCo.jpg","P_P_F_michaeliM.jpg","FALSE","pictures/stimuli/E","pictures/stimuli/P","F","F","6","5d02695334bace00012a468c","06/08/2022, 13:26:31",1.31412048246377,"24","M","right",1,1,0,0,TRUE,"E_C_F_shaniCo.jpg P_P_F_michaeliM.jpg"
2911,"E_C_F_shaniCo.jpg","P_N_F_yehimovitz.jpg","FALSE","pictures/stimuli/E","pictures/stimuli/P","F","F","3","5d02695334bace00012a468c","06/08/2022, 13:26:31",-0.503958825799214,"24","M","right",1,0,0,0,TRUE,"E_C_F_shaniCo.jpg P_N_F_yehimovitz.jpg"
2079,"E_C_F_shaniCo.jpg","P_N_M_lapid.jpg","FALSE","pictures/stimuli/E","pictures/stimuli/P","F","M","4","5d02695334bace00012a468c","06/08/2022, 13:26:31",0.102067610288448,"24","M","right",1,1,0,0,TRUE,"E_C_F_shaniCo.jpg P_N_M_lapid.jpg"
3415,"E_H_F_yanai.jpg","P_N_M_lapid.jpg","FALSE","pictures/stimuli/E","pictures/stimuli/P","F","M","4","5d02695334bace00012a468c","06/08/2022, 13:26:31",0.102067610288448,"24","M","right",0,1,0,0,TRUE,"E_H_F_yanai.jpg P_N_M_lapid.jpg"
3269,"E_C_F_harLev.jpg","P_P_M_smootrich.jpg","FALSE","pictures/stimuli/E","pictures/stimuli/P","F","M","5","5d02695334bace00012a468c","06/08/2022, 13:26:31",0.708094046376111,"24","M","right",1,1,0,0,TRUE,"E_C_F_harLev.jpg P_P_M_smootrich.jpg"
1726,"E_C_F_ornaBanai.jpg","P_N_M_lapid.jpg","FALSE","pictures/stimuli/E","pictures/stimuli/P","F","M","6","5d02695334bace00012a468c","06/08/2022, 13:26:31",1.31412048246377,"24","M","right",1,1,0,0,TRUE,"E_C_F_ornaBanai.jpg P_N_M_lapid.jpg"
2071,"P_P_M_liberman.jpg","P_P_M_peretz.jpg","TRUE","pictures/stimuli/P","pictures/stimuli/P","M","M","1","5d02695334bace00012a468c","06/08/2022, 13:26:31",-1.71601169797454,"24","M","right",1,1,0,0,TRUE,"P_P_M_liberman.jpg P_P_M_peretz.jpg"
3270,"P_P_F_shaked.jpg","P_P_M_smootrich.jpg","TRUE","pictures/stimuli/P","pictures/stimuli/P","F","M","1","5d02695334bace00012a468c","06/08/2022, 13:26:31",-1.71601169797454,"24","M","right",1,1,0,0,TRUE,"P_P_F_shaked.jpg P_P_M_smootrich.jpg"
2541,"E_C_F_ornaBanai.jpg","P_P_M_smootrich.jpg","FALSE","pictures/stimuli/E","pictures/stimuli/P","F","M","5","5d02695334bace00012a468c","06/08/2022, 13:26:31",0.708094046376111,"24","M","right",1,1,0,0,TRUE,"E_C_F_ornaBanai.jpg P_P_M_smootrich.jpg"
3797,"E_C_M_katorza.jpg","E_C_F_harLev.jpg","TRUE","pictures/stimuli/E","pictures/stimuli/E","M","F","2","5d02695334bace00012a468c","06/08/2022, 13:26:31",-1.10998526188688,"24","M","right",1,1,0,0,TRUE,"E_C_F_harLev.jpg E_C_M_katorza.jpg"
1464,"E_C_M_katorza.jpg","E_C_M_shaharHasson.jpg","TRUE","pictures/stimuli/E","pictures/stimuli/E","M","M","1","5d02695334bace00012a468c","06/08/2022, 13:26:31",-1.71601169797454,"24","M","right",1,1,0,0,TRUE,"E_C_M_katorza.jpg E_C_M_shaharHasson.jpg"
2151,"E_M_M_tavori.jpg","P_P_M_smootrich.jpg","FALSE","pictures/stimuli/E","pictures/stimuli/P","M","M","5","5d02695334bace00012a468c","06/08/2022, 13:26:31",0.708094046376111,"24","M","right",1,1,0,0,TRUE,"E_M_M_tavori.jpg P_P_M_smootrich.jpg"
1559,"P_P_M_peretz.jpg","P_N_F_yehimovitz.jpg","TRUE","pictures/stimuli/P","pictures/stimuli/P","M","F","4","5d02695334bace00012a468c","06/08/2022, 13:26:31",0.102067610288448,"24","M","right",1,0,0,0,TRUE,"P_N_F_yehimovitz.jpg P_P_M_peretz.jpg"
1895,"E_C_F_harLev.jpg","P_P_M_benet.jpg","FALSE","pictures/stimuli/E","pictures/stimuli/P","F","M","6","5d02695334bace00012a468c","06/08/2022, 13:26:31",1.31412048246377,"24","M","right",1,1,0,0,TRUE,"E_C_F_harLev.jpg P_P_M_benet.jpg"
1494,"E_C_F_ornaBanai.jpg","E_H_F_yanai.jpg","TRUE","pictures/stimuli/E","pictures/stimuli/E","F","F","4","5d02695334bace00012a468c","06/08/2022, 13:26:31",0.102067610288448,"24","M","right",1,0,0,0,TRUE,"E_C_F_ornaBanai.jpg E_H_F_yanai.jpg"
2158,"E_H_F_yanai.jpg","P_P_M_smootrich.jpg","FALSE","pictures/stimuli/E","pictures/stimuli/P","F","M","4","5d02695334bace00012a468c","06/08/2022, 13:26:31",0.102067610288448,"24","M","right",0,1,0,0,TRUE,"E_H_F_yanai.jpg P_P_M_smootrich.jpg"
2494,"E_C_M_mushonov.jpg","P_P_M_peretz.jpg","FALSE","pictures/stimuli/E","pictures/stimuli/P","M","M","4","5d02695334bace00012a468c","06/08/2022, 13:26:31",0.102067610288448,"24","M","right",0,1,0,0,TRUE,"E_C_M_mushonov.jpg P_P_M_peretz.jpg"
1055,"E_H_F_yanai.jpg","P_P_M_peretz.jpg","FALSE","pictures/stimuli/E","pictures/stimuli/P","F","M","4","5d02695334bace00012a468c","06/08/2022, 13:26:31",0.102067610288448,"24","M","right",0,1,0,0,TRUE,"E_H_F_yanai.jpg P_P_M_peretz.jpg"
2990,"E_C_M_alfi.jpg","P_P_M_benet.jpg","FALSE","pictures/stimuli/E","pictures/stimuli/P","M","M","6","5d02695334bace00012a468c","06/08/2022, 13:26:31",1.31412048246377,"24","M","right",1,1,0,0,TRUE,"E_C_M_alfi.jpg P_P_M_benet.jpg"
2735,"E_C_F_ornaBanai.jpg","E_M_M_tavori.jpg","TRUE","pictures/stimuli/E","pictures/stimuli/E","F","M","4","5d02695334bace00012a468c","06/08/2022, 13:26:31",0.102067610288448,"24","M","right",1,1,0,0,TRUE,"E_C_F_ornaBanai.jpg E_M_M_tavori.jpg"
1839,"E_C_M_shaharHasson.jpg","P_P_M_zamir.jpg","FALSE","pictures/stimuli/E","pictures/stimuli/P","M","M","4","5d02695334bace00012a468c","06/08/2022, 13:26:31",0.102067610288448,"24","M","right",1,0,0,0,TRUE,"E_C_M_shaharHasson.jpg P_P_M_zamir.jpg"
1789,"E_M_M_Ivri.jpg","E_H_F_yanai.jpg","TRUE","pictures/stimuli/E","pictures/stimuli/E","M","F","4","5d02695334bace00012a468c","06/08/2022, 13:26:31",0.102067610288448,"24","M","right",0,0,0,0,TRUE,"E_H_F_yanai.jpg E_M_M_Ivri.jpg"
3238,"E_M_M_Ivri.jpg","P_P_M_liberman.jpg","FALSE","pictures/stimuli/E","pictures/stimuli/P","M","M","5","5d02695334bace00012a468c","06/08/2022, 13:26:31",0.708094046376111,"24","M","right",0,1,0,0,TRUE,"E_M_M_Ivri.jpg P_P_M_liberman.jpg"
1775,"E_C_F_harLev.jpg","E_H_F_yanai.jpg","TRUE","pictures/stimuli/E","pictures/stimuli/E","F","F","3","5d02695334bace00012a468c","06/08/2022, 13:26:31",-0.503958825799214,"24","M","right",1,0,0,0,TRUE,"E_C_F_harLev.jpg E_H_F_yanai.jpg"
1711,"E_C_M_alfi.jpg","E_H_F_yanai.jpg","TRUE","pictures/stimuli/E","pictures/stimuli/E","M","F","3","5d02695334bace00012a468c","06/08/2022, 13:26:31",-0.503958825799214,"24","M","right",1,0,0,0,TRUE,"E_C_M_alfi.jpg E_H_F_yanai.jpg"
1502,"E_C_F_ornaBanai.jpg","E_C_F_shaniCo.jpg","TRUE","pictures/stimuli/E","pictures/stimuli/E","F","F","3","5d02695334bace00012a468c","06/08/2022, 13:26:31",-0.503958825799214,"24","M","right",1,1,0,0,TRUE,"E_C_F_ornaBanai.jpg E_C_F_shaniCo.jpg"
3142,"P_N_M_lapid.jpg","P_P_M_liberman.jpg","TRUE","pictures/stimuli/P","pictures/stimuli/P","M","M","1","5d02695334bace00012a468c","06/08/2022, 13:26:31",-1.71601169797454,"24","M","right",1,1,0,0,TRUE,"P_N_M_lapid.jpg P_P_M_liberman.jpg"
2014,"E_M_F_rita.jpg","P_P_F_shaked.jpg","FALSE","pictures/stimuli/E","pictures/stimuli/P","F","F","4","5d02695334bace00012a468c","06/08/2022, 13:26:31",0.102067610288448,"24","M","right",0,1,0,0,TRUE,"E_M_F_rita.jpg P_P_F_shaked.jpg"
1775,"E_M_F_rita.jpg","P_P_F_michaeliM.jpg","FALSE","pictures/stimuli/E","pictures/stimuli/P","F","F","4","5d02695334bace00012a468c","06/08/2022, 13:26:31",0.102067610288448,"24","M","right",0,1,0,0,TRUE,"E_M_F_rita.jpg P_P_F_michaeliM.jpg"
1965,"E_C_M_shaharHasson.jpg","E_M_M_Ivri.jpg","TRUE","pictures/stimuli/E","pictures/stimuli/E","M","M","5","5d02695334bace00012a468c","06/08/2022, 13:26:31",0.708094046376111,"24","M","right",1,0,0,0,TRUE,"E_C_M_shaharHasson.jpg E_M_M_Ivri.jpg"
2190,"E_C_M_mushonov.jpg","P_P_F_shaked.jpg","FALSE","pictures/stimuli/E","pictures/stimuli/P","M","F","4","5d02695334bace00012a468c","06/08/2022, 13:26:31",0.102067610288448,"24","M","right",0,1,0,0,TRUE,"E_C_M_mushonov.jpg P_P_F_shaked.jpg"
1718,"E_M_M_Ivri.jpg","P_P_M_peretz.jpg","FALSE","pictures/stimuli/E","pictures/stimuli/P","M","M","5","5d02695334bace00012a468c","06/08/2022, 13:26:31",0.708094046376111,"24","M","right",0,1,0,0,TRUE,"E_M_M_Ivri.jpg P_P_M_peretz.jpg"
1735,"E_M_F_rita.jpg","E_M_M_tavori.jpg","TRUE","pictures/stimuli/E","pictures/stimuli/E","F","M","4","5d02695334bace00012a468c","06/08/2022, 13:26:31",0.102067610288448,"24","M","right",0,1,0,0,TRUE,"E_M_F_rita.jpg E_M_M_tavori.jpg"
3046,"E_C_M_katorza.jpg","E_M_M_Ivri.jpg","TRUE","pictures/stimuli/E","pictures/stimuli/E","M","M","3","5d02695334bace00012a468c","06/08/2022, 13:26:31",-0.503958825799214,"24","M","right",1,0,0,0,TRUE,"E_C_M_katorza.jpg E_M_M_Ivri.jpg"
1846,"E_C_F_shaniCo.jpg","P_P_M_benet.jpg","FALSE","pictures/stimuli/E","pictures/stimuli/P","F","M","6","5d02695334bace00012a468c","06/08/2022, 13:26:31",1.31412048246377,"24","M","right",1,1,0,0,TRUE,"E_C_F_shaniCo.jpg P_P_M_benet.jpg"
3039,"P_P_F_michaeliM.jpg","P_P_M_peretz.jpg","TRUE","pictures/stimuli/P","pictures/stimuli/P","F","M","1","5d02695334bace00012a468c","06/08/2022, 13:26:31",-1.71601169797454,"24","M","right",1,1,0,0,TRUE,"P_P_F_michaeliM.jpg P_P_M_peretz.jpg"
1887,"E_C_M_mushonov.jpg","P_P_M_liberman.jpg","FALSE","pictures/stimuli/E","pictures/stimuli/P","M","M","4","5d02695334bace00012a468c","06/08/2022, 13:26:31",0.102067610288448,"24","M","right",0,1,0,0,TRUE,"E_C_M_mushonov.jpg P_P_M_liberman.jpg"
3135,"E_C_M_alfi.jpg","P_P_M_peretz.jpg","FALSE","pictures/stimuli/E","pictures/stimuli/P","M","M","6","5d02695334bace00012a468c","06/08/2022, 13:26:31",1.31412048246377,"24","M","right",1,1,0,0,TRUE,"E_C_M_alfi.jpg P_P_M_peretz.jpg"
8439,"E_C_M_shaharHasson.jpg","P_P_M_liberman.jpg","FALSE","pictures/stimuli/E","pictures/stimuli/P","M","M","6","5d02695334bace00012a468c","06/08/2022, 13:26:31",1.31412048246377,"24","M","right",1,1,0,0,TRUE,"E_C_M_shaharHasson.jpg P_P_M_liberman.jpg"
1839,"E_C_M_alfi.jpg","E_C_F_shaniCo.jpg","TRUE","pictures/stimuli/E","pictures/stimuli/E","M","F","4","5d02695334bace00012a468c","06/08/2022, 13:26:31",0.102067610288448,"24","M","right",1,1,0,0,TRUE,"E_C_F_shaniCo.jpg E_C_M_alfi.jpg"
2327,"E_C_F_harLev.jpg","E_C_F_shaniCo.jpg","TRUE","pictures/stimuli/E","pictures/stimuli/E","F","F","1","5d02695334bace00012a468c","06/08/2022, 13:26:31",-1.71601169797454,"24","M","right",1,1,0,0,TRUE,"E_C_F_harLev.jpg E_C_F_shaniCo.jpg"
2487,"E_M_F_rita.jpg","P_P_M_smootrich.jpg","FALSE","pictures/stimuli/E","pictures/stimuli/P","F","M","5","5d02695334bace00012a468c","06/08/2022, 13:26:31",0.708094046376111,"24","M","right",0,1,0,0,TRUE,"E_M_F_rita.jpg P_P_M_smootrich.jpg"
1239,"E_C_M_katorza.jpg","E_H_F_yanai.jpg","TRUE","pictures/stimuli/E","pictures/stimuli/E","M","F","4","5d02695334bace00012a468c","06/08/2022, 13:26:31",0.102067610288448,"24","M","right",1,0,0,0,TRUE,"E_C_M_katorza.jpg E_H_F_yanai.jpg"
1815,"E_C_M_shaharHasson.jpg","E_M_F_rita.jpg","TRUE","pictures/stimuli/E","pictures/stimuli/E","M","F","4","5d02695334bace00012a468c","06/08/2022, 13:26:31",0.102067610288448,"24","M","right",1,0,0,0,TRUE,"E_C_M_shaharHasson.jpg E_M_F_rita.jpg"
1935,"E_C_M_shaharHasson.jpg","E_C_M_mushonov.jpg","TRUE","pictures/stimuli/E","pictures/stimuli/E","M","M","3","5d02695334bace00012a468c","06/08/2022, 13:26:31",-0.503958825799214,"24","M","right",1,0,0,0,TRUE,"E_C_M_mushonov.jpg E_C_M_shaharHasson.jpg"
1647,"P_P_M_liberman.jpg","P_P_M_smootrich.jpg","TRUE","pictures/stimuli/P","pictures/stimuli/P","M","M","1","5d02695334bace00012a468c","06/08/2022, 13:26:31",-1.71601169797454,"24","M","right",1,1,0,0,TRUE,"P_P_M_liberman.jpg P_P_M_smootrich.jpg"
2286,"E_C_M_alfi.jpg","E_C_F_ornaBanai.jpg","TRUE","pictures/stimuli/E","pictures/stimuli/E","M","F","1","5d02695334bace00012a468c","06/08/2022, 13:26:31",-1.71601169797454,"24","M","right",1,1,0,0,TRUE,"E_C_F_ornaBanai.jpg E_C_M_alfi.jpg"
2718,"E_C_M_shaharHasson.jpg","P_P_F_shaked.jpg","FALSE","pictures/stimuli/E","pictures/stimuli/P","M","F","6","5d02695334bace00012a468c","06/08/2022, 13:26:31",1.31412048246377,"24","M","right",1,1,0,0,TRUE,"E_C_M_shaharHasson.jpg P_P_F_shaked.jpg"
2135,"E_C_F_harLev.jpg","E_C_M_mushonov.jpg","TRUE","pictures/stimuli/E","pictures/stimuli/E","F","M","4","5d02695334bace00012a468c","06/08/2022, 13:26:31",0.102067610288448,"24","M","right",1,0,0,0,TRUE,"E_C_F_harLev.jpg E_C_M_mushonov.jpg"
3951,"E_C_F_ornaBanai.jpg","P_P_F_michaeliM.jpg","FALSE","pictures/stimuli/E","pictures/stimuli/P","F","F","6","5d02695334bace00012a468c","06/08/2022, 13:26:31",1.31412048246377,"24","M","right",1,1,0,0,TRUE,"E_C_F_ornaBanai.jpg P_P_F_michaeliM.jpg"
6719,"P_P_M_liberman.jpg","P_P_F_michaeliM.jpg","TRUE","pictures/stimuli/P","pictures/stimuli/P","M","F","1","5d02695334bace00012a468c","06/08/2022, 13:26:31",-1.71601169797454,"24","M","right",1,1,0,0,TRUE,"P_P_F_michaeliM.jpg P_P_M_liberman.jpg"
2815,"E_C_M_katorza.jpg","P_N_F_yehimovitz.jpg","FALSE","pictures/stimuli/E","pictures/stimuli/P","M","F","3","5d02695334bace00012a468c","06/08/2022, 13:26:31",-0.503958825799214,"24","M","right",1,0,0,0,TRUE,"E_C_M_katorza.jpg P_N_F_yehimovitz.jpg"
1982,"P_N_M_lapid.jpg","P_P_M_peretz.jpg","TRUE","pictures/stimuli/P","pictures/stimuli/P","M","M","1","5d02695334bace00012a468c","06/08/2022, 13:26:31",-1.71601169797454,"24","M","right",1,1,0,0,TRUE,"P_N_M_lapid.jpg P_P_M_peretz.jpg"
1959,"E_M_M_Ivri.jpg","P_P_M_benet.jpg","FALSE","pictures/stimuli/E","pictures/stimuli/P","M","M","3","5d02695334bace00012a468c","06/08/2022, 13:26:31",-0.503958825799214,"24","M","right",0,1,0,0,TRUE,"E_M_M_Ivri.jpg P_P_M_benet.jpg"
3014,"E_C_M_alfi.jpg","E_M_M_Ivri.jpg","TRUE","pictures/stimuli/E","pictures/stimuli/E","M","M","3","5d02695334bace00012a468c","06/08/2022, 13:26:31",-0.503958825799214,"24","M","right",1,0,0,0,TRUE,"E_C_M_alfi.jpg E_M_M_Ivri.jpg"
3302,"E_C_M_shaharHasson.jpg","E_C_F_shaniCo.jpg","TRUE","pictures/stimuli/E","pictures/stimuli/E","M","F","1","5d02695334bace00012a468c","06/08/2022, 13:26:31",-1.71601169797454,"24","M","right",1,1,0,0,TRUE,"E_C_F_shaniCo.jpg E_C_M_shaharHasson.jpg"
2272,"E_C_M_mushonov.jpg","P_N_M_lapid.jpg","FALSE","pictures/stimuli/E","pictures/stimuli/P","M","M","4","5d02695334bace00012a468c","06/08/2022, 13:26:31",0.102067610288448,"24","M","right",0,1,0,0,TRUE,"E_C_M_mushonov.jpg P_N_M_lapid.jpg"
1446,"E_C_M_mushonov.jpg","E_M_M_tavori.jpg","TRUE","pictures/stimuli/E","pictures/stimuli/E","M","M","4","5d02695334bace00012a468c","06/08/2022, 13:26:31",0.102067610288448,"24","M","right",0,1,0,0,TRUE,"E_C_M_mushonov.jpg E_M_M_tavori.jpg"
1135,"E_C_M_mushonov.jpg","E_H_F_yanai.jpg","TRUE","pictures/stimuli/E","pictures/stimuli/E","M","F","4","5d02695334bace00012a468c","06/08/2022, 13:26:31",0.102067610288448,"24","M","right",0,0,0,0,TRUE,"E_C_M_mushonov.jpg E_H_F_yanai.jpg"
2485,"E_C_F_harLev.jpg","P_P_M_peretz.jpg","FALSE","pictures/stimuli/E","pictures/stimuli/P","F","M","6","5d02695334bace00012a468c","06/08/2022, 13:26:31",1.31412048246377,"24","M","right",1,1,0,0,TRUE,"E_C_F_harLev.jpg P_P_M_peretz.jpg"
1527,"E_H_F_yanai.jpg","P_P_F_michaeliM.jpg","FALSE","pictures/stimuli/E","pictures/stimuli/P","F","F","4","5d02695334bace00012a468c","06/08/2022, 13:26:31",0.102067610288448,"24","M","right",0,1,0,0,TRUE,"E_H_F_yanai.jpg P_P_F_michaeliM.jpg"
2222,"P_P_M_benet.jpg","P_P_M_smootrich.jpg","TRUE","pictures/stimuli/P","pictures/stimuli/P","M","M","1","5d02695334bace00012a468c","06/08/2022, 13:26:31",-1.71601169797454,"24","M","right",1,1,0,0,TRUE,"P_P_M_benet.jpg P_P_M_smootrich.jpg"
1398,"E_C_F_harLev.jpg","E_M_F_rita.jpg","TRUE","pictures/stimuli/E","pictures/stimuli/E","F","F","4","5d02695334bace00012a468c","06/08/2022, 13:26:31",0.102067610288448,"24","M","right",1,0,0,0,TRUE,"E_C_F_harLev.jpg E_M_F_rita.jpg"
2998,"E_C_F_ornaBanai.jpg","P_P_M_liberman.jpg","FALSE","pictures/stimuli/E","pictures/stimuli/P","F","M","6","5d02695334bace00012a468c","06/08/2022, 13:26:31",1.31412048246377,"24","M","right",1,1,0,0,TRUE,"E_C_F_ornaBanai.jpg P_P_M_liberman.jpg"
2511,"E_C_M_shaharHasson.jpg","P_N_M_lapid.jpg","FALSE","pictures/stimuli/E","pictures/stimuli/P","M","M","6","5d02695334bace00012a468c","06/08/2022, 13:26:31",1.31412048246377,"24","M","right",1,1,0,0,TRUE,"E_C_M_shaharHasson.jpg P_N_M_lapid.jpg"
1408,"E_C_M_mushonov.jpg","P_P_M_zamir.jpg","FALSE","pictures/stimuli/E","pictures/stimuli/P","M","M","4","5d02695334bace00012a468c","06/08/2022, 13:26:31",0.102067610288448,"24","M","right",0,0,0,0,TRUE,"E_C_M_mushonov.jpg P_P_M_zamir.jpg"
2478,"E_M_M_tavori.jpg","P_P_F_shaked.jpg","FALSE","pictures/stimuli/E","pictures/stimuli/P","M","F","4","5d02695334bace00012a468c","06/08/2022, 13:26:31",0.102067610288448,"24","M","right",1,1,0,0,TRUE,"E_M_M_tavori.jpg P_P_F_shaked.jpg"
3432,"E_C_M_alfi.jpg","E_C_F_harLev.jpg","TRUE","pictures/stimuli/E","pictures/stimuli/E","M","F","1","5d02695334bace00012a468c","06/08/2022, 13:26:31",-1.71601169797454,"24","M","right",1,1,0,0,TRUE,"E_C_F_harLev.jpg E_C_M_alfi.jpg"
1895,"E_M_F_rita.jpg","P_P_M_peretz.jpg","FALSE","pictures/stimuli/E","pictures/stimuli/P","F","M","5","5d02695334bace00012a468c","06/08/2022, 13:26:31",0.708094046376111,"24","M","right",0,1,0,0,TRUE,"E_M_F_rita.jpg P_P_M_peretz.jpg"
1830,"E_M_M_tavori.jpg","P_N_M_lapid.jpg","FALSE","pictures/stimuli/E","pictures/stimuli/P","M","M","6","5d02695334bace00012a468c","06/08/2022, 13:26:31",1.31412048246377,"24","M","right",1,1,0,0,TRUE,"E_M_M_tavori.jpg P_N_M_lapid.jpg"
1591,"E_M_M_tavori.jpg","P_P_F_michaeliM.jpg","FALSE","pictures/stimuli/E","pictures/stimuli/P","M","F","6","5d02695334bace00012a468c","06/08/2022, 13:26:31",1.31412048246377,"24","M","right",1,1,0,0,TRUE,"E_M_M_tavori.jpg P_P_F_michaeliM.jpg"
1159,"E_C_F_harLev.jpg","P_P_M_liberman.jpg","FALSE","pictures/stimuli/E","pictures/stimuli/P","F","M","6","5d02695334bace00012a468c","06/08/2022, 13:26:31",1.31412048246377,"24","M","right",1,1,0,0,TRUE,"E_C_F_harLev.jpg P_P_M_liberman.jpg"
2591,"P_P_F_michaeliM.jpg","P_P_F_shaked.jpg","TRUE","pictures/stimuli/P","pictures/stimuli/P","F","F","1","5d02695334bace00012a468c","06/08/2022, 13:26:31",-1.71601169797454,"24","M","right",1,1,0,0,TRUE,"P_P_F_michaeliM.jpg P_P_F_shaked.jpg"
2015,"E_M_M_Ivri.jpg","E_C_F_shaniCo.jpg","TRUE","pictures/stimuli/E","pictures/stimuli/E","M","F","4","5d02695334bace00012a468c","06/08/2022, 13:26:31",0.102067610288448,"24","M","right",0,1,0,0,TRUE,"E_C_F_shaniCo.jpg E_M_M_Ivri.jpg"
1559,"E_M_M_tavori.jpg","P_P_M_peretz.jpg","FALSE","pictures/stimuli/E","pictures/stimuli/P","M","M","6","5d02695334bace00012a468c","06/08/2022, 13:26:31",1.31412048246377,"24","M","right",1,1,0,0,TRUE,"E_M_M_tavori.jpg P_P_M_peretz.jpg"
1127,"E_C_F_ornaBanai.jpg","P_P_M_peretz.jpg","FALSE","pictures/stimuli/E","pictures/stimuli/P","F","M","6","5d02695334bace00012a468c","06/08/2022, 13:26:31",1.31412048246377,"24","M","right",1,1,0,0,TRUE,"E_C_F_ornaBanai.jpg P_P_M_peretz.jpg"
2607,"P_N_F_yehimovitz.jpg","P_P_M_zamir.jpg","TRUE","pictures/stimuli/P","pictures/stimuli/P","F","M","4","5d02695334bace00012a468c","06/08/2022, 13:26:31",0.102067610288448,"24","M","right",0,0,0,0,TRUE,"P_N_F_yehimovitz.jpg P_P_M_zamir.jpg"
2206,"E_C_M_katorza.jpg","E_C_M_mushonov.jpg","TRUE","pictures/stimuli/E","pictures/stimuli/E","M","M","3","5d02695334bace00012a468c","06/08/2022, 13:26:31",-0.503958825799214,"24","M","right",1,0,0,0,TRUE,"E_C_M_katorza.jpg E_C_M_mushonov.jpg"
1486,"E_C_M_shaharHasson.jpg","P_P_F_michaeliM.jpg","FALSE","pictures/stimuli/E","pictures/stimuli/P","M","F","6","5d02695334bace00012a468c","06/08/2022, 13:26:31",1.31412048246377,"24","M","right",1,1,0,0,TRUE,"E_C_M_shaharHasson.jpg P_P_F_michaeliM.jpg"
1655,"E_C_F_ornaBanai.jpg","P_P_F_shaked.jpg","FALSE","pictures/stimuli/E","pictures/stimuli/P","F","F","6","5d02695334bace00012a468c","06/08/2022, 13:26:31",1.31412048246377,"24","M","right",1,1,0,0,TRUE,"E_C_F_ornaBanai.jpg P_P_F_shaked.jpg"
1815,"P_P_F_michaeliM.jpg","P_P_M_smootrich.jpg","TRUE","pictures/stimuli/P","pictures/stimuli/P","F","M","1","5d02695334bace00012a468c","06/08/2022, 13:26:31",-1.71601169797454,"24","M","right",1,1,0,0,TRUE,"P_P_F_michaeliM.jpg P_P_M_smootrich.jpg"
1238,"E_M_F_rita.jpg","P_N_F_yehimovitz.jpg","FALSE","pictures/stimuli/E","pictures/stimuli/P","F","F","4","5d02695334bace00012a468c","06/08/2022, 13:26:31",0.102067610288448,"24","M","right",0,0,0,0,TRUE,"E_M_F_rita.jpg P_N_F_yehimovitz.jpg"
2480,"E_C_M_alfi.jpg","E_C_M_katorza.jpg","TRUE","pictures/stimuli/E","pictures/stimuli/E","M","M","1","5d02695334bace00012a468c","06/08/2022, 13:26:31",-1.71601169797454,"24","M","right",1,1,0,0,TRUE,"E_C_M_alfi.jpg E_C_M_katorza.jpg"
1975,"E_M_M_Ivri.jpg","P_P_M_zamir.jpg","FALSE","pictures/stimuli/E","pictures/stimuli/P","M","M","5","5d02695334bace00012a468c","06/08/2022, 13:26:31",0.708094046376111,"24","M","right",0,0,0,0,TRUE,"E_M_M_Ivri.jpg P_P_M_zamir.jpg"
1752,"P_P_M_peretz.jpg","P_P_M_zamir.jpg","TRUE","pictures/stimuli/P","pictures/stimuli/P","M","M","4","5d02695334bace00012a468c","06/08/2022, 13:26:31",0.102067610288448,"24","M","right",1,0,0,0,TRUE,"P_P_M_peretz.jpg P_P_M_zamir.jpg"
1807,"P_P_M_benet.jpg","P_P_F_michaeliM.jpg","TRUE","pictures/stimuli/P","pictures/stimuli/P","M","F","1","5d02695334bace00012a468c","06/08/2022, 13:26:31",-1.71601169797454,"24","M","right",1,1,0,0,TRUE,"P_P_F_michaeliM.jpg P_P_M_benet.jpg"
1758,"E_C_F_harLev.jpg","P_P_F_michaeliM.jpg","FALSE","pictures/stimuli/E","pictures/stimuli/P","F","F","6","5d02695334bace00012a468c","06/08/2022, 13:26:31",1.31412048246377,"24","M","right",1,1,0,0,TRUE,"E_C_F_harLev.jpg P_P_F_michaeliM.jpg"
2495,"P_P_F_shaked.jpg","P_P_M_zamir.jpg","TRUE","pictures/stimuli/P","pictures/stimuli/P","F","M","5","5d02695334bace00012a468c","06/08/2022, 13:26:31",0.708094046376111,"24","M","right",1,0,0,0,TRUE,"P_P_F_shaked.jpg P_P_M_zamir.jpg"
2566,"E_M_M_Ivri.jpg","P_N_M_lapid.jpg","FALSE","pictures/stimuli/E","pictures/stimuli/P","M","M","5","5d02695334bace00012a468c","06/08/2022, 13:26:31",0.708094046376111,"24","M","right",0,1,0,0,TRUE,"E_M_M_Ivri.jpg P_N_M_lapid.jpg"
2543,"E_C_M_katorza.jpg","P_P_M_zamir.jpg","FALSE","pictures/stimuli/E","pictures/stimuli/P","M","M","4","5d02695334bace00012a468c","06/08/2022, 13:26:31",0.102067610288448,"24","M","right",1,0,0,0,TRUE,"E_C_M_katorza.jpg P_P_M_zamir.jpg"
3799,"P_N_M_lapid.jpg","P_P_M_zamir.jpg","TRUE","pictures/stimuli/P","pictures/stimuli/P","M","M","4","5d02695334bace00012a468c","06/08/2022, 13:26:31",0.102067610288448,"24","M","right",1,0,0,0,TRUE,"P_N_M_lapid.jpg P_P_M_zamir.jpg"
1726,"E_C_M_shaharHasson.jpg","P_N_F_yehimovitz.jpg","FALSE","pictures/stimuli/E","pictures/stimuli/P","M","F","4","5d02695334bace00012a468c","06/08/2022, 13:26:31",0.102067610288448,"24","M","right",1,0,0,0,TRUE,"E_C_M_shaharHasson.jpg P_N_F_yehimovitz.jpg"
2558,"E_C_M_katorza.jpg","E_M_F_rita.jpg","TRUE","pictures/stimuli/E","pictures/stimuli/E","M","F","3","5d02695334bace00012a468c","06/08/2022, 13:26:31",-0.503958825799214,"24","M","right",1,0,0,0,TRUE,"E_C_M_katorza.jpg E_M_F_rita.jpg"
1238,"E_M_F_rita.jpg","E_H_F_yanai.jpg","TRUE","pictures/stimuli/E","pictures/stimuli/E","F","F","3","5d02695334bace00012a468c","06/08/2022, 13:26:31",-0.503958825799214,"24","M","right",0,0,0,0,TRUE,"E_H_F_yanai.jpg E_M_F_rita.jpg"
10914,"E_C_M_alfi.jpg","E_M_M_Ivri.jpg","TRUE","pictures/stimuli/E","pictures/stimuli/E","M","M","2","5d1d8aaf32ab4a00013fadb7","06/08/2022, 10:06:35",-1.51314749052131,"35","M","right",1,1,0,0,FALSE,"E_C_M_alfi.jpg E_M_M_Ivri.jpg"
4825,"E_C_M_katorza.jpg","P_P_M_zamir.jpg","FALSE","pictures/stimuli/E","pictures/stimuli/P","M","M","6","5d1d8aaf32ab4a00013fadb7","06/08/2022, 10:06:35",1.26461118773037,"35","M","right",1,1,0,0,FALSE,"E_C_M_katorza.jpg P_P_M_zamir.jpg"
7847,"E_C_F_harLev.jpg","P_N_M_lapid.jpg","FALSE","pictures/stimuli/E","pictures/stimuli/P","F","M","3","5d1d8aaf32ab4a00013fadb7","06/08/2022, 10:06:35",-0.818707820958389,"35","M","right",1,1,0,0,FALSE,"E_C_F_harLev.jpg P_N_M_lapid.jpg"
3657,"E_C_M_shaharHasson.jpg","P_P_M_liberman.jpg","FALSE","pictures/stimuli/E","pictures/stimuli/P","M","M","6","5d1d8aaf32ab4a00013fadb7","06/08/2022, 10:06:35",1.26461118773037,"35","M","right",1,1,0,0,FALSE,"E_C_M_shaharHasson.jpg P_P_M_liberman.jpg"
3082,"E_H_F_yanai.jpg","P_P_M_smootrich.jpg","FALSE","pictures/stimuli/E","pictures/stimuli/P","F","M","6","5d1d8aaf32ab4a00013fadb7","06/08/2022, 10:06:35",1.26461118773037,"35","M","right",1,1,0,0,FALSE,"E_H_F_yanai.jpg P_P_M_smootrich.jpg"
5317,"E_M_M_Ivri.jpg","P_P_M_benet.jpg","FALSE","pictures/stimuli/E","pictures/stimuli/P","M","M","5","5d1d8aaf32ab4a00013fadb7","06/08/2022, 10:06:35",0.570171518167449,"35","M","right",1,1,0,0,FALSE,"E_M_M_Ivri.jpg P_P_M_benet.jpg"
2936,"E_C_M_shaharHasson.jpg","P_P_M_benet.jpg","FALSE","pictures/stimuli/E","pictures/stimuli/P","M","M","6","5d1d8aaf32ab4a00013fadb7","06/08/2022, 10:06:35",1.26461118773037,"35","M","right",1,1,0,0,FALSE,"E_C_M_shaharHasson.jpg P_P_M_benet.jpg"
6449,"E_M_M_tavori.jpg","P_P_F_shaked.jpg","FALSE","pictures/stimuli/E","pictures/stimuli/P","M","F","3","5d1d8aaf32ab4a00013fadb7","06/08/2022, 10:06:35",-0.818707820958389,"35","M","right",1,1,0,0,FALSE,"E_M_M_tavori.jpg P_P_F_shaked.jpg"
9256,"E_C_M_mushonov.jpg","P_N_F_yehimovitz.jpg","FALSE","pictures/stimuli/E","pictures/stimuli/P","M","F","4","5d1d8aaf32ab4a00013fadb7","06/08/2022, 10:06:35",-0.12426815139547,"35","M","right",1,1,0,0,FALSE,"E_C_M_mushonov.jpg P_N_F_yehimovitz.jpg"
3519,"P_P_M_benet.jpg","P_P_M_liberman.jpg","TRUE","pictures/stimuli/P","pictures/stimuli/P","M","M","6","5d1d8aaf32ab4a00013fadb7","06/08/2022, 10:06:35",1.26461118773037,"35","M","right",1,1,0,0,FALSE,"P_P_M_benet.jpg P_P_M_liberman.jpg"
3566,"E_C_F_shaniCo.jpg","P_N_M_lapid.jpg","FALSE","pictures/stimuli/E","pictures/stimuli/P","F","M","3","5d1d8aaf32ab4a00013fadb7","06/08/2022, 10:06:35",-0.818707820958389,"35","M","right",1,1,0,0,FALSE,"E_C_F_shaniCo.jpg P_N_M_lapid.jpg"
9200,"P_P_M_liberman.jpg","P_P_M_smootrich.jpg","TRUE","pictures/stimuli/P","pictures/stimuli/P","M","M","4","5d1d8aaf32ab4a00013fadb7","06/08/2022, 10:06:35",-0.12426815139547,"35","M","right",1,1,0,0,FALSE,"P_P_M_liberman.jpg P_P_M_smootrich.jpg"
7579,"E_C_M_alfi.jpg","E_C_M_katorza.jpg","TRUE","pictures/stimuli/E","pictures/stimuli/E","M","M","3","5d1d8aaf32ab4a00013fadb7","06/08/2022, 10:06:35",-0.818707820958389,"35","M","right",1,1,0,0,FALSE,"E_C_M_alfi.jpg E_C_M_katorza.jpg"
7169,"E_C_F_shaniCo.jpg","P_P_M_liberman.jpg","FALSE","pictures/stimuli/E","pictures/stimuli/P","F","M","6","5d1d8aaf32ab4a00013fadb7","06/08/2022, 10:06:35",1.26461118773037,"35","M","right",1,1,0,0,FALSE,"E_C_F_shaniCo.jpg P_P_M_liberman.jpg"
5028,"E_C_M_katorza.jpg","E_C_M_mushonov.jpg","TRUE","pictures/stimuli/E","pictures/stimuli/E","M","M","4","5d1d8aaf32ab4a00013fadb7","06/08/2022, 10:06:35",-0.12426815139547,"35","M","right",1,1,0,0,FALSE,"E_C_M_katorza.jpg E_C_M_mushonov.jpg"
4970,"E_C_M_alfi.jpg","E_C_F_harLev.jpg","TRUE","pictures/stimuli/E","pictures/stimuli/E","M","F","2","5d1d8aaf32ab4a00013fadb7","06/08/2022, 10:06:35",-1.51314749052131,"35","M","right",1,1,0,0,FALSE,"E_C_F_harLev.jpg E_C_M_alfi.jpg"
3548,"P_N_M_lapid.jpg","P_P_F_shaked.jpg","TRUE","pictures/stimuli/P","pictures/stimuli/P","M","F","3","5d1d8aaf32ab4a00013fadb7","06/08/2022, 10:06:35",-0.818707820958389,"35","M","right",1,1,0,0,FALSE,"P_N_M_lapid.jpg P_P_F_shaked.jpg"
4052,"E_C_M_shaharHasson.jpg","E_M_M_tavori.jpg","TRUE","pictures/stimuli/E","pictures/stimuli/E","M","M","5","5d1d8aaf32ab4a00013fadb7","06/08/2022, 10:06:35",0.570171518167449,"35","M","right",1,1,0,0,FALSE,"E_C_M_shaharHasson.jpg E_M_M_tavori.jpg"
5454,"E_M_F_rita.jpg","E_M_M_tavori.jpg","TRUE","pictures/stimuli/E","pictures/stimuli/E","F","M","2","5d1d8aaf32ab4a00013fadb7","06/08/2022, 10:06:35",-1.51314749052131,"35","M","right",1,1,0,0,FALSE,"E_M_F_rita.jpg E_M_M_tavori.jpg"
7203,"E_C_F_ornaBanai.jpg","P_P_F_shaked.jpg","FALSE","pictures/stimuli/E","pictures/stimuli/P","F","F","4","5d1d8aaf32ab4a00013fadb7","06/08/2022, 10:06:35",-0.12426815139547,"35","M","right",1,1,0,0,FALSE,"E_C_F_ornaBanai.jpg P_P_F_shaked.jpg"
3334,"E_C_M_mushonov.jpg","P_P_F_shaked.jpg","FALSE","pictures/stimuli/E","pictures/stimuli/P","M","F","3","5d1d8aaf32ab4a00013fadb7","06/08/2022, 10:06:35",-0.818707820958389,"35","M","right",1,1,0,0,FALSE,"E_C_M_mushonov.jpg P_P_F_shaked.jpg"
4047,"E_C_M_alfi.jpg","E_C_M_mushonov.jpg","TRUE","pictures/stimuli/E","pictures/stimuli/E","M","M","3","5d1d8aaf32ab4a00013fadb7","06/08/2022, 10:06:35",-0.818707820958389,"35","M","right",1,1,0,0,FALSE,"E_C_M_alfi.jpg E_C_M_mushonov.jpg"
5314,"P_P_M_benet.jpg","P_P_M_zamir.jpg","TRUE","pictures/stimuli/P","pictures/stimuli/P","M","M","5","5d1d8aaf32ab4a00013fadb7","06/08/2022, 10:06:35",0.570171518167449,"35","M","right",1,1,0,0,FALSE,"P_P_M_benet.jpg P_P_M_zamir.jpg"
3871,"E_M_F_rita.jpg","P_P_F_michaeliM.jpg","FALSE","pictures/stimuli/E","pictures/stimuli/P","F","F","6","5d1d8aaf32ab4a00013fadb7","06/08/2022, 10:06:35",1.26461118773037,"35","M","right",1,1,0,0,FALSE,"E_M_F_rita.jpg P_P_F_michaeliM.jpg"
6513,"E_C_M_alfi.jpg","E_H_F_yanai.jpg","TRUE","pictures/stimuli/E","pictures/stimuli/E","M","F","3","5d1d8aaf32ab4a00013fadb7","06/08/2022, 10:06:35",-0.818707820958389,"35","M","right",1,1,0,0,FALSE,"E_C_M_alfi.jpg E_H_F_yanai.jpg"
3958,"E_C_M_mushonov.jpg","E_M_M_tavori.jpg","TRUE","pictures/stimuli/E","pictures/stimuli/E","M","M","3","5d1d8aaf32ab4a00013fadb7","06/08/2022, 10:06:35",-0.818707820958389,"35","M","right",1,1,0,0,FALSE,"E_C_M_mushonov.jpg E_M_M_tavori.jpg"
2897,"E_C_M_katorza.jpg","P_P_M_liberman.jpg","FALSE","pictures/stimuli/E","pictures/stimuli/P","M","M","3","5d1d8aaf32ab4a00013fadb7","06/08/2022, 10:06:35",-0.818707820958389,"35","M","right",1,1,0,0,FALSE,"E_C_M_katorza.jpg P_P_M_liberman.jpg"
8851,"E_M_F_rita.jpg","E_H_F_yanai.jpg","TRUE","pictures/stimuli/E","pictures/stimuli/E","F","F","4","5d1d8aaf32ab4a00013fadb7","06/08/2022, 10:06:35",-0.12426815139547,"35","M","right",1,1,0,0,FALSE,"E_H_F_yanai.jpg E_M_F_rita.jpg"
4338,"E_M_M_tavori.jpg","E_H_F_yanai.jpg","TRUE","pictures/stimuli/E","pictures/stimuli/E","M","F","4","5d1d8aaf32ab4a00013fadb7","06/08/2022, 10:06:35",-0.12426815139547,"35","M","right",1,1,0,0,FALSE,"E_H_F_yanai.jpg E_M_M_tavori.jpg"
2933,"E_C_M_mushonov.jpg","E_C_F_shaniCo.jpg","TRUE","pictures/stimuli/E","pictures/stimuli/E","M","F","3","5d1d8aaf32ab4a00013fadb7","06/08/2022, 10:06:35",-0.818707820958389,"35","M","right",1,1,0,0,FALSE,"E_C_F_shaniCo.jpg E_C_M_mushonov.jpg"
3710,"E_C_M_shaharHasson.jpg","P_N_M_lapid.jpg","FALSE","pictures/stimuli/E","pictures/stimuli/P","M","M","5","5d1d8aaf32ab4a00013fadb7","06/08/2022, 10:06:35",0.570171518167449,"35","M","right",1,1,0,0,FALSE,"E_C_M_shaharHasson.jpg P_N_M_lapid.jpg"
3265,"P_P_F_shaked.jpg","P_P_M_smootrich.jpg","TRUE","pictures/stimuli/P","pictures/stimuli/P","F","M","6","5d1d8aaf32ab4a00013fadb7","06/08/2022, 10:06:35",1.26461118773037,"35","M","right",1,1,0,0,FALSE,"P_P_F_shaked.jpg P_P_M_smootrich.jpg"
