"RT","img_1","img_2","isSameProffesion","img1proffesion","img2proffesion","img1Gender","img2Gender","keyPressed","participant","time","normlised_keyPress","age","gender","handedness","isFamiliar_img1","isFamiliar_img2","vividness_img1","vividness_img2","reject_trial","pair"
9309,"P_P_M_peretz.jpg","P_P_F_shaked.jpg","TRUE","pictures/stimuli/Politics","pictures/stimuli/Politics","M","F","4","5c2baf76ee08ca0001599a95","08/14/2022, 09:39:37",0.118063783433892,"23","F","right",1,1,0,0,FALSE,"P_P_F_shaked.jpg P_P_M_peretz.jpg"
3878,"E_C_M_alfi.jpg","P_P_M_liberman.jpg","FALSE","pictures/stimuli/Entertainmant","pictures/stimuli/Politics","M","M","6","5c2baf76ee08ca0001599a95","08/14/2022, 09:39:37",1.52007121171136,"23","F","right",1,1,0,0,FALSE,"E_C_M_alfi.jpg P_P_M_liberman.jpg"
8950,"E_C_M_alfi.jpg","P_P_F_michaeliM.jpg","FALSE","pictures/stimuli/Entertainmant","pictures/stimuli/Politics","M","F","5","5c2baf76ee08ca0001599a95","08/14/2022, 09:39:37",0.819067497572628,"23","F","right",1,1,0,0,FALSE,"E_C_M_alfi.jpg P_P_F_michaeliM.jpg"
9287,"E_C_M_shaharHasson.jpg","E_M_M_tavori.jpg","TRUE","pictures/stimuli/Entertainmant","pictures/stimuli/Entertainmant","M","M","2","5c2baf76ee08ca0001599a95","08/14/2022, 09:39:37",-1.28394364484358,"23","F","right",1,1,0,0,FALSE,"E_C_M_shaharHasson.jpg E_M_M_tavori.jpg"
3223,"E_C_M_mushonov.jpg","E_C_M_shaharHasson.jpg","TRUE","pictures/stimuli/Entertainmant","pictures/stimuli/Entertainmant","M","M","3","5c2baf76ee08ca0001599a95","08/14/2022, 09:39:37",-0.582939930704843,"23","F","right",0,1,0,0,TRUE,"E_C_M_mushonov.jpg E_C_M_shaharHasson.jpg"
9989,"E_H_F_yanai.jpg","P_P_M_benet.jpg","FALSE","pictures/stimuli/Entertainmant","pictures/stimuli/Politics","F","M","5","5c2baf76ee08ca0001599a95","08/14/2022, 09:39:37",0.819067497572628,"23","F","right",1,1,0,0,FALSE,"E_H_F_yanai.jpg P_P_M_benet.jpg"
5820,"E_H_F_yanai.jpg","P_P_M_peretz.jpg","FALSE","pictures/stimuli/Entertainmant","pictures/stimuli/Politics","F","M","3","5c2baf76ee08ca0001599a95","08/14/2022, 09:39:37",-0.582939930704843,"23","F","right",1,1,0,0,FALSE,"E_H_F_yanai.jpg P_P_M_peretz.jpg"
6006,"E_C_M_mushonov.jpg","E_C_F_ornaBanai.jpg","TRUE","pictures/stimuli/Entertainmant","pictures/stimuli/Entertainmant","M","F","4","5c2baf76ee08ca0001599a95","08/14/2022, 09:39:37",0.118063783433892,"23","F","right",0,1,0,0,TRUE,"E_C_F_ornaBanai.jpg E_C_M_mushonov.jpg"
20458,"E_H_F_yanai.jpg","P_P_M_liberman.jpg","FALSE","pictures/stimuli/Entertainmant","pictures/stimuli/Politics","F","M","6","5c2baf76ee08ca0001599a95","08/14/2022, 09:39:37",1.52007121171136,"23","F","right",1,1,0,0,FALSE,"E_H_F_yanai.jpg P_P_M_liberman.jpg"
19488,"E_M_F_rita.jpg","P_N_F_yehimovitz.jpg","FALSE","pictures/stimuli/Entertainmant","pictures/stimuli/Politics","F","F","6","5c2baf76ee08ca0001599a95","08/14/2022, 09:39:37",1.52007121171136,"23","F","right",1,1,0,0,FALSE,"E_M_F_rita.jpg P_N_F_yehimovitz.jpg"
4028,"E_M_M_Ivri.jpg","P_P_M_benet.jpg","FALSE","pictures/stimuli/Entertainmant","pictures/stimuli/Politics","M","M","4","5c2baf76ee08ca0001599a95","08/14/2022, 09:39:37",0.118063783433892,"23","F","right",1,1,0,0,FALSE,"E_M_M_Ivri.jpg P_P_M_benet.jpg"
20220,"E_C_F_ornaBanai.jpg","E_C_F_shaniCo.jpg","TRUE","pictures/stimuli/Entertainmant","pictures/stimuli/Entertainmant","F","F","2","5c2baf76ee08ca0001599a95","08/14/2022, 09:39:37",-1.28394364484358,"23","F","right",1,1,0,0,FALSE,"E_C_F_ornaBanai.jpg E_C_F_shaniCo.jpg"
5171,"E_M_M_tavori.jpg","P_P_M_benet.jpg","FALSE","pictures/stimuli/Entertainmant","pictures/stimuli/Politics","M","M","4","5c2baf76ee08ca0001599a95","08/14/2022, 09:39:37",0.118063783433892,"23","F","right",1,1,0,0,FALSE,"E_M_M_tavori.jpg P_P_M_benet.jpg"
3196,"E_C_F_shaniCo.jpg","E_M_M_tavori.jpg","TRUE","pictures/stimuli/Entertainmant","pictures/stimuli/Entertainmant","F","M","2","5c2baf76ee08ca0001599a95","08/14/2022, 09:39:37",-1.28394364484358,"23","F","right",1,1,0,0,FALSE,"E_C_F_shaniCo.jpg E_M_M_tavori.jpg"
12478,"E_C_M_shaharHasson.jpg","P_P_M_peretz.jpg","FALSE","pictures/stimuli/Entertainmant","pictures/stimuli/Politics","M","M","6","5c2baf76ee08ca0001599a95","08/14/2022, 09:39:37",1.52007121171136,"23","F","right",1,1,0,0,FALSE,"E_C_M_shaharHasson.jpg P_P_M_peretz.jpg"
4967,"E_M_F_rita.jpg","P_N_M_lapid.jpg","FALSE","pictures/stimuli/Entertainmant","pictures/stimuli/Politics","F","M","4","5c2baf76ee08ca0001599a95","08/14/2022, 09:39:37",0.118063783433892,"23","F","right",1,1,0,0,FALSE,"E_M_F_rita.jpg P_N_M_lapid.jpg"
3019,"E_M_M_tavori.jpg","P_P_M_smootrich.jpg","FALSE","pictures/stimuli/Entertainmant","pictures/stimuli/Politics","M","M","6","5c2baf76ee08ca0001599a95","08/14/2022, 09:39:37",1.52007121171136,"23","F","right",1,1,0,0,FALSE,"E_M_M_tavori.jpg P_P_M_smootrich.jpg"
11409,"E_M_M_Ivri.jpg","E_C_M_mushonov.jpg","TRUE","pictures/stimuli/Entertainmant","pictures/stimuli/Entertainmant","M","M","2","5c2baf76ee08ca0001599a95","08/14/2022, 09:39:37",-1.28394364484358,"23","F","right",1,0,0,0,TRUE,"E_C_M_mushonov.jpg E_M_M_Ivri.jpg"
11910,"P_P_M_peretz.jpg","P_P_M_zamir.jpg","TRUE","pictures/stimuli/Politics","pictures/stimuli/Politics","M","M","2","5c2baf76ee08ca0001599a95","08/14/2022, 09:39:37",-1.28394364484358,"23","F","right",1,1,0,0,FALSE,"P_P_M_peretz.jpg P_P_M_zamir.jpg"
9410,"E_M_F_rita.jpg","P_P_F_shaked.jpg","FALSE","pictures/stimuli/Entertainmant","pictures/stimuli/Politics","F","F","5","5c2baf76ee08ca0001599a95","08/14/2022, 09:39:37",0.819067497572628,"23","F","right",1,1,0,0,FALSE,"E_M_F_rita.jpg P_P_F_shaked.jpg"
14169,"E_C_F_harLev.jpg","P_P_F_shaked.jpg","FALSE","pictures/stimuli/Entertainmant","pictures/stimuli/Politics","F","F","2","5c2baf76ee08ca0001599a95","08/14/2022, 09:39:37",-1.28394364484358,"23","F","right",0,1,0,0,TRUE,"E_C_F_harLev.jpg P_P_F_shaked.jpg"
12054,"E_C_M_katorza.jpg","E_M_M_tavori.jpg","TRUE","pictures/stimuli/Entertainmant","pictures/stimuli/Entertainmant","M","M","2","5c2baf76ee08ca0001599a95","08/14/2022, 09:39:37",-1.28394364484358,"23","F","right",1,1,0,0,FALSE,"E_C_M_katorza.jpg E_M_M_tavori.jpg"
5795,"E_C_F_ornaBanai.jpg","E_C_M_shaharHasson.jpg","TRUE","pictures/stimuli/Entertainmant","pictures/stimuli/Entertainmant","F","M","2","5c2baf76ee08ca0001599a95","08/14/2022, 09:39:37",-1.28394364484358,"23","F","right",1,1,0,0,FALSE,"E_C_F_ornaBanai.jpg E_C_M_shaharHasson.jpg"
3561,"E_C_M_shaharHasson.jpg","P_P_F_michaeliM.jpg","FALSE","pictures/stimuli/Entertainmant","pictures/stimuli/Politics","M","F","5","5c2baf76ee08ca0001599a95","08/14/2022, 09:39:37",0.819067497572628,"23","F","right",1,1,0,0,FALSE,"E_C_M_shaharHasson.jpg P_P_F_michaeliM.jpg"
10263,"E_M_M_tavori.jpg","E_H_F_yanai.jpg","TRUE","pictures/stimuli/Entertainmant","pictures/stimuli/Entertainmant","M","F","5","5c2baf76ee08ca0001599a95","08/14/2022, 09:39:37",0.819067497572628,"23","F","right",1,1,0,0,FALSE,"E_H_F_yanai.jpg E_M_M_tavori.jpg"
2180,"E_C_M_alfi.jpg","E_M_M_Ivri.jpg","TRUE","pictures/stimuli/Entertainmant","pictures/stimuli/Entertainmant","M","M","2","5c2baf76ee08ca0001599a95","08/14/2022, 09:39:37",-1.28394364484358,"23","F","right",1,1,0,0,FALSE,"E_C_M_alfi.jpg E_M_M_Ivri.jpg"
3496,"E_M_M_Ivri.jpg","E_M_M_tavori.jpg","TRUE","pictures/stimuli/Entertainmant","pictures/stimuli/Entertainmant","M","M","4","5c2baf76ee08ca0001599a95","08/14/2022, 09:39:37",0.118063783433892,"23","F","right",1,1,0,0,FALSE,"E_M_M_Ivri.jpg E_M_M_tavori.jpg"
4645,"E_C_F_harLev.jpg","P_N_F_yehimovitz.jpg","FALSE","pictures/stimuli/Entertainmant","pictures/stimuli/Politics","F","F","2","5c2baf76ee08ca0001599a95","08/14/2022, 09:39:37",-1.28394364484358,"23","F","right",0,1,0,0,TRUE,"E_C_F_harLev.jpg P_N_F_yehimovitz.jpg"
6268,"P_P_M_benet.jpg","P_P_M_zamir.jpg","TRUE","pictures/stimuli/Politics","pictures/stimuli/Politics","M","M","5","5c2baf76ee08ca0001599a95","08/14/2022, 09:39:37",0.819067497572628,"23","F","right",1,1,0,0,FALSE,"P_P_M_benet.jpg P_P_M_zamir.jpg"
5113,"E_M_M_Ivri.jpg","P_P_F_shaked.jpg","FALSE","pictures/stimuli/Entertainmant","pictures/stimuli/Politics","M","F","4","5c2baf76ee08ca0001599a95","08/14/2022, 09:39:37",0.118063783433892,"23","F","right",1,1,0,0,FALSE,"E_M_M_Ivri.jpg P_P_F_shaked.jpg"
4385,"E_C_M_katorza.jpg","E_M_F_rita.jpg","TRUE","pictures/stimuli/Entertainmant","pictures/stimuli/Entertainmant","M","F","3","5c2baf76ee08ca0001599a95","08/14/2022, 09:39:37",-0.582939930704843,"23","F","right",1,1,0,0,FALSE,"E_C_M_katorza.jpg E_M_F_rita.jpg"
3002,"E_M_M_Ivri.jpg","P_P_M_smootrich.jpg","FALSE","pictures/stimuli/Entertainmant","pictures/stimuli/Politics","M","M","6","5c2baf76ee08ca0001599a95","08/14/2022, 09:39:37",1.52007121171136,"23","F","right",1,1,0,0,FALSE,"E_M_M_Ivri.jpg P_P_M_smootrich.jpg"
3144,"E_C_M_shaharHasson.jpg","P_P_M_liberman.jpg","FALSE","pictures/stimuli/Entertainmant","pictures/stimuli/Politics","M","M","5","5c2baf76ee08ca0001599a95","08/14/2022, 09:39:37",0.819067497572628,"23","F","right",1,1,0,0,FALSE,"E_C_M_shaharHasson.jpg P_P_M_liberman.jpg"
11904,"E_C_F_harLev.jpg","E_C_M_shaharHasson.jpg","TRUE","pictures/stimuli/Entertainmant","pictures/stimuli/Entertainmant","F","M","3","5c2baf76ee08ca0001599a95","08/14/2022, 09:39:37",-0.582939930704843,"23","F","right",0,1,0,0,TRUE,"E_C_F_harLev.jpg E_C_M_shaharHasson.jpg"
4565,"P_P_M_benet.jpg","P_P_F_shaked.jpg","TRUE","pictures/stimuli/Politics","pictures/stimuli/Politics","M","F","5","5c2baf76ee08ca0001599a95","08/14/2022, 09:39:37",0.819067497572628,"23","F","right",1,1,0,0,FALSE,"P_P_F_shaked.jpg P_P_M_benet.jpg"
15818,"E_C_F_shaniCo.jpg","P_N_M_lapid.jpg","FALSE","pictures/stimuli/Entertainmant","pictures/stimuli/Politics","F","M","5","5c2baf76ee08ca0001599a95","08/14/2022, 09:39:37",0.819067497572628,"23","F","right",1,1,0,0,FALSE,"E_C_F_shaniCo.jpg P_N_M_lapid.jpg"
10761,"E_C_M_mushonov.jpg","E_M_F_rita.jpg","TRUE","pictures/stimuli/Entertainmant","pictures/stimuli/Entertainmant","M","F","3","5c2baf76ee08ca0001599a95","08/14/2022, 09:39:37",-0.582939930704843,"23","F","right",0,1,0,0,TRUE,"E_C_M_mushonov.jpg E_M_F_rita.jpg"
14546,"E_C_M_shaharHasson.jpg","E_H_F_yanai.jpg","TRUE","pictures/stimuli/Entertainmant","pictures/stimuli/Entertainmant","M","F","4","5c2baf76ee08ca0001599a95","08/14/2022, 09:39:37",0.118063783433892,"23","F","right",1,1,0,0,FALSE,"E_C_M_shaharHasson.jpg E_H_F_yanai.jpg"
3119,"E_C_F_harLev.jpg","P_P_M_liberman.jpg","FALSE","pictures/stimuli/Entertainmant","pictures/stimuli/Politics","F","M","5","5c2baf76ee08ca0001599a95","08/14/2022, 09:39:37",0.819067497572628,"23","F","right",0,1,0,0,TRUE,"E_C_F_harLev.jpg P_P_M_liberman.jpg"
3924,"E_M_F_rita.jpg","P_P_M_peretz.jpg","FALSE","pictures/stimuli/Entertainmant","pictures/stimuli/Politics","F","M","5","5c2baf76ee08ca0001599a95","08/14/2022, 09:39:37",0.819067497572628,"23","F","right",1,1,0,0,FALSE,"E_M_F_rita.jpg P_P_M_peretz.jpg"
5410,"E_M_F_rita.jpg","E_C_M_shaharHasson.jpg","TRUE","pictures/stimuli/Entertainmant","pictures/stimuli/Entertainmant","F","M","3","5c2baf76ee08ca0001599a95","08/14/2022, 09:39:37",-0.582939930704843,"23","F","right",1,1,0,0,FALSE,"E_C_M_shaharHasson.jpg E_M_F_rita.jpg"
2789,"E_M_M_Ivri.jpg","E_C_M_shaharHasson.jpg","TRUE","pictures/stimuli/Entertainmant","pictures/stimuli/Entertainmant","M","M","4","5c2baf76ee08ca0001599a95","08/14/2022, 09:39:37",0.118063783433892,"23","F","right",1,1,0,0,FALSE,"E_C_M_shaharHasson.jpg E_M_M_Ivri.jpg"
4972,"E_M_F_rita.jpg","P_P_M_benet.jpg","FALSE","pictures/stimuli/Entertainmant","pictures/stimuli/Politics","F","M","6","5c2baf76ee08ca0001599a95","08/14/2022, 09:39:37",1.52007121171136,"23","F","right",1,1,0,0,FALSE,"E_M_F_rita.jpg P_P_M_benet.jpg"
3806,"E_M_M_tavori.jpg","P_P_F_michaeliM.jpg","FALSE","pictures/stimuli/Entertainmant","pictures/stimuli/Politics","M","F","5","5c2baf76ee08ca0001599a95","08/14/2022, 09:39:37",0.819067497572628,"23","F","right",1,1,0,0,FALSE,"E_M_M_tavori.jpg P_P_F_michaeliM.jpg"
2671,"E_M_F_rita.jpg","P_P_M_smootrich.jpg","FALSE","pictures/stimuli/Entertainmant","pictures/stimuli/Politics","F","M","6","5c2baf76ee08ca0001599a95","08/14/2022, 09:39:37",1.52007121171136,"23","F","right",1,1,0,0,FALSE,"E_M_F_rita.jpg P_P_M_smootrich.jpg"
4080,"E_C_F_harLev.jpg","P_P_M_smootrich.jpg","FALSE","pictures/stimuli/Entertainmant","pictures/stimuli/Politics","F","M","5","5c2baf76ee08ca0001599a95","08/14/2022, 09:39:37",0.819067497572628,"23","F","right",0,1,0,0,TRUE,"E_C_F_harLev.jpg P_P_M_smootrich.jpg"
3193,"E_C_F_shaniCo.jpg","P_P_M_liberman.jpg","FALSE","pictures/stimuli/Entertainmant","pictures/stimuli/Politics","F","M","5","5c2baf76ee08ca0001599a95","08/14/2022, 09:39:37",0.819067497572628,"23","F","right",1,1,0,0,FALSE,"E_C_F_shaniCo.jpg P_P_M_liberman.jpg"
3165,"E_C_M_alfi.jpg","E_C_M_shaharHasson.jpg","TRUE","pictures/stimuli/Entertainmant","pictures/stimuli/Entertainmant","M","M","2","5c2baf76ee08ca0001599a95","08/14/2022, 09:39:37",-1.28394364484358,"23","F","right",1,1,0,0,FALSE,"E_C_M_alfi.jpg E_C_M_shaharHasson.jpg"
11108,"E_M_M_tavori.jpg","P_P_F_shaked.jpg","FALSE","pictures/stimuli/Entertainmant","pictures/stimuli/Politics","M","F","5","5c2baf76ee08ca0001599a95","08/14/2022, 09:39:37",0.819067497572628,"23","F","right",1,1,0,0,FALSE,"E_M_M_tavori.jpg P_P_F_shaked.jpg"
13575,"E_M_M_Ivri.jpg","E_C_F_shaniCo.jpg","TRUE","pictures/stimuli/Entertainmant","pictures/stimuli/Entertainmant","M","F","4","5c2baf76ee08ca0001599a95","08/14/2022, 09:39:37",0.118063783433892,"23","F","right",1,1,0,0,FALSE,"E_C_F_shaniCo.jpg E_M_M_Ivri.jpg"
9532,"E_C_F_harLev.jpg","E_M_F_rita.jpg","TRUE","pictures/stimuli/Entertainmant","pictures/stimuli/Entertainmant","F","F","2","5c2baf76ee08ca0001599a95","08/14/2022, 09:39:37",-1.28394364484358,"23","F","right",0,1,0,0,TRUE,"E_C_F_harLev.jpg E_M_F_rita.jpg"
6321,"E_C_M_mushonov.jpg","E_C_F_shaniCo.jpg","TRUE","pictures/stimuli/Entertainmant","pictures/stimuli/Entertainmant","M","F","2","5c2baf76ee08ca0001599a95","08/14/2022, 09:39:37",-1.28394364484358,"23","F","right",0,1,0,0,TRUE,"E_C_F_shaniCo.jpg E_C_M_mushonov.jpg"
3070,"E_C_M_katorza.jpg","E_C_M_mushonov.jpg","TRUE","pictures/stimuli/Entertainmant","pictures/stimuli/Entertainmant","M","M","3","5c2baf76ee08ca0001599a95","08/14/2022, 09:39:37",-0.582939930704843,"23","F","right",1,0,0,0,TRUE,"E_C_M_katorza.jpg E_C_M_mushonov.jpg"
5244,"P_P_M_peretz.jpg","P_N_F_yehimovitz.jpg","TRUE","pictures/stimuli/Politics","pictures/stimuli/Politics","M","F","3","5c2baf76ee08ca0001599a95","08/14/2022, 09:39:37",-0.582939930704843,"23","F","right",1,1,0,0,FALSE,"P_N_F_yehimovitz.jpg P_P_M_peretz.jpg"
20389,"E_C_M_katorza.jpg","P_P_M_zamir.jpg","FALSE","pictures/stimuli/Entertainmant","pictures/stimuli/Politics","M","M","5","5c2baf76ee08ca0001599a95","08/14/2022, 09:39:37",0.819067497572628,"23","F","right",1,1,0,0,FALSE,"E_C_M_katorza.jpg P_P_M_zamir.jpg"
4638,"E_C_M_katorza.jpg","E_C_F_shaniCo.jpg","TRUE","pictures/stimuli/Entertainmant","pictures/stimuli/Entertainmant","M","F","1","5c2baf76ee08ca0001599a95","08/14/2022, 09:39:37",-1.98494735898231,"23","F","right",1,1,0,0,FALSE,"E_C_F_shaniCo.jpg E_C_M_katorza.jpg"
4576,"E_C_F_ornaBanai.jpg","P_P_M_peretz.jpg","FALSE","pictures/stimuli/Entertainmant","pictures/stimuli/Politics","F","M","5","5c2baf76ee08ca0001599a95","08/14/2022, 09:39:37",0.819067497572628,"23","F","right",1,1,0,0,FALSE,"E_C_F_ornaBanai.jpg P_P_M_peretz.jpg"
2070,"E_M_M_tavori.jpg","P_P_M_peretz.jpg","FALSE","pictures/stimuli/Entertainmant","pictures/stimuli/Politics","M","M","5","5c2baf76ee08ca0001599a95","08/14/2022, 09:39:37",0.819067497572628,"23","F","right",1,1,0,0,FALSE,"E_M_M_tavori.jpg P_P_M_peretz.jpg"
3415,"E_C_M_mushonov.jpg","P_P_M_benet.jpg","FALSE","pictures/stimuli/Entertainmant","pictures/stimuli/Politics","M","M","3","5c2baf76ee08ca0001599a95","08/14/2022, 09:39:37",-0.582939930704843,"23","F","right",0,1,0,0,TRUE,"E_C_M_mushonov.jpg P_P_M_benet.jpg"
8218,"E_C_M_katorza.jpg","E_C_F_ornaBanai.jpg","TRUE","pictures/stimuli/Entertainmant","pictures/stimuli/Entertainmant","M","F","1","5c2baf76ee08ca0001599a95","08/14/2022, 09:39:37",-1.98494735898231,"23","F","right",1,1,0,0,FALSE,"E_C_F_ornaBanai.jpg E_C_M_katorza.jpg"
3236,"E_C_F_ornaBanai.jpg","P_P_F_shaked.jpg","FALSE","pictures/stimuli/Entertainmant","pictures/stimuli/Politics","F","F","5","5c2baf76ee08ca0001599a95","08/14/2022, 09:39:37",0.819067497572628,"23","F","right",1,1,0,0,FALSE,"E_C_F_ornaBanai.jpg P_P_F_shaked.jpg"
6320,"E_M_M_Ivri.jpg","P_P_M_zamir.jpg","FALSE","pictures/stimuli/Entertainmant","pictures/stimuli/Politics","M","M","5","5c2baf76ee08ca0001599a95","08/14/2022, 09:39:37",0.819067497572628,"23","F","right",1,1,0,0,FALSE,"E_M_M_Ivri.jpg P_P_M_zamir.jpg"
4153,"E_M_F_rita.jpg","E_M_M_tavori.jpg","TRUE","pictures/stimuli/Entertainmant","pictures/stimuli/Entertainmant","F","M","3","5c2baf76ee08ca0001599a95","08/14/2022, 09:39:37",-0.582939930704843,"23","F","right",1,1,0,0,FALSE,"E_M_F_rita.jpg E_M_M_tavori.jpg"
6197,"P_P_M_benet.jpg","P_P_F_michaeliM.jpg","TRUE","pictures/stimuli/Politics","pictures/stimuli/Politics","M","F","2","5c2baf76ee08ca0001599a95","08/14/2022, 09:39:37",-1.28394364484358,"23","F","right",1,1,0,0,FALSE,"P_P_F_michaeliM.jpg P_P_M_benet.jpg"
3523,"E_M_M_tavori.jpg","P_N_F_yehimovitz.jpg","FALSE","pictures/stimuli/Entertainmant","pictures/stimuli/Politics","M","F","5","5c2baf76ee08ca0001599a95","08/14/2022, 09:39:37",0.819067497572628,"23","F","right",1,1,0,0,FALSE,"E_M_M_tavori.jpg P_N_F_yehimovitz.jpg"
6320,"E_H_F_yanai.jpg","P_P_F_shaked.jpg","FALSE","pictures/stimuli/Entertainmant","pictures/stimuli/Politics","F","F","4","5c2baf76ee08ca0001599a95","08/14/2022, 09:39:37",0.118063783433892,"23","F","right",1,1,0,0,FALSE,"E_H_F_yanai.jpg P_P_F_shaked.jpg"
4711,"P_P_M_benet.jpg","P_P_M_smootrich.jpg","TRUE","pictures/stimuli/Politics","pictures/stimuli/Politics","M","M","2","5c2baf76ee08ca0001599a95","08/14/2022, 09:39:37",-1.28394364484358,"23","F","right",1,1,0,0,FALSE,"P_P_M_benet.jpg P_P_M_smootrich.jpg"
4644,"E_M_M_Ivri.jpg","E_C_F_ornaBanai.jpg","TRUE","pictures/stimuli/Entertainmant","pictures/stimuli/Entertainmant","M","F","3","5c2baf76ee08ca0001599a95","08/14/2022, 09:39:37",-0.582939930704843,"23","F","right",1,1,0,0,FALSE,"E_C_F_ornaBanai.jpg E_M_M_Ivri.jpg"
7566,"E_C_M_alfi.jpg","E_C_M_katorza.jpg","TRUE","pictures/stimuli/Entertainmant","pictures/stimuli/Entertainmant","M","M","3","5c2baf76ee08ca0001599a95","08/14/2022, 09:39:37",-0.582939930704843,"23","F","right",1,1,0,0,FALSE,"E_C_M_alfi.jpg E_C_M_katorza.jpg"
3363,"E_C_F_shaniCo.jpg","P_P_F_michaeliM.jpg","FALSE","pictures/stimuli/Entertainmant","pictures/stimuli/Politics","F","F","6","5c2baf76ee08ca0001599a95","08/14/2022, 09:39:37",1.52007121171136,"23","F","right",1,1,0,0,FALSE,"E_C_F_shaniCo.jpg P_P_F_michaeliM.jpg"
5365,"E_C_M_katorza.jpg","P_P_M_peretz.jpg","FALSE","pictures/stimuli/Entertainmant","pictures/stimuli/Politics","M","M","5","5c2baf76ee08ca0001599a95","08/14/2022, 09:39:37",0.819067497572628,"23","F","right",1,1,0,0,FALSE,"E_C_M_katorza.jpg P_P_M_peretz.jpg"
18580,"E_C_M_mushonov.jpg","E_H_F_yanai.jpg","TRUE","pictures/stimuli/Entertainmant","pictures/stimuli/Entertainmant","M","F","5","5c2baf76ee08ca0001599a95","08/14/2022, 09:39:37",0.819067497572628,"23","F","right",0,1,0,0,TRUE,"E_C_M_mushonov.jpg E_H_F_yanai.jpg"
9816,"E_C_M_katorza.jpg","E_C_M_shaharHasson.jpg","TRUE","pictures/stimuli/Entertainmant","pictures/stimuli/Entertainmant","M","M","2","5c2baf76ee08ca0001599a95","08/14/2022, 09:39:37",-1.28394364484358,"23","F","right",1,1,0,0,FALSE,"E_C_M_katorza.jpg E_C_M_shaharHasson.jpg"
3880,"E_H_F_yanai.jpg","P_P_M_zamir.jpg","FALSE","pictures/stimuli/Entertainmant","pictures/stimuli/Politics","F","M","3","5c2baf76ee08ca0001599a95","08/14/2022, 09:39:37",-0.582939930704843,"23","F","right",1,1,0,0,FALSE,"E_H_F_yanai.jpg P_P_M_zamir.jpg"
3469,"E_C_F_ornaBanai.jpg","E_M_F_rita.jpg","TRUE","pictures/stimuli/Entertainmant","pictures/stimuli/Entertainmant","F","F","4","5c2baf76ee08ca0001599a95","08/14/2022, 09:39:37",0.118063783433892,"23","F","right",1,1,0,0,FALSE,"E_C_F_ornaBanai.jpg E_M_F_rita.jpg"
4106,"E_H_F_yanai.jpg","P_N_F_yehimovitz.jpg","FALSE","pictures/stimuli/Entertainmant","pictures/stimuli/Politics","F","F","3","5c2baf76ee08ca0001599a95","08/14/2022, 09:39:37",-0.582939930704843,"23","F","right",1,1,0,0,FALSE,"E_H_F_yanai.jpg P_N_F_yehimovitz.jpg"
5163,"P_P_M_benet.jpg","P_P_M_peretz.jpg","TRUE","pictures/stimuli/Politics","pictures/stimuli/Politics","M","M","3","5c2baf76ee08ca0001599a95","08/14/2022, 09:39:37",-0.582939930704843,"23","F","right",1,1,0,0,FALSE,"P_P_M_benet.jpg P_P_M_peretz.jpg"
6930,"E_C_F_harLev.jpg","E_C_M_mushonov.jpg","TRUE","pictures/stimuli/Entertainmant","pictures/stimuli/Entertainmant","F","M","3","5c2baf76ee08ca0001599a95","08/14/2022, 09:39:37",-0.582939930704843,"23","F","right",0,0,0,0,TRUE,"E_C_F_harLev.jpg E_C_M_mushonov.jpg"
6187,"P_P_M_peretz.jpg","P_P_M_smootrich.jpg","TRUE","pictures/stimuli/Politics","pictures/stimuli/Politics","M","M","2","5c2baf76ee08ca0001599a95","08/14/2022, 09:39:37",-1.28394364484358,"23","F","right",1,1,0,0,FALSE,"P_P_M_peretz.jpg P_P_M_smootrich.jpg"
6747,"P_P_F_michaeliM.jpg","P_N_F_yehimovitz.jpg","TRUE","pictures/stimuli/Politics","pictures/stimuli/Politics","F","F","2","5c2baf76ee08ca0001599a95","08/14/2022, 09:39:37",-1.28394364484358,"23","F","right",1,1,0,0,FALSE,"P_N_F_yehimovitz.jpg P_P_F_michaeliM.jpg"
7752,"E_C_F_harLev.jpg","P_P_M_peretz.jpg","FALSE","pictures/stimuli/Entertainmant","pictures/stimuli/Politics","F","M","2","5c2baf76ee08ca0001599a95","08/14/2022, 09:39:37",-1.28394364484358,"23","F","right",0,1,0,0,TRUE,"E_C_F_harLev.jpg P_P_M_peretz.jpg"
5443,"P_N_M_lapid.jpg","P_P_M_smootrich.jpg","TRUE","pictures/stimuli/Politics","pictures/stimuli/Politics","M","M","2","5c2baf76ee08ca0001599a95","08/14/2022, 09:39:37",-1.28394364484358,"23","F","right",1,1,0,0,FALSE,"P_N_M_lapid.jpg P_P_M_smootrich.jpg"
2493,"E_M_M_Ivri.jpg","E_M_F_rita.jpg","TRUE","pictures/stimuli/Entertainmant","pictures/stimuli/Entertainmant","M","F","2","5c2baf76ee08ca0001599a95","08/14/2022, 09:39:37",-1.28394364484358,"23","F","right",1,1,0,0,FALSE,"E_M_F_rita.jpg E_M_M_Ivri.jpg"
4121,"E_C_F_ornaBanai.jpg","P_P_F_michaeliM.jpg","FALSE","pictures/stimuli/Entertainmant","pictures/stimuli/Politics","F","F","3","5c2baf76ee08ca0001599a95","08/14/2022, 09:39:37",-0.582939930704843,"23","F","right",1,1,0,0,FALSE,"E_C_F_ornaBanai.jpg P_P_F_michaeliM.jpg"
9552,"E_C_M_mushonov.jpg","P_P_F_shaked.jpg","FALSE","pictures/stimuli/Entertainmant","pictures/stimuli/Politics","M","F","4","5c2baf76ee08ca0001599a95","08/14/2022, 09:39:37",0.118063783433892,"23","F","right",0,1,0,0,TRUE,"E_C_M_mushonov.jpg P_P_F_shaked.jpg"
13235,"P_P_F_michaeliM.jpg","P_P_M_zamir.jpg","TRUE","pictures/stimuli/Politics","pictures/stimuli/Politics","F","M","2","5c2baf76ee08ca0001599a95","08/14/2022, 09:39:37",-1.28394364484358,"23","F","right",1,1,0,0,FALSE,"P_P_F_michaeliM.jpg P_P_M_zamir.jpg"
3602,"E_C_M_alfi.jpg","P_P_M_smootrich.jpg","FALSE","pictures/stimuli/Entertainmant","pictures/stimuli/Politics","M","M","6","5c2baf76ee08ca0001599a95","08/14/2022, 09:39:37",1.52007121171136,"23","F","right",1,1,0,0,FALSE,"E_C_M_alfi.jpg P_P_M_smootrich.jpg"
11382,"E_C_M_mushonov.jpg","P_N_F_yehimovitz.jpg","FALSE","pictures/stimuli/Entertainmant","pictures/stimuli/Politics","M","F","3","5c2baf76ee08ca0001599a95","08/14/2022, 09:39:37",-0.582939930704843,"23","F","right",0,1,0,0,TRUE,"E_C_M_mushonov.jpg P_N_F_yehimovitz.jpg"
3793,"E_H_F_yanai.jpg","P_P_F_michaeliM.jpg","FALSE","pictures/stimuli/Entertainmant","pictures/stimuli/Politics","F","F","3","5c2baf76ee08ca0001599a95","08/14/2022, 09:39:37",-0.582939930704843,"23","F","right",1,1,0,0,FALSE,"E_H_F_yanai.jpg P_P_F_michaeliM.jpg"
4961,"P_N_M_lapid.jpg","P_P_M_liberman.jpg","TRUE","pictures/stimuli/Politics","pictures/stimuli/Politics","M","M","2","5c2baf76ee08ca0001599a95","08/14/2022, 09:39:37",-1.28394364484358,"23","F","right",1,1,0,0,FALSE,"P_N_M_lapid.jpg P_P_M_liberman.jpg"
4709,"E_C_M_alfi.jpg","E_H_F_yanai.jpg","TRUE","pictures/stimuli/Entertainmant","pictures/stimuli/Entertainmant","M","F","5","5c2baf76ee08ca0001599a95","08/14/2022, 09:39:37",0.819067497572628,"23","F","right",1,1,0,0,FALSE,"E_C_M_alfi.jpg E_H_F_yanai.jpg"
2879,"E_C_M_shaharHasson.jpg","P_N_M_lapid.jpg","FALSE","pictures/stimuli/Entertainmant","pictures/stimuli/Politics","M","M","5","5c2baf76ee08ca0001599a95","08/14/2022, 09:39:37",0.819067497572628,"23","F","right",1,1,0,0,FALSE,"E_C_M_shaharHasson.jpg P_N_M_lapid.jpg"
8398,"E_C_M_alfi.jpg","P_P_F_shaked.jpg","FALSE","pictures/stimuli/Entertainmant","pictures/stimuli/Politics","M","F","5","5c2baf76ee08ca0001599a95","08/14/2022, 09:39:37",0.819067497572628,"23","F","right",1,1,0,0,FALSE,"E_C_M_alfi.jpg P_P_F_shaked.jpg"
3522,"E_C_M_alfi.jpg","P_P_M_benet.jpg","FALSE","pictures/stimuli/Entertainmant","pictures/stimuli/Politics","M","M","5","5c2baf76ee08ca0001599a95","08/14/2022, 09:39:37",0.819067497572628,"23","F","right",1,1,0,0,FALSE,"E_C_M_alfi.jpg P_P_M_benet.jpg"
6501,"E_C_F_ornaBanai.jpg","P_N_F_yehimovitz.jpg","FALSE","pictures/stimuli/Entertainmant","pictures/stimuli/Politics","F","F","2","5c2baf76ee08ca0001599a95","08/14/2022, 09:39:37",-1.28394364484358,"23","F","right",1,1,0,0,FALSE,"E_C_F_ornaBanai.jpg P_N_F_yehimovitz.jpg"
3155,"E_C_M_shaharHasson.jpg","P_P_M_smootrich.jpg","FALSE","pictures/stimuli/Entertainmant","pictures/stimuli/Politics","M","M","6","5c2baf76ee08ca0001599a95","08/14/2022, 09:39:37",1.52007121171136,"23","F","right",1,1,0,0,FALSE,"E_C_M_shaharHasson.jpg P_P_M_smootrich.jpg"
4338,"E_C_F_harLev.jpg","P_P_F_michaeliM.jpg","FALSE","pictures/stimuli/Entertainmant","pictures/stimuli/Politics","F","F","3","5c2baf76ee08ca0001599a95","08/14/2022, 09:39:37",-0.582939930704843,"23","F","right",0,1,0,0,TRUE,"E_C_F_harLev.jpg P_P_F_michaeliM.jpg"
3880,"E_C_M_mushonov.jpg","P_P_M_smootrich.jpg","FALSE","pictures/stimuli/Entertainmant","pictures/stimuli/Politics","M","M","5","5c2baf76ee08ca0001599a95","08/14/2022, 09:39:37",0.819067497572628,"23","F","right",0,1,0,0,TRUE,"E_C_M_mushonov.jpg P_P_M_smootrich.jpg"
9524,"E_C_M_mushonov.jpg","E_M_M_tavori.jpg","TRUE","pictures/stimuli/Entertainmant","pictures/stimuli/Entertainmant","M","M","3","5c2baf76ee08ca0001599a95","08/14/2022, 09:39:37",-0.582939930704843,"23","F","right",0,1,0,0,TRUE,"E_C_M_mushonov.jpg E_M_M_tavori.jpg"
5035,"E_C_F_ornaBanai.jpg","P_P_M_smootrich.jpg","FALSE","pictures/stimuli/Entertainmant","pictures/stimuli/Politics","F","M","4","5c2baf76ee08ca0001599a95","08/14/2022, 09:39:37",0.118063783433892,"23","F","right",1,1,0,0,FALSE,"E_C_F_ornaBanai.jpg P_P_M_smootrich.jpg"
2635,"E_C_F_harLev.jpg","E_M_M_tavori.jpg","TRUE","pictures/stimuli/Entertainmant","pictures/stimuli/Entertainmant","F","M","5","5c2baf76ee08ca0001599a95","08/14/2022, 09:39:37",0.819067497572628,"23","F","right",0,1,0,0,TRUE,"E_C_F_harLev.jpg E_M_M_tavori.jpg"
2776,"P_N_M_lapid.jpg","P_P_F_michaeliM.jpg","TRUE","pictures/stimuli/Politics","pictures/stimuli/Politics","M","F","2","5c2baf76ee08ca0001599a95","08/14/2022, 09:39:37",-1.28394364484358,"23","F","right",1,1,0,0,FALSE,"P_N_M_lapid.jpg P_P_F_michaeliM.jpg"
2850,"E_C_F_shaniCo.jpg","P_P_F_shaked.jpg","FALSE","pictures/stimuli/Entertainmant","pictures/stimuli/Politics","F","F","5","5c2baf76ee08ca0001599a95","08/14/2022, 09:39:37",0.819067497572628,"23","F","right",1,1,0,0,FALSE,"E_C_F_shaniCo.jpg P_P_F_shaked.jpg"
8630,"E_C_M_alfi.jpg","E_C_F_ornaBanai.jpg","TRUE","pictures/stimuli/Entertainmant","pictures/stimuli/Entertainmant","M","F","1","5c2baf76ee08ca0001599a95","08/14/2022, 09:39:37",-1.98494735898231,"23","F","right",1,1,0,0,FALSE,"E_C_F_ornaBanai.jpg E_C_M_alfi.jpg"
4120,"E_C_F_ornaBanai.jpg","P_N_M_lapid.jpg","FALSE","pictures/stimuli/Entertainmant","pictures/stimuli/Politics","F","M","5","5c2baf76ee08ca0001599a95","08/14/2022, 09:39:37",0.819067497572628,"23","F","right",1,1,0,0,FALSE,"E_C_F_ornaBanai.jpg P_N_M_lapid.jpg"
8807,"E_M_M_Ivri.jpg","E_H_F_yanai.jpg","TRUE","pictures/stimuli/Entertainmant","pictures/stimuli/Entertainmant","M","F","4","5c2baf76ee08ca0001599a95","08/14/2022, 09:39:37",0.118063783433892,"23","F","right",1,1,0,0,FALSE,"E_H_F_yanai.jpg E_M_M_Ivri.jpg"
4845,"P_P_M_benet.jpg","P_N_F_yehimovitz.jpg","TRUE","pictures/stimuli/Politics","pictures/stimuli/Politics","M","F","2","5c2baf76ee08ca0001599a95","08/14/2022, 09:39:37",-1.28394364484358,"23","F","right",1,1,0,0,FALSE,"P_N_F_yehimovitz.jpg P_P_M_benet.jpg"
4074,"E_C_M_mushonov.jpg","P_P_M_liberman.jpg","FALSE","pictures/stimuli/Entertainmant","pictures/stimuli/Politics","M","M","5","5c2baf76ee08ca0001599a95","08/14/2022, 09:39:37",0.819067497572628,"23","F","right",0,1,0,0,TRUE,"E_C_M_mushonov.jpg P_P_M_liberman.jpg"
6862,"E_M_F_rita.jpg","P_P_M_zamir.jpg","FALSE","pictures/stimuli/Entertainmant","pictures/stimuli/Politics","F","M","5","5c2baf76ee08ca0001599a95","08/14/2022, 09:39:37",0.819067497572628,"23","F","right",1,1,0,0,FALSE,"E_M_F_rita.jpg P_P_M_zamir.jpg"
3432,"E_M_M_Ivri.jpg","P_P_M_liberman.jpg","FALSE","pictures/stimuli/Entertainmant","pictures/stimuli/Politics","M","M","6","5c2baf76ee08ca0001599a95","08/14/2022, 09:39:37",1.52007121171136,"23","F","right",1,1,0,0,FALSE,"E_M_M_Ivri.jpg P_P_M_liberman.jpg"
3150,"E_M_M_tavori.jpg","P_N_M_lapid.jpg","FALSE","pictures/stimuli/Entertainmant","pictures/stimuli/Politics","M","M","5","5c2baf76ee08ca0001599a95","08/14/2022, 09:39:37",0.819067497572628,"23","F","right",1,1,0,0,FALSE,"E_M_M_tavori.jpg P_N_M_lapid.jpg"
3551,"E_C_F_ornaBanai.jpg","E_M_M_tavori.jpg","TRUE","pictures/stimuli/Entertainmant","pictures/stimuli/Entertainmant","F","M","2","5c2baf76ee08ca0001599a95","08/14/2022, 09:39:37",-1.28394364484358,"23","F","right",1,1,0,0,FALSE,"E_C_F_ornaBanai.jpg E_M_M_tavori.jpg"
2451,"P_P_M_benet.jpg","P_P_M_liberman.jpg","TRUE","pictures/stimuli/Politics","pictures/stimuli/Politics","M","M","2","5c2baf76ee08ca0001599a95","08/14/2022, 09:39:37",-1.28394364484358,"23","F","right",1,1,0,0,FALSE,"P_P_M_benet.jpg P_P_M_liberman.jpg"
4592,"P_P_M_smootrich.jpg","P_P_M_zamir.jpg","TRUE","pictures/stimuli/Politics","pictures/stimuli/Politics","M","M","3","5c2baf76ee08ca0001599a95","08/14/2022, 09:39:37",-0.582939930704843,"23","F","right",1,1,0,0,FALSE,"P_P_M_smootrich.jpg P_P_M_zamir.jpg"
7785,"E_C_F_harLev.jpg","P_P_M_benet.jpg","FALSE","pictures/stimuli/Entertainmant","pictures/stimuli/Politics","F","M","3","5c2baf76ee08ca0001599a95","08/14/2022, 09:39:37",-0.582939930704843,"23","F","right",0,1,0,0,TRUE,"E_C_F_harLev.jpg P_P_M_benet.jpg"
4737,"E_C_M_alfi.jpg","P_P_M_zamir.jpg","FALSE","pictures/stimuli/Entertainmant","pictures/stimuli/Politics","M","M","6","5c2baf76ee08ca0001599a95","08/14/2022, 09:39:37",1.52007121171136,"23","F","right",1,1,0,0,FALSE,"E_C_M_alfi.jpg P_P_M_zamir.jpg"
2762,"E_M_F_rita.jpg","P_P_M_liberman.jpg","FALSE","pictures/stimuli/Entertainmant","pictures/stimuli/Politics","F","M","6","5c2baf76ee08ca0001599a95","08/14/2022, 09:39:37",1.52007121171136,"23","F","right",1,1,0,0,FALSE,"E_M_F_rita.jpg P_P_M_liberman.jpg"
5671,"E_C_F_harLev.jpg","E_C_F_ornaBanai.jpg","TRUE","pictures/stimuli/Entertainmant","pictures/stimuli/Entertainmant","F","F","5","5c2baf76ee08ca0001599a95","08/14/2022, 09:39:37",0.819067497572628,"23","F","right",0,1,0,0,TRUE,"E_C_F_harLev.jpg E_C_F_ornaBanai.jpg"
2161,"P_P_M_benet.jpg","P_N_M_lapid.jpg","TRUE","pictures/stimuli/Politics","pictures/stimuli/Politics","M","M","2","5c2baf76ee08ca0001599a95","08/14/2022, 09:39:37",-1.28394364484358,"23","F","right",1,1,0,0,FALSE,"P_N_M_lapid.jpg P_P_M_benet.jpg"
2261,"E_C_F_shaniCo.jpg","P_P_M_benet.jpg","FALSE","pictures/stimuli/Entertainmant","pictures/stimuli/Politics","F","M","5","5c2baf76ee08ca0001599a95","08/14/2022, 09:39:37",0.819067497572628,"23","F","right",1,1,0,0,FALSE,"E_C_F_shaniCo.jpg P_P_M_benet.jpg"
2250,"E_C_M_shaharHasson.jpg","E_C_F_shaniCo.jpg","TRUE","pictures/stimuli/Entertainmant","pictures/stimuli/Entertainmant","M","F","2","5c2baf76ee08ca0001599a95","08/14/2022, 09:39:37",-1.28394364484358,"23","F","right",1,1,0,0,FALSE,"E_C_F_shaniCo.jpg E_C_M_shaharHasson.jpg"
3678,"E_C_F_harLev.jpg","P_P_M_zamir.jpg","FALSE","pictures/stimuli/Entertainmant","pictures/stimuli/Politics","F","M","5","5c2baf76ee08ca0001599a95","08/14/2022, 09:39:37",0.819067497572628,"23","F","right",0,1,0,0,TRUE,"E_C_F_harLev.jpg P_P_M_zamir.jpg"
3471,"E_M_F_rita.jpg","E_H_F_yanai.jpg","TRUE","pictures/stimuli/Entertainmant","pictures/stimuli/Entertainmant","F","F","4","5c2baf76ee08ca0001599a95","08/14/2022, 09:39:37",0.118063783433892,"23","F","right",1,1,0,0,FALSE,"E_H_F_yanai.jpg E_M_F_rita.jpg"
3515,"P_P_F_shaked.jpg","P_P_M_smootrich.jpg","TRUE","pictures/stimuli/Politics","pictures/stimuli/Politics","F","M","3","5c2baf76ee08ca0001599a95","08/14/2022, 09:39:37",-0.582939930704843,"23","F","right",1,1,0,0,FALSE,"P_P_F_shaked.jpg P_P_M_smootrich.jpg"
5023,"E_C_M_katorza.jpg","P_P_F_shaked.jpg","FALSE","pictures/stimuli/Entertainmant","pictures/stimuli/Politics","M","F","5","5c2baf76ee08ca0001599a95","08/14/2022, 09:39:37",0.819067497572628,"23","F","right",1,1,0,0,FALSE,"E_C_M_katorza.jpg P_P_F_shaked.jpg"
3752,"E_C_F_shaniCo.jpg","E_H_F_yanai.jpg","TRUE","pictures/stimuli/Entertainmant","pictures/stimuli/Entertainmant","F","F","4","5c2baf76ee08ca0001599a95","08/14/2022, 09:39:37",0.118063783433892,"23","F","right",1,1,0,0,FALSE,"E_C_F_shaniCo.jpg E_H_F_yanai.jpg"
5827,"E_C_F_harLev.jpg","E_H_F_yanai.jpg","TRUE","pictures/stimuli/Entertainmant","pictures/stimuli/Entertainmant","F","F","5","5c2baf76ee08ca0001599a95","08/14/2022, 09:39:37",0.819067497572628,"23","F","right",0,1,0,0,TRUE,"E_C_F_harLev.jpg E_H_F_yanai.jpg"
2909,"P_P_M_liberman.jpg","P_P_F_shaked.jpg","TRUE","pictures/stimuli/Politics","pictures/stimuli/Politics","M","F","2","5c2baf76ee08ca0001599a95","08/14/2022, 09:39:37",-1.28394364484358,"23","F","right",1,1,0,0,FALSE,"P_P_F_shaked.jpg P_P_M_liberman.jpg"
6259,"E_H_F_yanai.jpg","P_N_M_lapid.jpg","FALSE","pictures/stimuli/Entertainmant","pictures/stimuli/Politics","F","M","5","5c2baf76ee08ca0001599a95","08/14/2022, 09:39:37",0.819067497572628,"23","F","right",1,1,0,0,FALSE,"E_H_F_yanai.jpg P_N_M_lapid.jpg"
3361,"E_C_F_harLev.jpg","E_M_M_Ivri.jpg","TRUE","pictures/stimuli/Entertainmant","pictures/stimuli/Entertainmant","F","M","3","5c2baf76ee08ca0001599a95","08/14/2022, 09:39:37",-0.582939930704843,"23","F","right",0,1,0,0,TRUE,"E_C_F_harLev.jpg E_M_M_Ivri.jpg"
9756,"E_C_M_katorza.jpg","P_P_M_smootrich.jpg","FALSE","pictures/stimuli/Entertainmant","pictures/stimuli/Politics","M","M","6","5c2baf76ee08ca0001599a95","08/14/2022, 09:39:37",1.52007121171136,"23","F","right",1,1,0,0,FALSE,"E_C_M_katorza.jpg P_P_M_smootrich.jpg"
2619,"P_N_M_lapid.jpg","P_N_F_yehimovitz.jpg","TRUE","pictures/stimuli/Politics","pictures/stimuli/Politics","M","F","2","5c2baf76ee08ca0001599a95","08/14/2022, 09:39:37",-1.28394364484358,"23","F","right",1,1,0,0,FALSE,"P_N_F_yehimovitz.jpg P_N_M_lapid.jpg"
4869,"P_P_M_liberman.jpg","P_P_M_peretz.jpg","TRUE","pictures/stimuli/Politics","pictures/stimuli/Politics","M","M","2","5c2baf76ee08ca0001599a95","08/14/2022, 09:39:37",-1.28394364484358,"23","F","right",1,1,0,0,FALSE,"P_P_M_liberman.jpg P_P_M_peretz.jpg"
3928,"E_C_M_katorza.jpg","P_N_F_yehimovitz.jpg","FALSE","pictures/stimuli/Entertainmant","pictures/stimuli/Politics","M","F","5","5c2baf76ee08ca0001599a95","08/14/2022, 09:39:37",0.819067497572628,"23","F","right",1,1,0,0,FALSE,"E_C_M_katorza.jpg P_N_F_yehimovitz.jpg"
4067,"P_P_F_shaked.jpg","P_N_F_yehimovitz.jpg","TRUE","pictures/stimuli/Politics","pictures/stimuli/Politics","F","F","2","5c2baf76ee08ca0001599a95","08/14/2022, 09:39:37",-1.28394364484358,"23","F","right",1,1,0,0,FALSE,"P_N_F_yehimovitz.jpg P_P_F_shaked.jpg"
2974,"E_C_M_katorza.jpg","P_P_M_benet.jpg","FALSE","pictures/stimuli/Entertainmant","pictures/stimuli/Politics","M","M","6","5c2baf76ee08ca0001599a95","08/14/2022, 09:39:37",1.52007121171136,"23","F","right",1,1,0,0,FALSE,"E_C_M_katorza.jpg P_P_M_benet.jpg"
4713,"E_C_M_katorza.jpg","P_P_F_michaeliM.jpg","FALSE","pictures/stimuli/Entertainmant","pictures/stimuli/Politics","M","F","6","5c2baf76ee08ca0001599a95","08/14/2022, 09:39:37",1.52007121171136,"23","F","right",1,1,0,0,FALSE,"E_C_M_katorza.jpg P_P_F_michaeliM.jpg"
10226,"E_C_M_mushonov.jpg","P_N_M_lapid.jpg","FALSE","pictures/stimuli/Entertainmant","pictures/stimuli/Politics","M","M","3","5c2baf76ee08ca0001599a95","08/14/2022, 09:39:37",-0.582939930704843,"23","F","right",0,1,0,0,TRUE,"E_C_M_mushonov.jpg P_N_M_lapid.jpg"
2755,"E_H_F_yanai.jpg","P_P_M_smootrich.jpg","FALSE","pictures/stimuli/Entertainmant","pictures/stimuli/Politics","F","M","5","5c2baf76ee08ca0001599a95","08/14/2022, 09:39:37",0.819067497572628,"23","F","right",1,1,0,0,FALSE,"E_H_F_yanai.jpg P_P_M_smootrich.jpg"
7413,"P_P_M_smootrich.jpg","P_N_F_yehimovitz.jpg","TRUE","pictures/stimuli/Politics","pictures/stimuli/Politics","M","F","3","5c2baf76ee08ca0001599a95","08/14/2022, 09:39:37",-0.582939930704843,"23","F","right",1,1,0,0,FALSE,"P_N_F_yehimovitz.jpg P_P_M_smootrich.jpg"
2482,"E_C_M_alfi.jpg","E_M_F_rita.jpg","TRUE","pictures/stimuli/Entertainmant","pictures/stimuli/Entertainmant","M","F","3","5c2baf76ee08ca0001599a95","08/14/2022, 09:39:37",-0.582939930704843,"23","F","right",1,1,0,0,FALSE,"E_C_M_alfi.jpg E_M_F_rita.jpg"
4670,"E_C_M_mushonov.jpg","P_P_M_zamir.jpg","FALSE","pictures/stimuli/Entertainmant","pictures/stimuli/Politics","M","M","4","5c2baf76ee08ca0001599a95","08/14/2022, 09:39:37",0.118063783433892,"23","F","right",0,1,0,0,TRUE,"E_C_M_mushonov.jpg P_P_M_zamir.jpg"
5900,"E_C_F_harLev.jpg","E_C_M_katorza.jpg","TRUE","pictures/stimuli/Entertainmant","pictures/stimuli/Entertainmant","F","M","4","5c2baf76ee08ca0001599a95","08/14/2022, 09:39:37",0.118063783433892,"23","F","right",0,1,0,0,TRUE,"E_C_F_harLev.jpg E_C_M_katorza.jpg"
4194,"P_P_F_michaeliM.jpg","P_P_F_shaked.jpg","TRUE","pictures/stimuli/Politics","pictures/stimuli/Politics","F","F","2","5c2baf76ee08ca0001599a95","08/14/2022, 09:39:37",-1.28394364484358,"23","F","right",1,1,0,0,FALSE,"P_P_F_michaeliM.jpg P_P_F_shaked.jpg"
2748,"E_C_M_katorza.jpg","P_N_M_lapid.jpg","FALSE","pictures/stimuli/Entertainmant","pictures/stimuli/Politics","M","M","5","5c2baf76ee08ca0001599a95","08/14/2022, 09:39:37",0.819067497572628,"23","F","right",1,1,0,0,FALSE,"E_C_M_katorza.jpg P_N_M_lapid.jpg"
2572,"E_M_M_Ivri.jpg","P_N_M_lapid.jpg","FALSE","pictures/stimuli/Entertainmant","pictures/stimuli/Politics","M","M","5","5c2baf76ee08ca0001599a95","08/14/2022, 09:39:37",0.819067497572628,"23","F","right",1,1,0,0,FALSE,"E_M_M_Ivri.jpg P_N_M_lapid.jpg"
3262,"P_P_M_liberman.jpg","P_P_M_zamir.jpg","TRUE","pictures/stimuli/Politics","pictures/stimuli/Politics","M","M","5","5c2baf76ee08ca0001599a95","08/14/2022, 09:39:37",0.819067497572628,"23","F","right",1,1,0,0,FALSE,"P_P_M_liberman.jpg P_P_M_zamir.jpg"
2744,"E_C_F_ornaBanai.jpg","P_P_M_zamir.jpg","FALSE","pictures/stimuli/Entertainmant","pictures/stimuli/Politics","F","M","3","5c2baf76ee08ca0001599a95","08/14/2022, 09:39:37",-0.582939930704843,"23","F","right",1,1,0,0,FALSE,"E_C_F_ornaBanai.jpg P_P_M_zamir.jpg"
3512,"P_N_F_yehimovitz.jpg","P_P_M_zamir.jpg","TRUE","pictures/stimuli/Politics","pictures/stimuli/Politics","F","M","5","5c2baf76ee08ca0001599a95","08/14/2022, 09:39:37",0.819067497572628,"23","F","right",1,1,0,0,FALSE,"P_N_F_yehimovitz.jpg P_P_M_zamir.jpg"
3688,"E_C_M_mushonov.jpg","P_P_F_michaeliM.jpg","FALSE","pictures/stimuli/Entertainmant","pictures/stimuli/Politics","M","F","3","5c2baf76ee08ca0001599a95","08/14/2022, 09:39:37",-0.582939930704843,"23","F","right",0,1,0,0,TRUE,"E_C_M_mushonov.jpg P_P_F_michaeliM.jpg"
6814,"E_C_M_katorza.jpg","P_P_M_liberman.jpg","FALSE","pictures/stimuli/Entertainmant","pictures/stimuli/Politics","M","M","5","5c2baf76ee08ca0001599a95","08/14/2022, 09:39:37",0.819067497572628,"23","F","right",1,1,0,0,FALSE,"E_C_M_katorza.jpg P_P_M_liberman.jpg"
4632,"E_C_M_shaharHasson.jpg","P_P_F_shaked.jpg","FALSE","pictures/stimuli/Entertainmant","pictures/stimuli/Politics","M","F","2","5c2baf76ee08ca0001599a95","08/14/2022, 09:39:37",-1.28394364484358,"23","F","right",1,1,0,0,FALSE,"E_C_M_shaharHasson.jpg P_P_F_shaked.jpg"
12313,"E_M_M_tavori.jpg","P_P_M_liberman.jpg","FALSE","pictures/stimuli/Entertainmant","pictures/stimuli/Politics","M","M","5","5c2baf76ee08ca0001599a95","08/14/2022, 09:39:37",0.819067497572628,"23","F","right",1,1,0,0,FALSE,"E_M_M_tavori.jpg P_P_M_liberman.jpg"
2798,"E_C_M_alfi.jpg","P_P_M_peretz.jpg","FALSE","pictures/stimuli/Entertainmant","pictures/stimuli/Politics","M","M","5","5c2baf76ee08ca0001599a95","08/14/2022, 09:39:37",0.819067497572628,"23","F","right",1,1,0,0,FALSE,"E_C_M_alfi.jpg P_P_M_peretz.jpg"
6172,"P_P_F_shaked.jpg","P_P_M_zamir.jpg","TRUE","pictures/stimuli/Politics","pictures/stimuli/Politics","F","M","4","5c2baf76ee08ca0001599a95","08/14/2022, 09:39:37",0.118063783433892,"23","F","right",1,1,0,0,FALSE,"P_P_F_shaked.jpg P_P_M_zamir.jpg"
5544,"E_C_M_alfi.jpg","P_N_M_lapid.jpg","FALSE","pictures/stimuli/Entertainmant","pictures/stimuli/Politics","M","M","5","5c2baf76ee08ca0001599a95","08/14/2022, 09:39:37",0.819067497572628,"23","F","right",1,1,0,0,FALSE,"E_C_M_alfi.jpg P_N_M_lapid.jpg"
11988,"P_N_M_lapid.jpg","P_P_F_shaked.jpg","TRUE","pictures/stimuli/Politics","pictures/stimuli/Politics","M","F","2","5c2baf76ee08ca0001599a95","08/14/2022, 09:39:37",-1.28394364484358,"23","F","right",1,1,0,0,FALSE,"P_N_M_lapid.jpg P_P_F_shaked.jpg"
7152,"E_C_M_shaharHasson.jpg","P_P_M_benet.jpg","FALSE","pictures/stimuli/Entertainmant","pictures/stimuli/Politics","M","M","6","5c2baf76ee08ca0001599a95","08/14/2022, 09:39:37",1.52007121171136,"23","F","right",1,1,0,0,FALSE,"E_C_M_shaharHasson.jpg P_P_M_benet.jpg"
3840,"P_P_M_liberman.jpg","P_P_M_smootrich.jpg","TRUE","pictures/stimuli/Politics","pictures/stimuli/Politics","M","M","1","5c2baf76ee08ca0001599a95","08/14/2022, 09:39:37",-1.98494735898231,"23","F","right",1,1,0,0,FALSE,"P_P_M_liberman.jpg P_P_M_smootrich.jpg"
2614,"E_C_F_harLev.jpg","E_C_F_shaniCo.jpg","TRUE","pictures/stimuli/Entertainmant","pictures/stimuli/Entertainmant","F","F","4","5c2baf76ee08ca0001599a95","08/14/2022, 09:39:37",0.118063783433892,"23","F","right",0,1,0,0,TRUE,"E_C_F_harLev.jpg E_C_F_shaniCo.jpg"
11383,"E_C_M_alfi.jpg","E_C_M_mushonov.jpg","TRUE","pictures/stimuli/Entertainmant","pictures/stimuli/Entertainmant","M","M","3","5c2baf76ee08ca0001599a95","08/14/2022, 09:39:37",-0.582939930704843,"23","F","right",1,0,0,0,TRUE,"E_C_M_alfi.jpg E_C_M_mushonov.jpg"
3493,"E_C_F_ornaBanai.jpg","P_P_M_benet.jpg","FALSE","pictures/stimuli/Entertainmant","pictures/stimuli/Politics","F","M","5","5c2baf76ee08ca0001599a95","08/14/2022, 09:39:37",0.819067497572628,"23","F","right",1,1,0,0,FALSE,"E_C_F_ornaBanai.jpg P_P_M_benet.jpg"
15034,"E_C_M_shaharHasson.jpg","P_N_F_yehimovitz.jpg","FALSE","pictures/stimuli/Entertainmant","pictures/stimuli/Politics","M","F","5","5c2baf76ee08ca0001599a95","08/14/2022, 09:39:37",0.819067497572628,"23","F","right",1,1,0,0,FALSE,"E_C_M_shaharHasson.jpg P_N_F_yehimovitz.jpg"
4817,"P_P_F_michaeliM.jpg","P_P_M_smootrich.jpg","TRUE","pictures/stimuli/Politics","pictures/stimuli/Politics","F","M","2","5c2baf76ee08ca0001599a95","08/14/2022, 09:39:37",-1.28394364484358,"23","F","right",1,1,0,0,FALSE,"P_P_F_michaeliM.jpg P_P_M_smootrich.jpg"
3981,"P_N_M_lapid.jpg","P_P_M_zamir.jpg","TRUE","pictures/stimuli/Politics","pictures/stimuli/Politics","M","M","5","5c2baf76ee08ca0001599a95","08/14/2022, 09:39:37",0.819067497572628,"23","F","right",1,1,0,0,FALSE,"P_N_M_lapid.jpg P_P_M_zamir.jpg"
3957,"E_C_F_shaniCo.jpg","P_P_M_zamir.jpg","FALSE","pictures/stimuli/Entertainmant","pictures/stimuli/Politics","F","M","5","5c2baf76ee08ca0001599a95","08/14/2022, 09:39:37",0.819067497572628,"23","F","right",1,1,0,0,FALSE,"E_C_F_shaniCo.jpg P_P_M_zamir.jpg"
6795,"E_C_M_alfi.jpg","E_C_F_harLev.jpg","TRUE","pictures/stimuli/Entertainmant","pictures/stimuli/Entertainmant","M","F","4","5c2baf76ee08ca0001599a95","08/14/2022, 09:39:37",0.118063783433892,"23","F","right",1,0,0,0,TRUE,"E_C_F_harLev.jpg E_C_M_alfi.jpg"
2379,"E_M_F_rita.jpg","E_C_F_shaniCo.jpg","TRUE","pictures/stimuli/Entertainmant","pictures/stimuli/Entertainmant","F","F","3","5c2baf76ee08ca0001599a95","08/14/2022, 09:39:37",-0.582939930704843,"23","F","right",1,1,0,0,FALSE,"E_C_F_shaniCo.jpg E_M_F_rita.jpg"
3403,"E_C_F_shaniCo.jpg","P_P_M_smootrich.jpg","FALSE","pictures/stimuli/Entertainmant","pictures/stimuli/Politics","F","M","6","5c2baf76ee08ca0001599a95","08/14/2022, 09:39:37",1.52007121171136,"23","F","right",1,1,0,0,FALSE,"E_C_F_shaniCo.jpg P_P_M_smootrich.jpg"
2425,"E_M_M_Ivri.jpg","P_N_F_yehimovitz.jpg","FALSE","pictures/stimuli/Entertainmant","pictures/stimuli/Politics","M","F","5","5c2baf76ee08ca0001599a95","08/14/2022, 09:39:37",0.819067497572628,"23","F","right",1,1,0,0,FALSE,"E_M_M_Ivri.jpg P_N_F_yehimovitz.jpg"
4425,"E_M_M_Ivri.jpg","P_P_M_peretz.jpg","FALSE","pictures/stimuli/Entertainmant","pictures/stimuli/Politics","M","M","5","5c2baf76ee08ca0001599a95","08/14/2022, 09:39:37",0.819067497572628,"23","F","right",1,1,0,0,FALSE,"E_M_M_Ivri.jpg P_P_M_peretz.jpg"
2399,"E_C_F_shaniCo.jpg","P_P_M_peretz.jpg","FALSE","pictures/stimuli/Entertainmant","pictures/stimuli/Politics","F","M","6","5c2baf76ee08ca0001599a95","08/14/2022, 09:39:37",1.52007121171136,"23","F","right",1,1,0,0,FALSE,"E_C_F_shaniCo.jpg P_P_M_peretz.jpg"
2075,"E_M_M_Ivri.jpg","P_P_F_michaeliM.jpg","FALSE","pictures/stimuli/Entertainmant","pictures/stimuli/Politics","M","F","5","5c2baf76ee08ca0001599a95","08/14/2022, 09:39:37",0.819067497572628,"23","F","right",1,1,0,0,FALSE,"E_M_M_Ivri.jpg P_P_F_michaeliM.jpg"
2841,"E_C_F_ornaBanai.jpg","P_P_M_liberman.jpg","FALSE","pictures/stimuli/Entertainmant","pictures/stimuli/Politics","F","M","5","5c2baf76ee08ca0001599a95","08/14/2022, 09:39:37",0.819067497572628,"23","F","right",1,1,0,0,FALSE,"E_C_F_ornaBanai.jpg P_P_M_liberman.jpg"
3928,"E_C_M_alfi.jpg","P_N_F_yehimovitz.jpg","FALSE","pictures/stimuli/Entertainmant","pictures/stimuli/Politics","M","F","5","5c2baf76ee08ca0001599a95","08/14/2022, 09:39:37",0.819067497572628,"23","F","right",1,1,0,0,FALSE,"E_C_M_alfi.jpg P_N_F_yehimovitz.jpg"
5205,"E_C_M_shaharHasson.jpg","P_P_M_zamir.jpg","FALSE","pictures/stimuli/Entertainmant","pictures/stimuli/Politics","M","M","4","5c2baf76ee08ca0001599a95","08/14/2022, 09:39:37",0.118063783433892,"23","F","right",1,1,0,0,FALSE,"E_C_M_shaharHasson.jpg P_P_M_zamir.jpg"
4297,"E_C_M_alfi.jpg","E_C_F_shaniCo.jpg","TRUE","pictures/stimuli/Entertainmant","pictures/stimuli/Entertainmant","M","F","2","5c2baf76ee08ca0001599a95","08/14/2022, 09:39:37",-1.28394364484358,"23","F","right",1,1,0,0,FALSE,"E_C_F_shaniCo.jpg E_C_M_alfi.jpg"
2268,"E_M_F_rita.jpg","P_P_F_michaeliM.jpg","FALSE","pictures/stimuli/Entertainmant","pictures/stimuli/Politics","F","F","4","5c2baf76ee08ca0001599a95","08/14/2022, 09:39:37",0.118063783433892,"23","F","right",1,1,0,0,FALSE,"E_M_F_rita.jpg P_P_F_michaeliM.jpg"
10538,"E_M_M_tavori.jpg","P_P_M_zamir.jpg","FALSE","pictures/stimuli/Entertainmant","pictures/stimuli/Politics","M","M","4","5c2baf76ee08ca0001599a95","08/14/2022, 09:39:37",0.118063783433892,"23","F","right",1,1,0,0,FALSE,"E_M_M_tavori.jpg P_P_M_zamir.jpg"
2131,"P_P_F_michaeliM.jpg","P_P_M_peretz.jpg","TRUE","pictures/stimuli/Politics","pictures/stimuli/Politics","F","M","2","5c2baf76ee08ca0001599a95","08/14/2022, 09:39:37",-1.28394364484358,"23","F","right",1,1,0,0,FALSE,"P_P_F_michaeliM.jpg P_P_M_peretz.jpg"
7081,"E_M_M_Ivri.jpg","E_C_M_katorza.jpg","TRUE","pictures/stimuli/Entertainmant","pictures/stimuli/Entertainmant","M","M","3","5c2baf76ee08ca0001599a95","08/14/2022, 09:39:37",-0.582939930704843,"23","F","right",1,1,0,0,FALSE,"E_C_M_katorza.jpg E_M_M_Ivri.jpg"
8938,"E_C_M_mushonov.jpg","P_P_M_peretz.jpg","FALSE","pictures/stimuli/Entertainmant","pictures/stimuli/Politics","M","M","5","5c2baf76ee08ca0001599a95","08/14/2022, 09:39:37",0.819067497572628,"23","F","right",0,1,0,0,TRUE,"E_C_M_mushonov.jpg P_P_M_peretz.jpg"
2902,"E_C_F_shaniCo.jpg","P_N_F_yehimovitz.jpg","FALSE","pictures/stimuli/Entertainmant","pictures/stimuli/Politics","F","F","6","5c2baf76ee08ca0001599a95","08/14/2022, 09:39:37",1.52007121171136,"23","F","right",1,1,0,0,FALSE,"E_C_F_shaniCo.jpg P_N_F_yehimovitz.jpg"
5467,"P_P_M_liberman.jpg","P_N_F_yehimovitz.jpg","TRUE","pictures/stimuli/Politics","pictures/stimuli/Politics","M","F","2","5c2baf76ee08ca0001599a95","08/14/2022, 09:39:37",-1.28394364484358,"23","F","right",1,1,0,0,FALSE,"P_N_F_yehimovitz.jpg P_P_M_liberman.jpg"
4893,"P_N_M_lapid.jpg","P_P_M_peretz.jpg","TRUE","pictures/stimuli/Politics","pictures/stimuli/Politics","M","M","2","5c2baf76ee08ca0001599a95","08/14/2022, 09:39:37",-1.28394364484358,"23","F","right",1,1,0,0,FALSE,"P_N_M_lapid.jpg P_P_M_peretz.jpg"
4005,"E_C_F_ornaBanai.jpg","E_H_F_yanai.jpg","TRUE","pictures/stimuli/Entertainmant","pictures/stimuli/Entertainmant","F","F","3","5c2baf76ee08ca0001599a95","08/14/2022, 09:39:37",-0.582939930704843,"23","F","right",1,1,0,0,FALSE,"E_C_F_ornaBanai.jpg E_H_F_yanai.jpg"
5215,"E_C_M_katorza.jpg","E_H_F_yanai.jpg","TRUE","pictures/stimuli/Entertainmant","pictures/stimuli/Entertainmant","M","F","4","5c2baf76ee08ca0001599a95","08/14/2022, 09:39:37",0.118063783433892,"23","F","right",1,1,0,0,FALSE,"E_C_M_katorza.jpg E_H_F_yanai.jpg"
4855,"P_P_M_liberman.jpg","P_P_F_michaeliM.jpg","TRUE","pictures/stimuli/Politics","pictures/stimuli/Politics","M","F","2","5c2baf76ee08ca0001599a95","08/14/2022, 09:39:37",-1.28394364484358,"23","F","right",1,1,0,0,FALSE,"P_P_F_michaeliM.jpg P_P_M_liberman.jpg"
3288,"E_C_M_alfi.jpg","E_M_M_tavori.jpg","TRUE","pictures/stimuli/Entertainmant","pictures/stimuli/Entertainmant","M","M","2","5c2baf76ee08ca0001599a95","08/14/2022, 09:39:37",-1.28394364484358,"23","F","right",1,1,0,0,FALSE,"E_C_M_alfi.jpg E_M_M_tavori.jpg"
3435,"E_C_F_harLev.jpg","P_N_M_lapid.jpg","FALSE","pictures/stimuli/Entertainmant","pictures/stimuli/Politics","F","M","4","5c2baf76ee08ca0001599a95","08/14/2022, 09:39:37",0.118063783433892,"23","F","right",0,1,0,0,TRUE,"E_C_F_harLev.jpg P_N_M_lapid.jpg"
15616,"E_H_F_yanai.jpg","P_N_F_yehimovitz.jpg","FALSE","pictures/stimuli/Entertainmant","pictures/stimuli/Politics","F","F","4","5cf770915fd5830001d5a1a6","08/14/2022, 11:47:23",0.32966239156391,"36","M","right",1,1,0,0,FALSE,"E_H_F_yanai.jpg P_N_F_yehimovitz.jpg"
5256,"E_C_F_harLev.jpg","E_C_F_ornaBanai.jpg","TRUE","pictures/stimuli/Entertainmant","pictures/stimuli/Entertainmant","F","F","2","5cf770915fd5830001d5a1a6","08/14/2022, 11:47:23",-1.23623396836466,"36","M","right",1,1,0,0,FALSE,"E_C_F_harLev.jpg E_C_F_ornaBanai.jpg"
3347,"E_M_F_rita.jpg","P_P_M_smootrich.jpg","FALSE","pictures/stimuli/Entertainmant","pictures/stimuli/Politics","F","M","5","5cf770915fd5830001d5a1a6","08/14/2022, 11:47:23",1.1126105715282,"36","M","right",1,1,0,0,FALSE,"E_M_F_rita.jpg P_P_M_smootrich.jpg"
3447,"P_P_F_michaeliM.jpg","P_P_M_smootrich.jpg","TRUE","pictures/stimuli/Politics","pictures/stimuli/Politics","F","M","4","5cf770915fd5830001d5a1a6","08/14/2022, 11:47:23",0.32966239156391,"36","M","right",1,1,0,0,FALSE,"P_P_F_michaeliM.jpg P_P_M_smootrich.jpg"
3832,"E_C_F_shaniCo.jpg","P_P_M_peretz.jpg","FALSE","pictures/stimuli/Entertainmant","pictures/stimuli/Politics","F","M","6","5cf770915fd5830001d5a1a6","08/14/2022, 11:47:23",1.89555875149248,"36","M","right",1,1,0,0,FALSE,"E_C_F_shaniCo.jpg P_P_M_peretz.jpg"
4275,"E_M_M_tavori.jpg","P_P_M_zamir.jpg","FALSE","pictures/stimuli/Entertainmant","pictures/stimuli/Politics","M","M","3","5cf770915fd5830001d5a1a6","08/14/2022, 11:47:23",-0.453285788400376,"36","M","right",1,0,0,0,TRUE,"E_M_M_tavori.jpg P_P_M_zamir.jpg"
3783,"E_C_M_alfi.jpg","E_C_F_ornaBanai.jpg","TRUE","pictures/stimuli/Entertainmant","pictures/stimuli/Entertainmant","M","F","1","5cf770915fd5830001d5a1a6","08/14/2022, 11:47:23",-2.01918214832895,"36","M","right",1,1,0,0,FALSE,"E_C_F_ornaBanai.jpg E_C_M_alfi.jpg"
4549,"E_C_M_katorza.jpg","E_C_M_shaharHasson.jpg","TRUE","pictures/stimuli/Entertainmant","pictures/stimuli/Entertainmant","M","M","3","5cf770915fd5830001d5a1a6","08/14/2022, 11:47:23",-0.453285788400376,"36","M","right",1,1,0,0,FALSE,"E_C_M_katorza.jpg E_C_M_shaharHasson.jpg"
2296,"E_C_M_shaharHasson.jpg","P_P_M_zamir.jpg","FALSE","pictures/stimuli/Entertainmant","pictures/stimuli/Politics","M","M","3","5cf770915fd5830001d5a1a6","08/14/2022, 11:47:23",-0.453285788400376,"36","M","right",1,0,0,0,TRUE,"E_C_M_shaharHasson.jpg P_P_M_zamir.jpg"
4942,"E_C_M_mushonov.jpg","E_C_F_shaniCo.jpg","TRUE","pictures/stimuli/Entertainmant","pictures/stimuli/Entertainmant","M","F","2","5cf770915fd5830001d5a1a6","08/14/2022, 11:47:23",-1.23623396836466,"36","M","right",1,1,0,0,FALSE,"E_C_F_shaniCo.jpg E_C_M_mushonov.jpg"
3002,"E_C_F_harLev.jpg","P_P_M_peretz.jpg","FALSE","pictures/stimuli/Entertainmant","pictures/stimuli/Politics","F","M","6","5cf770915fd5830001d5a1a6","08/14/2022, 11:47:23",1.89555875149248,"36","M","right",1,1,0,0,FALSE,"E_C_F_harLev.jpg P_P_M_peretz.jpg"
3837,"E_C_M_mushonov.jpg","P_P_M_peretz.jpg","FALSE","pictures/stimuli/Entertainmant","pictures/stimuli/Politics","M","M","6","5cf770915fd5830001d5a1a6","08/14/2022, 11:47:23",1.89555875149248,"36","M","right",1,1,0,0,FALSE,"E_C_M_mushonov.jpg P_P_M_peretz.jpg"
2145,"E_C_M_alfi.jpg","E_C_M_mushonov.jpg","TRUE","pictures/stimuli/Entertainmant","pictures/stimuli/Entertainmant","M","M","2","5cf770915fd5830001d5a1a6","08/14/2022, 11:47:23",-1.23623396836466,"36","M","right",1,1,0,0,FALSE,"E_C_M_alfi.jpg E_C_M_mushonov.jpg"
2739,"E_H_F_yanai.jpg","P_P_M_liberman.jpg","FALSE","pictures/stimuli/Entertainmant","pictures/stimuli/Politics","F","M","6","5cf770915fd5830001d5a1a6","08/14/2022, 11:47:23",1.89555875149248,"36","M","right",1,1,0,0,FALSE,"E_H_F_yanai.jpg P_P_M_liberman.jpg"
3894,"E_M_M_Ivri.jpg","P_P_F_shaked.jpg","FALSE","pictures/stimuli/Entertainmant","pictures/stimuli/Politics","M","F","5","5cf770915fd5830001d5a1a6","08/14/2022, 11:47:23",1.1126105715282,"36","M","right",1,1,0,0,FALSE,"E_M_M_Ivri.jpg P_P_F_shaked.jpg"
2458,"E_M_F_rita.jpg","P_P_F_shaked.jpg","FALSE","pictures/stimuli/Entertainmant","pictures/stimuli/Politics","F","F","4","5cf770915fd5830001d5a1a6","08/14/2022, 11:47:23",0.32966239156391,"36","M","right",1,1,0,0,FALSE,"E_M_F_rita.jpg P_P_F_shaked.jpg"
3150,"E_C_M_mushonov.jpg","E_H_F_yanai.jpg","TRUE","pictures/stimuli/Entertainmant","pictures/stimuli/Entertainmant","M","F","4","5cf770915fd5830001d5a1a6","08/14/2022, 11:47:23",0.32966239156391,"36","M","right",1,1,0,0,FALSE,"E_C_M_mushonov.jpg E_H_F_yanai.jpg"
2829,"E_M_M_Ivri.jpg","E_H_F_yanai.jpg","TRUE","pictures/stimuli/Entertainmant","pictures/stimuli/Entertainmant","M","F","3","5cf770915fd5830001d5a1a6","08/14/2022, 11:47:23",-0.453285788400376,"36","M","right",1,1,0,0,FALSE,"E_H_F_yanai.jpg E_M_M_Ivri.jpg"
3502,"E_C_M_katorza.jpg","P_P_F_shaked.jpg","FALSE","pictures/stimuli/Entertainmant","pictures/stimuli/Politics","M","F","5","5cf770915fd5830001d5a1a6","08/14/2022, 11:47:23",1.1126105715282,"36","M","right",1,1,0,0,FALSE,"E_C_M_katorza.jpg P_P_F_shaked.jpg"
3375,"E_C_M_alfi.jpg","E_C_F_harLev.jpg","TRUE","pictures/stimuli/Entertainmant","pictures/stimuli/Entertainmant","M","F","2","5cf770915fd5830001d5a1a6","08/14/2022, 11:47:23",-1.23623396836466,"36","M","right",1,1,0,0,FALSE,"E_C_F_harLev.jpg E_C_M_alfi.jpg"
2777,"E_C_M_alfi.jpg","E_C_M_katorza.jpg","TRUE","pictures/stimuli/Entertainmant","pictures/stimuli/Entertainmant","M","M","3","5cf770915fd5830001d5a1a6","08/14/2022, 11:47:23",-0.453285788400376,"36","M","right",1,1,0,0,FALSE,"E_C_M_alfi.jpg E_C_M_katorza.jpg"
3640,"E_C_F_harLev.jpg","P_P_F_michaeliM.jpg","FALSE","pictures/stimuli/Entertainmant","pictures/stimuli/Politics","F","F","5","5cf770915fd5830001d5a1a6","08/14/2022, 11:47:23",1.1126105715282,"36","M","right",1,1,0,0,FALSE,"E_C_F_harLev.jpg P_P_F_michaeliM.jpg"
2889,"E_C_M_katorza.jpg","E_H_F_yanai.jpg","TRUE","pictures/stimuli/Entertainmant","pictures/stimuli/Entertainmant","M","F","5","5cf770915fd5830001d5a1a6","08/14/2022, 11:47:23",1.1126105715282,"36","M","right",1,1,0,0,FALSE,"E_C_M_katorza.jpg E_H_F_yanai.jpg"
2527,"E_C_F_harLev.jpg","P_N_M_lapid.jpg","FALSE","pictures/stimuli/Entertainmant","pictures/stimuli/Politics","F","M","4","5cf770915fd5830001d5a1a6","08/14/2022, 11:47:23",0.32966239156391,"36","M","right",1,1,0,0,FALSE,"E_C_F_harLev.jpg P_N_M_lapid.jpg"
2740,"P_P_M_liberman.jpg","P_P_F_michaeliM.jpg","TRUE","pictures/stimuli/Politics","pictures/stimuli/Politics","M","F","3","5cf770915fd5830001d5a1a6","08/14/2022, 11:47:23",-0.453285788400376,"36","M","right",1,1,0,0,FALSE,"P_P_F_michaeliM.jpg P_P_M_liberman.jpg"
4421,"E_C_F_harLev.jpg","E_C_M_mushonov.jpg","TRUE","pictures/stimuli/Entertainmant","pictures/stimuli/Entertainmant","F","M","2","5cf770915fd5830001d5a1a6","08/14/2022, 11:47:23",-1.23623396836466,"36","M","right",1,1,0,0,FALSE,"E_C_F_harLev.jpg E_C_M_mushonov.jpg"
7586,"E_C_M_katorza.jpg","P_N_F_yehimovitz.jpg","FALSE","pictures/stimuli/Entertainmant","pictures/stimuli/Politics","M","F","5","5cf770915fd5830001d5a1a6","08/14/2022, 11:47:23",1.1126105715282,"36","M","right",1,1,0,0,FALSE,"E_C_M_katorza.jpg P_N_F_yehimovitz.jpg"
2407,"E_M_M_Ivri.jpg","E_C_M_shaharHasson.jpg","TRUE","pictures/stimuli/Entertainmant","pictures/stimuli/Entertainmant","M","M","4","5cf770915fd5830001d5a1a6","08/14/2022, 11:47:23",0.32966239156391,"36","M","right",1,1,0,0,FALSE,"E_C_M_shaharHasson.jpg E_M_M_Ivri.jpg"
2429,"E_C_M_mushonov.jpg","E_M_F_rita.jpg","TRUE","pictures/stimuli/Entertainmant","pictures/stimuli/Entertainmant","M","F","4","5cf770915fd5830001d5a1a6","08/14/2022, 11:47:23",0.32966239156391,"36","M","right",1,1,0,0,FALSE,"E_C_M_mushonov.jpg E_M_F_rita.jpg"
3303,"E_C_M_alfi.jpg","P_P_F_shaked.jpg","FALSE","pictures/stimuli/Entertainmant","pictures/stimuli/Politics","M","F","5","5cf770915fd5830001d5a1a6","08/14/2022, 11:47:23",1.1126105715282,"36","M","right",1,1,0,0,FALSE,"E_C_M_alfi.jpg P_P_F_shaked.jpg"
2718,"P_N_M_lapid.jpg","P_P_M_liberman.jpg","TRUE","pictures/stimuli/Politics","pictures/stimuli/Politics","M","M","3","5cf770915fd5830001d5a1a6","08/14/2022, 11:47:23",-0.453285788400376,"36","M","right",1,1,0,0,FALSE,"P_N_M_lapid.jpg P_P_M_liberman.jpg"
2199,"E_M_F_rita.jpg","E_C_F_shaniCo.jpg","TRUE","pictures/stimuli/Entertainmant","pictures/stimuli/Entertainmant","F","F","3","5cf770915fd5830001d5a1a6","08/14/2022, 11:47:23",-0.453285788400376,"36","M","right",1,1,0,0,FALSE,"E_C_F_shaniCo.jpg E_M_F_rita.jpg"
4615,"E_M_M_Ivri.jpg","E_C_F_shaniCo.jpg","TRUE","pictures/stimuli/Entertainmant","pictures/stimuli/Entertainmant","M","F","4","5cf770915fd5830001d5a1a6","08/14/2022, 11:47:23",0.32966239156391,"36","M","right",1,1,0,0,FALSE,"E_C_F_shaniCo.jpg E_M_M_Ivri.jpg"
2316,"E_C_F_ornaBanai.jpg","P_P_F_michaeliM.jpg","FALSE","pictures/stimuli/Entertainmant","pictures/stimuli/Politics","F","F","4","5cf770915fd5830001d5a1a6","08/14/2022, 11:47:23",0.32966239156391,"36","M","right",1,1,0,0,FALSE,"E_C_F_ornaBanai.jpg P_P_F_michaeliM.jpg"
3603,"E_M_M_Ivri.jpg","E_M_F_rita.jpg","TRUE","pictures/stimuli/Entertainmant","pictures/stimuli/Entertainmant","M","F","2","5cf770915fd5830001d5a1a6","08/14/2022, 11:47:23",-1.23623396836466,"36","M","right",1,1,0,0,FALSE,"E_M_F_rita.jpg E_M_M_Ivri.jpg"
64389,"P_N_M_lapid.jpg","P_P_M_peretz.jpg","TRUE","pictures/stimuli/Politics","pictures/stimuli/Politics","M","M","3","5cf770915fd5830001d5a1a6","08/14/2022, 11:47:23",-0.453285788400376,"36","M","right",1,1,0,0,TRUE,"P_N_M_lapid.jpg P_P_M_peretz.jpg"
2120,"E_C_M_mushonov.jpg","P_N_M_lapid.jpg","FALSE","pictures/stimuli/Entertainmant","pictures/stimuli/Politics","M","M","4","5cf770915fd5830001d5a1a6","08/14/2022, 11:47:23",0.32966239156391,"36","M","right",1,1,0,0,FALSE,"E_C_M_mushonov.jpg P_N_M_lapid.jpg"
28771,"E_M_F_rita.jpg","P_P_F_michaeliM.jpg","FALSE","pictures/stimuli/Entertainmant","pictures/stimuli/Politics","F","F","4","5cf770915fd5830001d5a1a6","08/14/2022, 11:47:23",0.32966239156391,"36","M","right",1,1,0,0,FALSE,"E_M_F_rita.jpg P_P_F_michaeliM.jpg"
1894,"P_N_M_lapid.jpg","P_P_M_zamir.jpg","TRUE","pictures/stimuli/Politics","pictures/stimuli/Politics","M","M","4","5cf770915fd5830001d5a1a6","08/14/2022, 11:47:23",0.32966239156391,"36","M","right",1,0,0,0,TRUE,"P_N_M_lapid.jpg P_P_M_zamir.jpg"
3304,"E_C_F_ornaBanai.jpg","E_C_M_shaharHasson.jpg","TRUE","pictures/stimuli/Entertainmant","pictures/stimuli/Entertainmant","F","M","2","5cf770915fd5830001d5a1a6","08/14/2022, 11:47:23",-1.23623396836466,"36","M","right",1,1,0,0,FALSE,"E_C_F_ornaBanai.jpg E_C_M_shaharHasson.jpg"
1885,"E_M_M_tavori.jpg","P_P_M_smootrich.jpg","FALSE","pictures/stimuli/Entertainmant","pictures/stimuli/Politics","M","M","4","5cf770915fd5830001d5a1a6","08/14/2022, 11:47:23",0.32966239156391,"36","M","right",1,1,0,0,FALSE,"E_M_M_tavori.jpg P_P_M_smootrich.jpg"
4286,"E_C_F_harLev.jpg","P_P_M_smootrich.jpg","FALSE","pictures/stimuli/Entertainmant","pictures/stimuli/Politics","F","M","5","5cf770915fd5830001d5a1a6","08/14/2022, 11:47:23",1.1126105715282,"36","M","right",1,1,0,0,FALSE,"E_C_F_harLev.jpg P_P_M_smootrich.jpg"
23850,"P_P_M_benet.jpg","P_P_M_liberman.jpg","TRUE","pictures/stimuli/Politics","pictures/stimuli/Politics","M","M","2","5cf770915fd5830001d5a1a6","08/14/2022, 11:47:23",-1.23623396836466,"36","M","right",1,1,0,0,FALSE,"P_P_M_benet.jpg P_P_M_liberman.jpg"
1767,"E_C_F_ornaBanai.jpg","P_P_M_smootrich.jpg","FALSE","pictures/stimuli/Entertainmant","pictures/stimuli/Politics","F","M","4","5cf770915fd5830001d5a1a6","08/14/2022, 11:47:23",0.32966239156391,"36","M","right",1,1,0,0,FALSE,"E_C_F_ornaBanai.jpg P_P_M_smootrich.jpg"
2825,"E_C_F_ornaBanai.jpg","E_C_F_shaniCo.jpg","TRUE","pictures/stimuli/Entertainmant","pictures/stimuli/Entertainmant","F","F","1","5cf770915fd5830001d5a1a6","08/14/2022, 11:47:23",-2.01918214832895,"36","M","right",1,1,0,0,FALSE,"E_C_F_ornaBanai.jpg E_C_F_shaniCo.jpg"
3228,"E_C_M_alfi.jpg","E_H_F_yanai.jpg","TRUE","pictures/stimuli/Entertainmant","pictures/stimuli/Entertainmant","M","F","4","5cf770915fd5830001d5a1a6","08/14/2022, 11:47:23",0.32966239156391,"36","M","right",1,1,0,0,FALSE,"E_C_M_alfi.jpg E_H_F_yanai.jpg"
3712,"P_P_M_benet.jpg","P_N_F_yehimovitz.jpg","TRUE","pictures/stimuli/Politics","pictures/stimuli/Politics","M","F","2","5cf770915fd5830001d5a1a6","08/14/2022, 11:47:23",-1.23623396836466,"36","M","right",1,1,0,0,FALSE,"P_N_F_yehimovitz.jpg P_P_M_benet.jpg"
2012,"P_P_M_peretz.jpg","P_P_M_zamir.jpg","TRUE","pictures/stimuli/Politics","pictures/stimuli/Politics","M","M","4","5cf770915fd5830001d5a1a6","08/14/2022, 11:47:23",0.32966239156391,"36","M","right",1,0,0,0,TRUE,"P_P_M_peretz.jpg P_P_M_zamir.jpg"
41490,"E_C_M_alfi.jpg","E_M_M_Ivri.jpg","TRUE","pictures/stimuli/Entertainmant","pictures/stimuli/Entertainmant","M","M","3","5cf770915fd5830001d5a1a6","08/14/2022, 11:47:23",-0.453285788400376,"36","M","right",1,1,0,0,TRUE,"E_C_M_alfi.jpg E_M_M_Ivri.jpg"
2946,"E_H_F_yanai.jpg","P_N_M_lapid.jpg","FALSE","pictures/stimuli/Entertainmant","pictures/stimuli/Politics","F","M","5","5cf770915fd5830001d5a1a6","08/14/2022, 11:47:23",1.1126105715282,"36","M","right",1,1,0,0,FALSE,"E_H_F_yanai.jpg P_N_M_lapid.jpg"
2763,"E_M_M_Ivri.jpg","P_N_F_yehimovitz.jpg","FALSE","pictures/stimuli/Entertainmant","pictures/stimuli/Politics","M","F","5","5cf770915fd5830001d5a1a6","08/14/2022, 11:47:23",1.1126105715282,"36","M","right",1,1,0,0,FALSE,"E_M_M_Ivri.jpg P_N_F_yehimovitz.jpg"
1623,"E_C_F_ornaBanai.jpg","P_P_M_liberman.jpg","FALSE","pictures/stimuli/Entertainmant","pictures/stimuli/Politics","F","M","5","5cf770915fd5830001d5a1a6","08/14/2022, 11:47:23",1.1126105715282,"36","M","right",1,1,0,0,FALSE,"E_C_F_ornaBanai.jpg P_P_M_liberman.jpg"
5109,"P_P_F_shaked.jpg","P_P_M_smootrich.jpg","TRUE","pictures/stimuli/Politics","pictures/stimuli/Politics","F","M","1","5cf770915fd5830001d5a1a6","08/14/2022, 11:47:23",-2.01918214832895,"36","M","right",1,1,0,0,FALSE,"P_P_F_shaked.jpg P_P_M_smootrich.jpg"
2597,"E_C_M_katorza.jpg","P_P_M_liberman.jpg","FALSE","pictures/stimuli/Entertainmant","pictures/stimuli/Politics","M","M","5","5cf770915fd5830001d5a1a6","08/14/2022, 11:47:23",1.1126105715282,"36","M","right",1,1,0,0,FALSE,"E_C_M_katorza.jpg P_P_M_liberman.jpg"
2635,"E_C_F_shaniCo.jpg","P_P_F_michaeliM.jpg","FALSE","pictures/stimuli/Entertainmant","pictures/stimuli/Politics","F","F","5","5cf770915fd5830001d5a1a6","08/14/2022, 11:47:23",1.1126105715282,"36","M","right",1,1,0,0,FALSE,"E_C_F_shaniCo.jpg P_P_F_michaeliM.jpg"
2664,"P_N_M_lapid.jpg","P_P_M_smootrich.jpg","TRUE","pictures/stimuli/Politics","pictures/stimuli/Politics","M","M","2","5cf770915fd5830001d5a1a6","08/14/2022, 11:47:23",-1.23623396836466,"36","M","right",1,1,0,0,FALSE,"P_N_M_lapid.jpg P_P_M_smootrich.jpg"
3363,"E_C_M_alfi.jpg","E_M_M_tavori.jpg","TRUE","pictures/stimuli/Entertainmant","pictures/stimuli/Entertainmant","M","M","4","5cf770915fd5830001d5a1a6","08/14/2022, 11:47:23",0.32966239156391,"36","M","right",1,1,0,0,FALSE,"E_C_M_alfi.jpg E_M_M_tavori.jpg"
3407,"E_M_M_Ivri.jpg","P_P_M_smootrich.jpg","FALSE","pictures/stimuli/Entertainmant","pictures/stimuli/Politics","M","M","6","5cf770915fd5830001d5a1a6","08/14/2022, 11:47:23",1.89555875149248,"36","M","right",1,1,0,0,FALSE,"E_M_M_Ivri.jpg P_P_M_smootrich.jpg"
2147,"E_C_F_shaniCo.jpg","P_P_M_zamir.jpg","FALSE","pictures/stimuli/Entertainmant","pictures/stimuli/Politics","F","M","3","5cf770915fd5830001d5a1a6","08/14/2022, 11:47:23",-0.453285788400376,"36","M","right",1,0,0,0,TRUE,"E_C_F_shaniCo.jpg P_P_M_zamir.jpg"
9131,"P_P_M_peretz.jpg","P_N_F_yehimovitz.jpg","TRUE","pictures/stimuli/Politics","pictures/stimuli/Politics","M","F","1","5cf770915fd5830001d5a1a6","08/14/2022, 11:47:23",-2.01918214832895,"36","M","right",1,1,0,0,FALSE,"P_N_F_yehimovitz.jpg P_P_M_peretz.jpg"
2773,"P_P_M_peretz.jpg","P_P_F_shaked.jpg","TRUE","pictures/stimuli/Politics","pictures/stimuli/Politics","M","F","3","5cf770915fd5830001d5a1a6","08/14/2022, 11:47:23",-0.453285788400376,"36","M","right",1,1,0,0,FALSE,"P_P_F_shaked.jpg P_P_M_peretz.jpg"
6596,"E_C_M_katorza.jpg","E_M_M_tavori.jpg","TRUE","pictures/stimuli/Entertainmant","pictures/stimuli/Entertainmant","M","M","2","5cf770915fd5830001d5a1a6","08/14/2022, 11:47:23",-1.23623396836466,"36","M","right",1,1,0,0,FALSE,"E_C_M_katorza.jpg E_M_M_tavori.jpg"
1905,"P_P_F_shaked.jpg","P_P_M_zamir.jpg","TRUE","pictures/stimuli/Politics","pictures/stimuli/Politics","F","M","3","5cf770915fd5830001d5a1a6","08/14/2022, 11:47:23",-0.453285788400376,"36","M","right",1,0,0,0,TRUE,"P_P_F_shaked.jpg P_P_M_zamir.jpg"
8060,"E_H_F_yanai.jpg","P_P_F_michaeliM.jpg","FALSE","pictures/stimuli/Entertainmant","pictures/stimuli/Politics","F","F","4","5cf770915fd5830001d5a1a6","08/14/2022, 11:47:23",0.32966239156391,"36","M","right",1,1,0,0,FALSE,"E_H_F_yanai.jpg P_P_F_michaeliM.jpg"
2093,"E_C_M_alfi.jpg","P_P_M_zamir.jpg","FALSE","pictures/stimuli/Entertainmant","pictures/stimuli/Politics","M","M","3","5cf770915fd5830001d5a1a6","08/14/2022, 11:47:23",-0.453285788400376,"36","M","right",1,0,0,0,TRUE,"E_C_M_alfi.jpg P_P_M_zamir.jpg"
2596,"P_P_F_michaeliM.jpg","P_P_M_peretz.jpg","TRUE","pictures/stimuli/Politics","pictures/stimuli/Politics","F","M","5","5cf770915fd5830001d5a1a6","08/14/2022, 11:47:23",1.1126105715282,"36","M","right",1,1,0,0,FALSE,"P_P_F_michaeliM.jpg P_P_M_peretz.jpg"
2229,"E_C_M_katorza.jpg","P_P_M_benet.jpg","FALSE","pictures/stimuli/Entertainmant","pictures/stimuli/Politics","M","M","5","5cf770915fd5830001d5a1a6","08/14/2022, 11:47:23",1.1126105715282,"36","M","right",1,1,0,0,FALSE,"E_C_M_katorza.jpg P_P_M_benet.jpg"
2776,"P_N_M_lapid.jpg","P_P_F_shaked.jpg","TRUE","pictures/stimuli/Politics","pictures/stimuli/Politics","M","F","2","5cf770915fd5830001d5a1a6","08/14/2022, 11:47:23",-1.23623396836466,"36","M","right",1,1,0,0,FALSE,"P_N_M_lapid.jpg P_P_F_shaked.jpg"
2503,"E_M_M_Ivri.jpg","P_P_M_liberman.jpg","FALSE","pictures/stimuli/Entertainmant","pictures/stimuli/Politics","M","M","6","5cf770915fd5830001d5a1a6","08/14/2022, 11:47:23",1.89555875149248,"36","M","right",1,1,0,0,FALSE,"E_M_M_Ivri.jpg P_P_M_liberman.jpg"
2195,"E_M_M_Ivri.jpg","E_C_F_ornaBanai.jpg","TRUE","pictures/stimuli/Entertainmant","pictures/stimuli/Entertainmant","M","F","2","5cf770915fd5830001d5a1a6","08/14/2022, 11:47:23",-1.23623396836466,"36","M","right",1,1,0,0,FALSE,"E_C_F_ornaBanai.jpg E_M_M_Ivri.jpg"
2753,"E_C_M_shaharHasson.jpg","P_P_F_michaeliM.jpg","FALSE","pictures/stimuli/Entertainmant","pictures/stimuli/Politics","M","F","5","5cf770915fd5830001d5a1a6","08/14/2022, 11:47:23",1.1126105715282,"36","M","right",1,1,0,0,FALSE,"E_C_M_shaharHasson.jpg P_P_F_michaeliM.jpg"
2349,"P_P_M_liberman.jpg","P_P_M_zamir.jpg","TRUE","pictures/stimuli/Politics","pictures/stimuli/Politics","M","M","3","5cf770915fd5830001d5a1a6","08/14/2022, 11:47:23",-0.453285788400376,"36","M","right",1,0,0,0,TRUE,"P_P_M_liberman.jpg P_P_M_zamir.jpg"
5943,"E_C_M_alfi.jpg","P_P_M_smootrich.jpg","FALSE","pictures/stimuli/Entertainmant","pictures/stimuli/Politics","M","M","4","5cf770915fd5830001d5a1a6","08/14/2022, 11:47:23",0.32966239156391,"36","M","right",1,1,0,0,FALSE,"E_C_M_alfi.jpg P_P_M_smootrich.jpg"
2603,"E_C_F_harLev.jpg","E_H_F_yanai.jpg","TRUE","pictures/stimuli/Entertainmant","pictures/stimuli/Entertainmant","F","F","3","5cf770915fd5830001d5a1a6","08/14/2022, 11:47:23",-0.453285788400376,"36","M","right",1,1,0,0,FALSE,"E_C_F_harLev.jpg E_H_F_yanai.jpg"
2113,"E_C_M_katorza.jpg","E_M_F_rita.jpg","TRUE","pictures/stimuli/Entertainmant","pictures/stimuli/Entertainmant","M","F","3","5cf770915fd5830001d5a1a6","08/14/2022, 11:47:23",-0.453285788400376,"36","M","right",1,1,0,0,FALSE,"E_C_M_katorza.jpg E_M_F_rita.jpg"
1930,"E_C_F_ornaBanai.jpg","P_P_M_zamir.jpg","FALSE","pictures/stimuli/Entertainmant","pictures/stimuli/Politics","F","M","3","5cf770915fd5830001d5a1a6","08/14/2022, 11:47:23",-0.453285788400376,"36","M","right",1,0,0,0,TRUE,"E_C_F_ornaBanai.jpg P_P_M_zamir.jpg"
1820,"E_C_M_alfi.jpg","P_P_M_benet.jpg","FALSE","pictures/stimuli/Entertainmant","pictures/stimuli/Politics","M","M","4","5cf770915fd5830001d5a1a6","08/14/2022, 11:47:23",0.32966239156391,"36","M","right",1,1,0,0,FALSE,"E_C_M_alfi.jpg P_P_M_benet.jpg"
2300,"E_C_F_harLev.jpg","P_P_M_liberman.jpg","FALSE","pictures/stimuli/Entertainmant","pictures/stimuli/Politics","F","M","5","5cf770915fd5830001d5a1a6","08/14/2022, 11:47:23",1.1126105715282,"36","M","right",1,1,0,0,FALSE,"E_C_F_harLev.jpg P_P_M_liberman.jpg"
2340,"E_M_F_rita.jpg","P_N_F_yehimovitz.jpg","FALSE","pictures/stimuli/Entertainmant","pictures/stimuli/Politics","F","F","5","5cf770915fd5830001d5a1a6","08/14/2022, 11:47:23",1.1126105715282,"36","M","right",1,1,0,0,FALSE,"E_M_F_rita.jpg P_N_F_yehimovitz.jpg"
5504,"P_P_M_benet.jpg","P_P_M_zamir.jpg","TRUE","pictures/stimuli/Politics","pictures/stimuli/Politics","M","M","3","5cf770915fd5830001d5a1a6","08/14/2022, 11:47:23",-0.453285788400376,"36","M","right",1,0,0,0,TRUE,"P_P_M_benet.jpg P_P_M_zamir.jpg"
3415,"E_C_M_shaharHasson.jpg","P_N_M_lapid.jpg","FALSE","pictures/stimuli/Entertainmant","pictures/stimuli/Politics","M","M","4","5cf770915fd5830001d5a1a6","08/14/2022, 11:47:23",0.32966239156391,"36","M","right",1,1,0,0,FALSE,"E_C_M_shaharHasson.jpg P_N_M_lapid.jpg"
2308,"E_C_M_mushonov.jpg","E_C_M_shaharHasson.jpg","TRUE","pictures/stimuli/Entertainmant","pictures/stimuli/Entertainmant","M","M","2","5cf770915fd5830001d5a1a6","08/14/2022, 11:47:23",-1.23623396836466,"36","M","right",1,1,0,0,FALSE,"E_C_M_mushonov.jpg E_C_M_shaharHasson.jpg"
2053,"E_C_F_harLev.jpg","P_N_F_yehimovitz.jpg","FALSE","pictures/stimuli/Entertainmant","pictures/stimuli/Politics","F","F","4","5cf770915fd5830001d5a1a6","08/14/2022, 11:47:23",0.32966239156391,"36","M","right",1,1,0,0,FALSE,"E_C_F_harLev.jpg P_N_F_yehimovitz.jpg"
1892,"E_M_F_rita.jpg","P_P_M_zamir.jpg","FALSE","pictures/stimuli/Entertainmant","pictures/stimuli/Politics","F","M","3","5cf770915fd5830001d5a1a6","08/14/2022, 11:47:23",-0.453285788400376,"36","M","right",1,0,0,0,TRUE,"E_M_F_rita.jpg P_P_M_zamir.jpg"
2970,"E_M_M_tavori.jpg","P_N_F_yehimovitz.jpg","FALSE","pictures/stimuli/Entertainmant","pictures/stimuli/Politics","M","F","4","5cf770915fd5830001d5a1a6","08/14/2022, 11:47:23",0.32966239156391,"36","M","right",1,1,0,0,FALSE,"E_M_M_tavori.jpg P_N_F_yehimovitz.jpg"
1770,"E_C_F_harLev.jpg","P_P_F_shaked.jpg","FALSE","pictures/stimuli/Entertainmant","pictures/stimuli/Politics","F","F","4","5cf770915fd5830001d5a1a6","08/14/2022, 11:47:23",0.32966239156391,"36","M","right",1,1,0,0,FALSE,"E_C_F_harLev.jpg P_P_F_shaked.jpg"
1875,"E_C_F_harLev.jpg","E_C_M_katorza.jpg","TRUE","pictures/stimuli/Entertainmant","pictures/stimuli/Entertainmant","F","M","2","5cf770915fd5830001d5a1a6","08/14/2022, 11:47:23",-1.23623396836466,"36","M","right",1,1,0,0,FALSE,"E_C_F_harLev.jpg E_C_M_katorza.jpg"
3782,"E_M_M_Ivri.jpg","P_P_M_peretz.jpg","FALSE","pictures/stimuli/Entertainmant","pictures/stimuli/Politics","M","M","5","5cf770915fd5830001d5a1a6","08/14/2022, 11:47:23",1.1126105715282,"36","M","right",1,1,0,0,FALSE,"E_M_M_Ivri.jpg P_P_M_peretz.jpg"
2391,"P_P_M_smootrich.jpg","P_P_M_zamir.jpg","TRUE","pictures/stimuli/Politics","pictures/stimuli/Politics","M","M","3","5cf770915fd5830001d5a1a6","08/14/2022, 11:47:23",-0.453285788400376,"36","M","right",1,0,0,0,TRUE,"P_P_M_smootrich.jpg P_P_M_zamir.jpg"
2021,"E_C_M_mushonov.jpg","P_P_F_michaeliM.jpg","FALSE","pictures/stimuli/Entertainmant","pictures/stimuli/Politics","M","F","4","5cf770915fd5830001d5a1a6","08/14/2022, 11:47:23",0.32966239156391,"36","M","right",1,1,0,0,FALSE,"E_C_M_mushonov.jpg P_P_F_michaeliM.jpg"
2036,"E_M_F_rita.jpg","E_M_M_tavori.jpg","TRUE","pictures/stimuli/Entertainmant","pictures/stimuli/Entertainmant","F","M","2","5cf770915fd5830001d5a1a6","08/14/2022, 11:47:23",-1.23623396836466,"36","M","right",1,1,0,0,FALSE,"E_M_F_rita.jpg E_M_M_tavori.jpg"
4171,"E_C_M_mushonov.jpg","P_P_M_benet.jpg","FALSE","pictures/stimuli/Entertainmant","pictures/stimuli/Politics","M","M","5","5cf770915fd5830001d5a1a6","08/14/2022, 11:47:23",1.1126105715282,"36","M","right",1,1,0,0,FALSE,"E_C_M_mushonov.jpg P_P_M_benet.jpg"
2612,"E_C_F_ornaBanai.jpg","P_N_F_yehimovitz.jpg","FALSE","pictures/stimuli/Entertainmant","pictures/stimuli/Politics","F","F","4","5cf770915fd5830001d5a1a6","08/14/2022, 11:47:23",0.32966239156391,"36","M","right",1,1,0,0,FALSE,"E_C_F_ornaBanai.jpg P_N_F_yehimovitz.jpg"
3681,"E_C_M_alfi.jpg","P_P_F_michaeliM.jpg","FALSE","pictures/stimuli/Entertainmant","pictures/stimuli/Politics","M","F","4","5cf770915fd5830001d5a1a6","08/14/2022, 11:47:23",0.32966239156391,"36","M","right",1,1,0,0,FALSE,"E_C_M_alfi.jpg P_P_F_michaeliM.jpg"
2013,"E_H_F_yanai.jpg","P_P_M_zamir.jpg","FALSE","pictures/stimuli/Entertainmant","pictures/stimuli/Politics","F","M","3","5cf770915fd5830001d5a1a6","08/14/2022, 11:47:23",-0.453285788400376,"36","M","right",1,0,0,0,TRUE,"E_H_F_yanai.jpg P_P_M_zamir.jpg"
9107,"P_P_M_liberman.jpg","P_N_F_yehimovitz.jpg","TRUE","pictures/stimuli/Politics","pictures/stimuli/Politics","M","F","3","5cf770915fd5830001d5a1a6","08/14/2022, 11:47:23",-0.453285788400376,"36","M","right",1,1,0,0,FALSE,"P_N_F_yehimovitz.jpg P_P_M_liberman.jpg"
3479,"E_M_M_tavori.jpg","P_P_M_peretz.jpg","FALSE","pictures/stimuli/Entertainmant","pictures/stimuli/Politics","M","M","5","5cf770915fd5830001d5a1a6","08/14/2022, 11:47:23",1.1126105715282,"36","M","right",1,1,0,0,FALSE,"E_M_M_tavori.jpg P_P_M_peretz.jpg"
2196,"E_H_F_yanai.jpg","P_P_F_shaked.jpg","FALSE","pictures/stimuli/Entertainmant","pictures/stimuli/Politics","F","F","4","5cf770915fd5830001d5a1a6","08/14/2022, 11:47:23",0.32966239156391,"36","M","right",1,1,0,0,FALSE,"E_H_F_yanai.jpg P_P_F_shaked.jpg"
1972,"E_C_F_shaniCo.jpg","P_P_F_shaked.jpg","FALSE","pictures/stimuli/Entertainmant","pictures/stimuli/Politics","F","F","4","5cf770915fd5830001d5a1a6","08/14/2022, 11:47:23",0.32966239156391,"36","M","right",1,1,0,0,FALSE,"E_C_F_shaniCo.jpg P_P_F_shaked.jpg"
1987,"E_H_F_yanai.jpg","P_P_M_smootrich.jpg","FALSE","pictures/stimuli/Entertainmant","pictures/stimuli/Politics","F","M","5","5cf770915fd5830001d5a1a6","08/14/2022, 11:47:23",1.1126105715282,"36","M","right",1,1,0,0,FALSE,"E_H_F_yanai.jpg P_P_M_smootrich.jpg"
2174,"E_C_M_mushonov.jpg","E_M_M_tavori.jpg","TRUE","pictures/stimuli/Entertainmant","pictures/stimuli/Entertainmant","M","M","4","5cf770915fd5830001d5a1a6","08/14/2022, 11:47:23",0.32966239156391,"36","M","right",1,1,0,0,FALSE,"E_C_M_mushonov.jpg E_M_M_tavori.jpg"
2925,"E_C_F_harLev.jpg","P_P_M_benet.jpg","FALSE","pictures/stimuli/Entertainmant","pictures/stimuli/Politics","F","M","5","5cf770915fd5830001d5a1a6","08/14/2022, 11:47:23",1.1126105715282,"36","M","right",1,1,0,0,FALSE,"E_C_F_harLev.jpg P_P_M_benet.jpg"
2141,"E_M_M_Ivri.jpg","E_M_M_tavori.jpg","TRUE","pictures/stimuli/Entertainmant","pictures/stimuli/Entertainmant","M","M","3","5cf770915fd5830001d5a1a6","08/14/2022, 11:47:23",-0.453285788400376,"36","M","right",1,1,0,0,FALSE,"E_M_M_Ivri.jpg E_M_M_tavori.jpg"
2565,"E_C_M_shaharHasson.jpg","P_P_F_shaked.jpg","FALSE","pictures/stimuli/Entertainmant","pictures/stimuli/Politics","M","F","5","5cf770915fd5830001d5a1a6","08/14/2022, 11:47:23",1.1126105715282,"36","M","right",1,1,0,0,FALSE,"E_C_M_shaharHasson.jpg P_P_F_shaked.jpg"
1913,"E_C_M_mushonov.jpg","P_P_M_zamir.jpg","FALSE","pictures/stimuli/Entertainmant","pictures/stimuli/Politics","M","M","3","5cf770915fd5830001d5a1a6","08/14/2022, 11:47:23",-0.453285788400376,"36","M","right",1,0,0,0,TRUE,"E_C_M_mushonov.jpg P_P_M_zamir.jpg"
2147,"E_C_F_shaniCo.jpg","P_P_M_liberman.jpg","FALSE","pictures/stimuli/Entertainmant","pictures/stimuli/Politics","F","M","5","5cf770915fd5830001d5a1a6","08/14/2022, 11:47:23",1.1126105715282,"36","M","right",1,1,0,0,FALSE,"E_C_F_shaniCo.jpg P_P_M_liberman.jpg"
1789,"E_C_M_katorza.jpg","P_P_M_peretz.jpg","FALSE","pictures/stimuli/Entertainmant","pictures/stimuli/Politics","M","M","5","5cf770915fd5830001d5a1a6","08/14/2022, 11:47:23",1.1126105715282,"36","M","right",1,1,0,0,FALSE,"E_C_M_katorza.jpg P_P_M_peretz.jpg"
2987,"P_P_M_benet.jpg","P_P_F_michaeliM.jpg","TRUE","pictures/stimuli/Politics","pictures/stimuli/Politics","M","F","3","5cf770915fd5830001d5a1a6","08/14/2022, 11:47:23",-0.453285788400376,"36","M","right",1,1,0,0,FALSE,"P_P_F_michaeliM.jpg P_P_M_benet.jpg"
3158,"P_N_M_lapid.jpg","P_P_F_michaeliM.jpg","TRUE","pictures/stimuli/Politics","pictures/stimuli/Politics","M","F","1","5cf770915fd5830001d5a1a6","08/14/2022, 11:47:23",-2.01918214832895,"36","M","right",1,1,0,0,FALSE,"P_N_M_lapid.jpg P_P_F_michaeliM.jpg"
2862,"E_C_M_alfi.jpg","P_N_F_yehimovitz.jpg","FALSE","pictures/stimuli/Entertainmant","pictures/stimuli/Politics","M","F","4","5cf770915fd5830001d5a1a6","08/14/2022, 11:47:23",0.32966239156391,"36","M","right",1,1,0,0,FALSE,"E_C_M_alfi.jpg P_N_F_yehimovitz.jpg"
4201,"P_P_M_peretz.jpg","P_P_M_smootrich.jpg","TRUE","pictures/stimuli/Politics","pictures/stimuli/Politics","M","M","2","5cf770915fd5830001d5a1a6","08/14/2022, 11:47:23",-1.23623396836466,"36","M","right",1,1,0,0,FALSE,"P_P_M_peretz.jpg P_P_M_smootrich.jpg"
2368,"P_P_M_benet.jpg","P_P_F_shaked.jpg","TRUE","pictures/stimuli/Politics","pictures/stimuli/Politics","M","F","1","5cf770915fd5830001d5a1a6","08/14/2022, 11:47:23",-2.01918214832895,"36","M","right",1,1,0,0,FALSE,"P_P_F_shaked.jpg P_P_M_benet.jpg"
2346,"E_C_F_ornaBanai.jpg","P_P_F_shaked.jpg","FALSE","pictures/stimuli/Entertainmant","pictures/stimuli/Politics","F","F","5","5cf770915fd5830001d5a1a6","08/14/2022, 11:47:23",1.1126105715282,"36","M","right",1,1,0,0,FALSE,"E_C_F_ornaBanai.jpg P_P_F_shaked.jpg"
2465,"E_C_M_alfi.jpg","E_M_F_rita.jpg","TRUE","pictures/stimuli/Entertainmant","pictures/stimuli/Entertainmant","M","F","3","5cf770915fd5830001d5a1a6","08/14/2022, 11:47:23",-0.453285788400376,"36","M","right",1,1,0,0,FALSE,"E_C_M_alfi.jpg E_M_F_rita.jpg"
2590,"E_M_F_rita.jpg","E_C_M_shaharHasson.jpg","TRUE","pictures/stimuli/Entertainmant","pictures/stimuli/Entertainmant","F","M","3","5cf770915fd5830001d5a1a6","08/14/2022, 11:47:23",-0.453285788400376,"36","M","right",1,1,0,0,FALSE,"E_C_M_shaharHasson.jpg E_M_F_rita.jpg"
2220,"P_N_F_yehimovitz.jpg","P_P_M_zamir.jpg","TRUE","pictures/stimuli/Politics","pictures/stimuli/Politics","F","M","3","5cf770915fd5830001d5a1a6","08/14/2022, 11:47:23",-0.453285788400376,"36","M","right",1,0,0,0,TRUE,"P_N_F_yehimovitz.jpg P_P_M_zamir.jpg"
3261,"P_P_F_michaeliM.jpg","P_P_F_shaked.jpg","TRUE","pictures/stimuli/Politics","pictures/stimuli/Politics","F","F","2","5cf770915fd5830001d5a1a6","08/14/2022, 11:47:23",-1.23623396836466,"36","M","right",1,1,0,0,FALSE,"P_P_F_michaeliM.jpg P_P_F_shaked.jpg"
2751,"E_C_M_katorza.jpg","E_C_F_ornaBanai.jpg","TRUE","pictures/stimuli/Entertainmant","pictures/stimuli/Entertainmant","M","F","1","5cf770915fd5830001d5a1a6","08/14/2022, 11:47:23",-2.01918214832895,"36","M","right",1,1,0,0,FALSE,"E_C_F_ornaBanai.jpg E_C_M_katorza.jpg"
2545,"E_C_M_alfi.jpg","P_N_M_lapid.jpg","FALSE","pictures/stimuli/Entertainmant","pictures/stimuli/Politics","M","M","3","5cf770915fd5830001d5a1a6","08/14/2022, 11:47:23",-0.453285788400376,"36","M","right",1,1,0,0,FALSE,"E_C_M_alfi.jpg P_N_M_lapid.jpg"
2341,"E_C_M_katorza.jpg","E_C_F_shaniCo.jpg","TRUE","pictures/stimuli/Entertainmant","pictures/stimuli/Entertainmant","M","F","3","5cf770915fd5830001d5a1a6","08/14/2022, 11:47:23",-0.453285788400376,"36","M","right",1,1,0,0,FALSE,"E_C_F_shaniCo.jpg E_C_M_katorza.jpg"
2555,"E_C_F_harLev.jpg","E_M_M_tavori.jpg","TRUE","pictures/stimuli/Entertainmant","pictures/stimuli/Entertainmant","F","M","4","5cf770915fd5830001d5a1a6","08/14/2022, 11:47:23",0.32966239156391,"36","M","right",1,1,0,0,FALSE,"E_C_F_harLev.jpg E_M_M_tavori.jpg"
2553,"E_M_M_Ivri.jpg","E_C_M_katorza.jpg","TRUE","pictures/stimuli/Entertainmant","pictures/stimuli/Entertainmant","M","M","4","5cf770915fd5830001d5a1a6","08/14/2022, 11:47:23",0.32966239156391,"36","M","right",1,1,0,0,FALSE,"E_C_M_katorza.jpg E_M_M_Ivri.jpg"
3778,"E_H_F_yanai.jpg","P_P_M_peretz.jpg","FALSE","pictures/stimuli/Entertainmant","pictures/stimuli/Politics","F","M","6","5cf770915fd5830001d5a1a6","08/14/2022, 11:47:23",1.89555875149248,"36","M","right",1,1,0,0,FALSE,"E_H_F_yanai.jpg P_P_M_peretz.jpg"
3540,"E_M_M_tavori.jpg","P_P_M_liberman.jpg","FALSE","pictures/stimuli/Entertainmant","pictures/stimuli/Politics","M","M","5","5cf770915fd5830001d5a1a6","08/14/2022, 11:47:23",1.1126105715282,"36","M","right",1,1,0,0,FALSE,"E_M_M_tavori.jpg P_P_M_liberman.jpg"
3533,"E_C_F_ornaBanai.jpg","P_P_M_benet.jpg","FALSE","pictures/stimuli/Entertainmant","pictures/stimuli/Politics","F","M","5","5cf770915fd5830001d5a1a6","08/14/2022, 11:47:23",1.1126105715282,"36","M","right",1,1,0,0,FALSE,"E_C_F_ornaBanai.jpg P_P_M_benet.jpg"
4364,"E_C_M_katorza.jpg","P_P_F_michaeliM.jpg","FALSE","pictures/stimuli/Entertainmant","pictures/stimuli/Politics","M","F","4","5cf770915fd5830001d5a1a6","08/14/2022, 11:47:23",0.32966239156391,"36","M","right",1,1,0,0,FALSE,"E_C_M_katorza.jpg P_P_F_michaeliM.jpg"
2100,"E_M_F_rita.jpg","P_N_M_lapid.jpg","FALSE","pictures/stimuli/Entertainmant","pictures/stimuli/Politics","F","M","3","5cf770915fd5830001d5a1a6","08/14/2022, 11:47:23",-0.453285788400376,"36","M","right",1,1,0,0,FALSE,"E_M_F_rita.jpg P_N_M_lapid.jpg"
3331,"E_M_M_Ivri.jpg","P_P_M_benet.jpg","FALSE","pictures/stimuli/Entertainmant","pictures/stimuli/Politics","M","M","5","5cf770915fd5830001d5a1a6","08/14/2022, 11:47:23",1.1126105715282,"36","M","right",1,1,0,0,FALSE,"E_M_M_Ivri.jpg P_P_M_benet.jpg"
2430,"E_C_M_shaharHasson.jpg","P_P_M_benet.jpg","FALSE","pictures/stimuli/Entertainmant","pictures/stimuli/Politics","M","M","5","5cf770915fd5830001d5a1a6","08/14/2022, 11:47:23",1.1126105715282,"36","M","right",1,1,0,0,FALSE,"E_C_M_shaharHasson.jpg P_P_M_benet.jpg"
2166,"E_C_M_katorza.jpg","P_P_M_smootrich.jpg","FALSE","pictures/stimuli/Entertainmant","pictures/stimuli/Politics","M","M","5","5cf770915fd5830001d5a1a6","08/14/2022, 11:47:23",1.1126105715282,"36","M","right",1,1,0,0,FALSE,"E_C_M_katorza.jpg P_P_M_smootrich.jpg"
2114,"E_C_F_shaniCo.jpg","P_P_M_smootrich.jpg","FALSE","pictures/stimuli/Entertainmant","pictures/stimuli/Politics","F","M","5","5cf770915fd5830001d5a1a6","08/14/2022, 11:47:23",1.1126105715282,"36","M","right",1,1,0,0,FALSE,"E_C_F_shaniCo.jpg P_P_M_smootrich.jpg"
2954,"P_P_M_liberman.jpg","P_P_M_peretz.jpg","TRUE","pictures/stimuli/Politics","pictures/stimuli/Politics","M","M","2","5cf770915fd5830001d5a1a6","08/14/2022, 11:47:23",-1.23623396836466,"36","M","right",1,1,0,0,FALSE,"P_P_M_liberman.jpg P_P_M_peretz.jpg"
2044,"E_C_F_shaniCo.jpg","E_M_M_tavori.jpg","TRUE","pictures/stimuli/Entertainmant","pictures/stimuli/Entertainmant","F","M","3","5cf770915fd5830001d5a1a6","08/14/2022, 11:47:23",-0.453285788400376,"36","M","right",1,1,0,0,FALSE,"E_C_F_shaniCo.jpg E_M_M_tavori.jpg"
2529,"E_C_M_alfi.jpg","E_C_M_shaharHasson.jpg","TRUE","pictures/stimuli/Entertainmant","pictures/stimuli/Entertainmant","M","M","2","5cf770915fd5830001d5a1a6","08/14/2022, 11:47:23",-1.23623396836466,"36","M","right",1,1,0,0,FALSE,"E_C_M_alfi.jpg E_C_M_shaharHasson.jpg"
2610,"E_C_F_ornaBanai.jpg","P_P_M_peretz.jpg","FALSE","pictures/stimuli/Entertainmant","pictures/stimuli/Politics","F","M","5","5cf770915fd5830001d5a1a6","08/14/2022, 11:47:23",1.1126105715282,"36","M","right",1,1,0,0,FALSE,"E_C_F_ornaBanai.jpg P_P_M_peretz.jpg"
1877,"E_C_M_alfi.jpg","P_P_M_liberman.jpg","FALSE","pictures/stimuli/Entertainmant","pictures/stimuli/Politics","M","M","5","5cf770915fd5830001d5a1a6","08/14/2022, 11:47:23",1.1126105715282,"36","M","right",1,1,0,0,FALSE,"E_C_M_alfi.jpg P_P_M_liberman.jpg"
2437,"E_M_M_tavori.jpg","P_P_M_benet.jpg","FALSE","pictures/stimuli/Entertainmant","pictures/stimuli/Politics","M","M","5","5cf770915fd5830001d5a1a6","08/14/2022, 11:47:23",1.1126105715282,"36","M","right",1,1,0,0,FALSE,"E_M_M_tavori.jpg P_P_M_benet.jpg"
4092,"E_M_M_tavori.jpg","P_P_F_michaeliM.jpg","FALSE","pictures/stimuli/Entertainmant","pictures/stimuli/Politics","M","F","4","5cf770915fd5830001d5a1a6","08/14/2022, 11:47:23",0.32966239156391,"36","M","right",1,1,0,0,FALSE,"E_M_M_tavori.jpg P_P_F_michaeliM.jpg"
2475,"P_P_M_benet.jpg","P_N_M_lapid.jpg","TRUE","pictures/stimuli/Politics","pictures/stimuli/Politics","M","M","2","5cf770915fd5830001d5a1a6","08/14/2022, 11:47:23",-1.23623396836466,"36","M","right",1,1,0,0,FALSE,"P_N_M_lapid.jpg P_P_M_benet.jpg"
2768,"E_C_M_mushonov.jpg","P_N_F_yehimovitz.jpg","FALSE","pictures/stimuli/Entertainmant","pictures/stimuli/Politics","M","F","3","5cf770915fd5830001d5a1a6","08/14/2022, 11:47:23",-0.453285788400376,"36","M","right",1,1,0,0,FALSE,"E_C_M_mushonov.jpg P_N_F_yehimovitz.jpg"
8986,"E_C_M_alfi.jpg","P_P_M_peretz.jpg","FALSE","pictures/stimuli/Entertainmant","pictures/stimuli/Politics","M","M","5","5cf770915fd5830001d5a1a6","08/14/2022, 11:47:23",1.1126105715282,"36","M","right",1,1,0,0,FALSE,"E_C_M_alfi.jpg P_P_M_peretz.jpg"
8241,"P_P_M_liberman.jpg","P_P_F_shaked.jpg","TRUE","pictures/stimuli/Politics","pictures/stimuli/Politics","M","F","1","5cf770915fd5830001d5a1a6","08/14/2022, 11:47:23",-2.01918214832895,"36","M","right",1,1,0,0,FALSE,"P_P_F_shaked.jpg P_P_M_liberman.jpg"
4533,"E_C_F_ornaBanai.jpg","E_H_F_yanai.jpg","TRUE","pictures/stimuli/Entertainmant","pictures/stimuli/Entertainmant","F","F","3","5cf770915fd5830001d5a1a6","08/14/2022, 11:47:23",-0.453285788400376,"36","M","right",1,1,0,0,FALSE,"E_C_F_ornaBanai.jpg E_H_F_yanai.jpg"
2814,"E_M_F_rita.jpg","E_H_F_yanai.jpg","TRUE","pictures/stimuli/Entertainmant","pictures/stimuli/Entertainmant","F","F","4","5cf770915fd5830001d5a1a6","08/14/2022, 11:47:23",0.32966239156391,"36","M","right",1,1,0,0,FALSE,"E_H_F_yanai.jpg E_M_F_rita.jpg"
3327,"E_C_F_ornaBanai.jpg","E_M_F_rita.jpg","TRUE","pictures/stimuli/Entertainmant","pictures/stimuli/Entertainmant","F","F","3","5cf770915fd5830001d5a1a6","08/14/2022, 11:47:23",-0.453285788400376,"36","M","right",1,1,0,0,FALSE,"E_C_F_ornaBanai.jpg E_M_F_rita.jpg"
6925,"P_P_M_liberman.jpg","P_P_M_smootrich.jpg","TRUE","pictures/stimuli/Politics","pictures/stimuli/Politics","M","M","2","5cf770915fd5830001d5a1a6","08/14/2022, 11:47:23",-1.23623396836466,"36","M","right",1,1,0,0,FALSE,"P_P_M_liberman.jpg P_P_M_smootrich.jpg"
2049,"P_N_M_lapid.jpg","P_N_F_yehimovitz.jpg","TRUE","pictures/stimuli/Politics","pictures/stimuli/Politics","M","F","3","5cf770915fd5830001d5a1a6","08/14/2022, 11:47:23",-0.453285788400376,"36","M","right",1,1,0,0,FALSE,"P_N_F_yehimovitz.jpg P_N_M_lapid.jpg"
2009,"P_P_F_michaeliM.jpg","P_P_M_zamir.jpg","TRUE","pictures/stimuli/Politics","pictures/stimuli/Politics","F","M","3","5cf770915fd5830001d5a1a6","08/14/2022, 11:47:23",-0.453285788400376,"36","M","right",1,0,0,0,TRUE,"P_P_F_michaeliM.jpg P_P_M_zamir.jpg"
3633,"P_P_F_shaked.jpg","P_N_F_yehimovitz.jpg","TRUE","pictures/stimuli/Politics","pictures/stimuli/Politics","F","F","3","5cf770915fd5830001d5a1a6","08/14/2022, 11:47:23",-0.453285788400376,"36","M","right",1,1,0,0,FALSE,"P_N_F_yehimovitz.jpg P_P_F_shaked.jpg"
1944,"E_C_M_mushonov.jpg","P_P_F_shaked.jpg","FALSE","pictures/stimuli/Entertainmant","pictures/stimuli/Politics","M","F","4","5cf770915fd5830001d5a1a6","08/14/2022, 11:47:23",0.32966239156391,"36","M","right",1,1,0,0,FALSE,"E_C_M_mushonov.jpg P_P_F_shaked.jpg"
3041,"E_C_M_katorza.jpg","E_C_M_mushonov.jpg","TRUE","pictures/stimuli/Entertainmant","pictures/stimuli/Entertainmant","M","M","2","5cf770915fd5830001d5a1a6","08/14/2022, 11:47:23",-1.23623396836466,"36","M","right",1,1,0,0,FALSE,"E_C_M_katorza.jpg E_C_M_mushonov.jpg"
7313,"E_C_M_shaharHasson.jpg","E_M_M_tavori.jpg","TRUE","pictures/stimuli/Entertainmant","pictures/stimuli/Entertainmant","M","M","3","5cf770915fd5830001d5a1a6","08/14/2022, 11:47:23",-0.453285788400376,"36","M","right",1,1,0,0,FALSE,"E_C_M_shaharHasson.jpg E_M_M_tavori.jpg"
4246,"E_C_M_alfi.jpg","E_C_F_shaniCo.jpg","TRUE","pictures/stimuli/Entertainmant","pictures/stimuli/Entertainmant","M","F","1","5cf770915fd5830001d5a1a6","08/14/2022, 11:47:23",-2.01918214832895,"36","M","right",1,1,0,0,FALSE,"E_C_F_shaniCo.jpg E_C_M_alfi.jpg"
4885,"P_P_M_benet.jpg","P_P_M_smootrich.jpg","TRUE","pictures/stimuli/Politics","pictures/stimuli/Politics","M","M","1","5cf770915fd5830001d5a1a6","08/14/2022, 11:47:23",-2.01918214832895,"36","M","right",1,1,0,0,FALSE,"P_P_M_benet.jpg P_P_M_smootrich.jpg"
5559,"E_C_F_shaniCo.jpg","P_N_F_yehimovitz.jpg","FALSE","pictures/stimuli/Entertainmant","pictures/stimuli/Politics","F","F","4","5cf770915fd5830001d5a1a6","08/14/2022, 11:47:23",0.32966239156391,"36","M","right",1,1,0,0,FALSE,"E_C_F_shaniCo.jpg P_N_F_yehimovitz.jpg"
2862,"E_M_M_Ivri.jpg","P_P_M_zamir.jpg","FALSE","pictures/stimuli/Entertainmant","pictures/stimuli/Politics","M","M","3","5cf770915fd5830001d5a1a6","08/14/2022, 11:47:23",-0.453285788400376,"36","M","right",1,0,0,0,TRUE,"E_M_M_Ivri.jpg P_P_M_zamir.jpg"
2608,"E_C_M_mushonov.jpg","P_P_M_smootrich.jpg","FALSE","pictures/stimuli/Entertainmant","pictures/stimuli/Politics","M","M","5","5cf770915fd5830001d5a1a6","08/14/2022, 11:47:23",1.1126105715282,"36","M","right",1,1,0,0,FALSE,"E_C_M_mushonov.jpg P_P_M_smootrich.jpg"
2321,"E_C_M_mushonov.jpg","P_P_M_liberman.jpg","FALSE","pictures/stimuli/Entertainmant","pictures/stimuli/Politics","M","M","5","5cf770915fd5830001d5a1a6","08/14/2022, 11:47:23",1.1126105715282,"36","M","right",1,1,0,0,FALSE,"E_C_M_mushonov.jpg P_P_M_liberman.jpg"
2607,"E_C_F_shaniCo.jpg","P_N_M_lapid.jpg","FALSE","pictures/stimuli/Entertainmant","pictures/stimuli/Politics","F","M","4","5cf770915fd5830001d5a1a6","08/14/2022, 11:47:23",0.32966239156391,"36","M","right",1,1,0,0,FALSE,"E_C_F_shaniCo.jpg P_N_M_lapid.jpg"
3871,"E_H_F_yanai.jpg","P_P_M_benet.jpg","FALSE","pictures/stimuli/Entertainmant","pictures/stimuli/Politics","F","M","5","5cf770915fd5830001d5a1a6","08/14/2022, 11:47:23",1.1126105715282,"36","M","right",1,1,0,0,FALSE,"E_H_F_yanai.jpg P_P_M_benet.jpg"
8682,"P_P_F_michaeliM.jpg","P_N_F_yehimovitz.jpg","TRUE","pictures/stimuli/Politics","pictures/stimuli/Politics","F","F","2","5cf770915fd5830001d5a1a6","08/14/2022, 11:47:23",-1.23623396836466,"36","M","right",1,1,0,0,FALSE,"P_N_F_yehimovitz.jpg P_P_F_michaeliM.jpg"
2300,"E_C_M_katorza.jpg","P_N_M_lapid.jpg","FALSE","pictures/stimuli/Entertainmant","pictures/stimuli/Politics","M","M","4","5cf770915fd5830001d5a1a6","08/14/2022, 11:47:23",0.32966239156391,"36","M","right",1,1,0,0,FALSE,"E_C_M_katorza.jpg P_N_M_lapid.jpg"
1983,"E_M_M_Ivri.jpg","P_N_M_lapid.jpg","FALSE","pictures/stimuli/Entertainmant","pictures/stimuli/Politics","M","M","4","5cf770915fd5830001d5a1a6","08/14/2022, 11:47:23",0.32966239156391,"36","M","right",1,1,0,0,FALSE,"E_M_M_Ivri.jpg P_N_M_lapid.jpg"
1747,"E_C_M_katorza.jpg","P_P_M_zamir.jpg","FALSE","pictures/stimuli/Entertainmant","pictures/stimuli/Politics","M","M","3","5cf770915fd5830001d5a1a6","08/14/2022, 11:47:23",-0.453285788400376,"36","M","right",1,0,0,0,TRUE,"E_C_M_katorza.jpg P_P_M_zamir.jpg"
1740,"E_M_F_rita.jpg","P_P_M_peretz.jpg","FALSE","pictures/stimuli/Entertainmant","pictures/stimuli/Politics","F","M","5","5cf770915fd5830001d5a1a6","08/14/2022, 11:47:23",1.1126105715282,"36","M","right",1,1,0,0,FALSE,"E_M_F_rita.jpg P_P_M_peretz.jpg"
1762,"E_C_F_shaniCo.jpg","P_P_M_benet.jpg","FALSE","pictures/stimuli/Entertainmant","pictures/stimuli/Politics","F","M","5","5cf770915fd5830001d5a1a6","08/14/2022, 11:47:23",1.1126105715282,"36","M","right",1,1,0,0,FALSE,"E_C_F_shaniCo.jpg P_P_M_benet.jpg"
2379,"E_C_F_ornaBanai.jpg","E_M_M_tavori.jpg","TRUE","pictures/stimuli/Entertainmant","pictures/stimuli/Entertainmant","F","M","3","5cf770915fd5830001d5a1a6","08/14/2022, 11:47:23",-0.453285788400376,"36","M","right",1,1,0,0,FALSE,"E_C_F_ornaBanai.jpg E_M_M_tavori.jpg"
2412,"P_P_M_benet.jpg","P_P_M_peretz.jpg","TRUE","pictures/stimuli/Politics","pictures/stimuli/Politics","M","M","2","5cf770915fd5830001d5a1a6","08/14/2022, 11:47:23",-1.23623396836466,"36","M","right",1,1,0,0,FALSE,"P_P_M_benet.jpg P_P_M_peretz.jpg"
1757,"E_M_M_tavori.jpg","P_P_F_shaked.jpg","FALSE","pictures/stimuli/Entertainmant","pictures/stimuli/Politics","M","F","4","5cf770915fd5830001d5a1a6","08/14/2022, 11:47:23",0.32966239156391,"36","M","right",1,1,0,0,FALSE,"E_M_M_tavori.jpg P_P_F_shaked.jpg"
2503,"E_C_F_ornaBanai.jpg","P_N_M_lapid.jpg","FALSE","pictures/stimuli/Entertainmant","pictures/stimuli/Politics","F","M","3","5cf770915fd5830001d5a1a6","08/14/2022, 11:47:23",-0.453285788400376,"36","M","right",1,1,0,0,FALSE,"E_C_F_ornaBanai.jpg P_N_M_lapid.jpg"
2611,"E_C_M_mushonov.jpg","E_C_F_ornaBanai.jpg","TRUE","pictures/stimuli/Entertainmant","pictures/stimuli/Entertainmant","M","F","1","5cf770915fd5830001d5a1a6","08/14/2022, 11:47:23",-2.01918214832895,"36","M","right",1,1,0,0,FALSE,"E_C_F_ornaBanai.jpg E_C_M_mushonov.jpg"
2097,"E_C_M_shaharHasson.jpg","P_P_M_peretz.jpg","FALSE","pictures/stimuli/Entertainmant","pictures/stimuli/Politics","M","M","5","5cf770915fd5830001d5a1a6","08/14/2022, 11:47:23",1.1126105715282,"36","M","right",1,1,0,0,FALSE,"E_C_M_shaharHasson.jpg P_P_M_peretz.jpg"
2470,"E_C_F_shaniCo.jpg","E_H_F_yanai.jpg","TRUE","pictures/stimuli/Entertainmant","pictures/stimuli/Entertainmant","F","F","4","5cf770915fd5830001d5a1a6","08/14/2022, 11:47:23",0.32966239156391,"36","M","right",1,1,0,0,FALSE,"E_C_F_shaniCo.jpg E_H_F_yanai.jpg"
2636,"E_C_M_shaharHasson.jpg","E_C_F_shaniCo.jpg","TRUE","pictures/stimuli/Entertainmant","pictures/stimuli/Entertainmant","M","F","2","5cf770915fd5830001d5a1a6","08/14/2022, 11:47:23",-1.23623396836466,"36","M","right",1,1,0,0,FALSE,"E_C_F_shaniCo.jpg E_C_M_shaharHasson.jpg"
2143,"E_M_M_tavori.jpg","P_N_M_lapid.jpg","FALSE","pictures/stimuli/Entertainmant","pictures/stimuli/Politics","M","M","4","5cf770915fd5830001d5a1a6","08/14/2022, 11:47:23",0.32966239156391,"36","M","right",1,1,0,0,FALSE,"E_M_M_tavori.jpg P_N_M_lapid.jpg"
2461,"E_C_M_shaharHasson.jpg","E_H_F_yanai.jpg","TRUE","pictures/stimuli/Entertainmant","pictures/stimuli/Entertainmant","M","F","4","5cf770915fd5830001d5a1a6","08/14/2022, 11:47:23",0.32966239156391,"36","M","right",1,1,0,0,FALSE,"E_C_M_shaharHasson.jpg E_H_F_yanai.jpg"
2329,"E_C_F_harLev.jpg","E_C_F_shaniCo.jpg","TRUE","pictures/stimuli/Entertainmant","pictures/stimuli/Entertainmant","F","F","1","5cf770915fd5830001d5a1a6","08/14/2022, 11:47:23",-2.01918214832895,"36","M","right",1,1,0,0,FALSE,"E_C_F_harLev.jpg E_C_F_shaniCo.jpg"
4870,"E_M_M_Ivri.jpg","E_C_M_mushonov.jpg","TRUE","pictures/stimuli/Entertainmant","pictures/stimuli/Entertainmant","M","M","3","5cf770915fd5830001d5a1a6","08/14/2022, 11:47:23",-0.453285788400376,"36","M","right",1,1,0,0,FALSE,"E_C_M_mushonov.jpg E_M_M_Ivri.jpg"
2324,"E_M_F_rita.jpg","P_P_M_benet.jpg","FALSE","pictures/stimuli/Entertainmant","pictures/stimuli/Politics","F","M","5","5cf770915fd5830001d5a1a6","08/14/2022, 11:47:23",1.1126105715282,"36","M","right",1,1,0,0,FALSE,"E_M_F_rita.jpg P_P_M_benet.jpg"
2272,"P_P_M_smootrich.jpg","P_N_F_yehimovitz.jpg","TRUE","pictures/stimuli/Politics","pictures/stimuli/Politics","M","F","3","5cf770915fd5830001d5a1a6","08/14/2022, 11:47:23",-0.453285788400376,"36","M","right",1,1,0,0,FALSE,"P_N_F_yehimovitz.jpg P_P_M_smootrich.jpg"
2046,"E_C_F_harLev.jpg","E_M_M_Ivri.jpg","TRUE","pictures/stimuli/Entertainmant","pictures/stimuli/Entertainmant","F","M","3","5cf770915fd5830001d5a1a6","08/14/2022, 11:47:23",-0.453285788400376,"36","M","right",1,1,0,0,FALSE,"E_C_F_harLev.jpg E_M_M_Ivri.jpg"
2854,"E_C_M_shaharHasson.jpg","P_N_F_yehimovitz.jpg","FALSE","pictures/stimuli/Entertainmant","pictures/stimuli/Politics","M","F","5","5cf770915fd5830001d5a1a6","08/14/2022, 11:47:23",1.1126105715282,"36","M","right",1,1,0,0,FALSE,"E_C_M_shaharHasson.jpg P_N_F_yehimovitz.jpg"
2772,"E_M_M_tavori.jpg","E_H_F_yanai.jpg","TRUE","pictures/stimuli/Entertainmant","pictures/stimuli/Entertainmant","M","F","3","5cf770915fd5830001d5a1a6","08/14/2022, 11:47:23",-0.453285788400376,"36","M","right",1,1,0,0,FALSE,"E_H_F_yanai.jpg E_M_M_tavori.jpg"
1747,"E_C_M_shaharHasson.jpg","P_P_M_liberman.jpg","FALSE","pictures/stimuli/Entertainmant","pictures/stimuli/Politics","M","M","5","5cf770915fd5830001d5a1a6","08/14/2022, 11:47:23",1.1126105715282,"36","M","right",1,1,0,0,FALSE,"E_C_M_shaharHasson.jpg P_P_M_liberman.jpg"
3199,"E_M_M_Ivri.jpg","P_P_F_michaeliM.jpg","FALSE","pictures/stimuli/Entertainmant","pictures/stimuli/Politics","M","F","3","5cf770915fd5830001d5a1a6","08/14/2022, 11:47:23",-0.453285788400376,"36","M","right",1,1,0,0,FALSE,"E_M_M_Ivri.jpg P_P_F_michaeliM.jpg"
2553,"E_M_F_rita.jpg","P_P_M_liberman.jpg","FALSE","pictures/stimuli/Entertainmant","pictures/stimuli/Politics","F","M","5","5cf770915fd5830001d5a1a6","08/14/2022, 11:47:23",1.1126105715282,"36","M","right",1,1,0,0,FALSE,"E_M_F_rita.jpg P_P_M_liberman.jpg"
2472,"E_C_F_harLev.jpg","E_C_M_shaharHasson.jpg","TRUE","pictures/stimuli/Entertainmant","pictures/stimuli/Entertainmant","F","M","2","5cf770915fd5830001d5a1a6","08/14/2022, 11:47:23",-1.23623396836466,"36","M","right",1,1,0,0,FALSE,"E_C_F_harLev.jpg E_C_M_shaharHasson.jpg"
1745,"E_C_F_harLev.jpg","P_P_M_zamir.jpg","FALSE","pictures/stimuli/Entertainmant","pictures/stimuli/Politics","F","M","3","5cf770915fd5830001d5a1a6","08/14/2022, 11:47:23",-0.453285788400376,"36","M","right",1,0,0,0,TRUE,"E_C_F_harLev.jpg P_P_M_zamir.jpg"
2943,"E_C_F_harLev.jpg","E_M_F_rita.jpg","TRUE","pictures/stimuli/Entertainmant","pictures/stimuli/Entertainmant","F","F","3","5cf770915fd5830001d5a1a6","08/14/2022, 11:47:23",-0.453285788400376,"36","M","right",1,1,0,0,FALSE,"E_C_F_harLev.jpg E_M_F_rita.jpg"
2363,"E_C_M_shaharHasson.jpg","P_P_M_smootrich.jpg","FALSE","pictures/stimuli/Entertainmant","pictures/stimuli/Politics","M","M","4","5cf770915fd5830001d5a1a6","08/14/2022, 11:47:23",0.32966239156391,"36","M","right",1,1,0,0,FALSE,"E_C_M_shaharHasson.jpg P_P_M_smootrich.jpg"
11178,"P_N_M_lapid.jpg","P_P_M_zamir.jpg","TRUE","pictures/stimuli/Politics","pictures/stimuli/Politics","M","M","4","5d0787932267b900197ef10b","06/13/2022, 10:56:25",0.0628014746997836,"26","F","right",1,1,0,0,FALSE,"P_N_M_lapid.jpg P_P_M_zamir.jpg"
