"RT","img_1","img_2","isSameProffesion","img1proffesion","img2proffesion","img1Gender","img2Gender","keyPressed","participant","time","normlised_keyPress","age","gender","handedness","isFamiliar_img1","isFamiliar_img2","vividness_img1","vividness_img2","reject_trial","pair"
8655,"E_C_M_alfi.jpg","E_M_M_tavori.jpg","TRUE","pictures/stimuli/Entertainmant","pictures/stimuli/Entertainmant","M","M","3","597ba81afd9fe500011672e2","06/18/2022, 21:40:48",-1.92568051621555,"31","M","right",1,1,0,0,FALSE,"E_C_M_alfi.jpg E_M_M_tavori.jpg"
6362,"E_C_M_katorza.jpg","E_C_M_shaharHasson.jpg","TRUE","pictures/stimuli/Entertainmant","pictures/stimuli/Entertainmant","M","M","5","597ba81afd9fe500011672e2","06/18/2022, 21:40:48",-0.096284025810778,"31","M","right",1,1,0,0,FALSE,"E_C_M_katorza.jpg E_C_M_shaharHasson.jpg"
4771,"E_C_M_mushonov.jpg","E_M_F_rita.jpg","TRUE","pictures/stimuli/Entertainmant","pictures/stimuli/Entertainmant","M","F","6","597ba81afd9fe500011672e2","06/18/2022, 21:40:48",0.81841421939161,"31","M","right",1,1,0,0,FALSE,"E_C_M_mushonov.jpg E_M_F_rita.jpg"
5300,"E_M_F_rita.jpg","P_P_F_michaeliM.jpg","FALSE","pictures/stimuli/Entertainmant","pictures/stimuli/Politics","F","F","5","597ba81afd9fe500011672e2","06/18/2022, 21:40:48",-0.096284025810778,"31","M","right",1,1,0,0,FALSE,"E_M_F_rita.jpg P_P_F_michaeliM.jpg"
5840,"E_M_M_Ivri.jpg","P_P_M_benet.jpg","FALSE","pictures/stimuli/Entertainmant","pictures/stimuli/Politics","M","M","5","597ba81afd9fe500011672e2","06/18/2022, 21:40:48",-0.096284025810778,"31","M","right",1,1,0,0,FALSE,"E_M_M_Ivri.jpg P_P_M_benet.jpg"
3764,"E_C_F_harLev.jpg","E_C_F_ornaBanai.jpg","TRUE","pictures/stimuli/Entertainmant","pictures/stimuli/Entertainmant","F","F","2","597ba81afd9fe500011672e2","06/18/2022, 21:40:48",-2.84037876141794,"31","M","right",1,1,0,0,FALSE,"E_C_F_harLev.jpg E_C_F_ornaBanai.jpg"
5003,"E_M_F_rita.jpg","P_P_M_peretz.jpg","FALSE","pictures/stimuli/Entertainmant","pictures/stimuli/Politics","F","M","6","597ba81afd9fe500011672e2","06/18/2022, 21:40:48",0.81841421939161,"31","M","right",1,1,0,0,FALSE,"E_M_F_rita.jpg P_P_M_peretz.jpg"
4398,"E_M_M_Ivri.jpg","P_P_M_peretz.jpg","FALSE","pictures/stimuli/Entertainmant","pictures/stimuli/Politics","M","M","2","597ba81afd9fe500011672e2","06/18/2022, 21:40:48",-2.84037876141794,"31","M","right",1,1,0,0,FALSE,"E_M_M_Ivri.jpg P_P_M_peretz.jpg"
4127,"P_P_F_shaked.jpg","P_N_F_yehimovitz.jpg","TRUE","pictures/stimuli/Politics","pictures/stimuli/Politics","F","F","3","597ba81afd9fe500011672e2","06/18/2022, 21:40:48",-1.92568051621555,"31","M","right",1,1,0,0,FALSE,"P_N_F_yehimovitz.jpg P_P_F_shaked.jpg"
6437,"E_C_F_harLev.jpg","E_C_F_shaniCo.jpg","TRUE","pictures/stimuli/Entertainmant","pictures/stimuli/Entertainmant","F","F","2","597ba81afd9fe500011672e2","06/18/2022, 21:40:48",-2.84037876141794,"31","M","right",1,1,0,0,FALSE,"E_C_F_harLev.jpg E_C_F_shaniCo.jpg"
5740,"E_C_F_ornaBanai.jpg","P_P_M_zamir.jpg","FALSE","pictures/stimuli/Entertainmant","pictures/stimuli/Politics","F","M","4","597ba81afd9fe500011672e2","06/18/2022, 21:40:48",-1.01098227101317,"31","M","right",1,1,0,0,FALSE,"E_C_F_ornaBanai.jpg P_P_M_zamir.jpg"
3416,"E_C_F_ornaBanai.jpg","P_P_M_benet.jpg","FALSE","pictures/stimuli/Entertainmant","pictures/stimuli/Politics","F","M","6","597ba81afd9fe500011672e2","06/18/2022, 21:40:48",0.81841421939161,"31","M","right",1,1,0,0,FALSE,"E_C_F_ornaBanai.jpg P_P_M_benet.jpg"
5565,"E_H_F_yanai.jpg","P_P_M_smootrich.jpg","FALSE","pictures/stimuli/Entertainmant","pictures/stimuli/Politics","F","M","5","597ba81afd9fe500011672e2","06/18/2022, 21:40:48",-0.096284025810778,"31","M","right",1,1,0,0,FALSE,"E_H_F_yanai.jpg P_P_M_smootrich.jpg"
5400,"E_C_M_shaharHasson.jpg","E_M_M_tavori.jpg","TRUE","pictures/stimuli/Entertainmant","pictures/stimuli/Entertainmant","M","M","4","597ba81afd9fe500011672e2","06/18/2022, 21:40:48",-1.01098227101317,"31","M","right",1,1,0,0,FALSE,"E_C_M_shaharHasson.jpg E_M_M_tavori.jpg"
4688,"E_M_M_Ivri.jpg","P_P_F_michaeliM.jpg","FALSE","pictures/stimuli/Entertainmant","pictures/stimuli/Politics","M","F","5","597ba81afd9fe500011672e2","06/18/2022, 21:40:48",-0.096284025810778,"31","M","right",1,1,0,0,FALSE,"E_M_M_Ivri.jpg P_P_F_michaeliM.jpg"
3532,"E_C_M_alfi.jpg","P_P_F_michaeliM.jpg","FALSE","pictures/stimuli/Entertainmant","pictures/stimuli/Politics","M","F","6","597ba81afd9fe500011672e2","06/18/2022, 21:40:48",0.81841421939161,"31","M","right",1,1,0,0,FALSE,"E_C_M_alfi.jpg P_P_F_michaeliM.jpg"
4680,"E_C_F_harLev.jpg","E_H_F_yanai.jpg","TRUE","pictures/stimuli/Entertainmant","pictures/stimuli/Entertainmant","F","F","3","597ba81afd9fe500011672e2","06/18/2022, 21:40:48",-1.92568051621555,"31","M","right",1,1,0,0,FALSE,"E_C_F_harLev.jpg E_H_F_yanai.jpg"
5924,"P_P_M_peretz.jpg","P_P_M_zamir.jpg","TRUE","pictures/stimuli/Politics","pictures/stimuli/Politics","M","M","4","597ba81afd9fe500011672e2","06/18/2022, 21:40:48",-1.01098227101317,"31","M","right",1,1,0,0,FALSE,"P_P_M_peretz.jpg P_P_M_zamir.jpg"
5694,"E_C_F_harLev.jpg","P_N_F_yehimovitz.jpg","FALSE","pictures/stimuli/Entertainmant","pictures/stimuli/Politics","F","F","4","597ba81afd9fe500011672e2","06/18/2022, 21:40:48",-1.01098227101317,"31","M","right",1,1,0,0,FALSE,"E_C_F_harLev.jpg P_N_F_yehimovitz.jpg"
3822,"E_C_F_harLev.jpg","E_C_M_katorza.jpg","TRUE","pictures/stimuli/Entertainmant","pictures/stimuli/Entertainmant","F","M","6","597ba81afd9fe500011672e2","06/18/2022, 21:40:48",0.81841421939161,"31","M","right",1,1,0,0,FALSE,"E_C_F_harLev.jpg E_C_M_katorza.jpg"
3870,"P_N_M_lapid.jpg","P_P_M_peretz.jpg","TRUE","pictures/stimuli/Politics","pictures/stimuli/Politics","M","M","5","597ba81afd9fe500011672e2","06/18/2022, 21:40:48",-0.096284025810778,"31","M","right",1,1,0,0,FALSE,"P_N_M_lapid.jpg P_P_M_peretz.jpg"
6233,"E_C_F_ornaBanai.jpg","P_P_F_michaeliM.jpg","FALSE","pictures/stimuli/Entertainmant","pictures/stimuli/Politics","F","F","5","597ba81afd9fe500011672e2","06/18/2022, 21:40:48",-0.096284025810778,"31","M","right",1,1,0,0,FALSE,"E_C_F_ornaBanai.jpg P_P_F_michaeliM.jpg"
3212,"E_C_F_harLev.jpg","E_C_M_shaharHasson.jpg","TRUE","pictures/stimuli/Entertainmant","pictures/stimuli/Entertainmant","F","M","6","597ba81afd9fe500011672e2","06/18/2022, 21:40:48",0.81841421939161,"31","M","right",1,1,0,0,FALSE,"E_C_F_harLev.jpg E_C_M_shaharHasson.jpg"
3295,"E_M_M_Ivri.jpg","E_C_F_shaniCo.jpg","TRUE","pictures/stimuli/Entertainmant","pictures/stimuli/Entertainmant","M","F","5","597ba81afd9fe500011672e2","06/18/2022, 21:40:48",-0.096284025810778,"31","M","right",1,1,0,0,FALSE,"E_C_F_shaniCo.jpg E_M_M_Ivri.jpg"
3453,"E_M_M_Ivri.jpg","E_M_M_tavori.jpg","TRUE","pictures/stimuli/Entertainmant","pictures/stimuli/Entertainmant","M","M","6","597ba81afd9fe500011672e2","06/18/2022, 21:40:48",0.81841421939161,"31","M","right",1,1,0,0,FALSE,"E_M_M_Ivri.jpg E_M_M_tavori.jpg"
3143,"E_M_M_Ivri.jpg","E_M_F_rita.jpg","TRUE","pictures/stimuli/Entertainmant","pictures/stimuli/Entertainmant","M","F","5","597ba81afd9fe500011672e2","06/18/2022, 21:40:48",-0.096284025810778,"31","M","right",1,1,0,0,FALSE,"E_M_F_rita.jpg E_M_M_Ivri.jpg"
3255,"P_N_M_lapid.jpg","P_P_M_zamir.jpg","TRUE","pictures/stimuli/Politics","pictures/stimuli/Politics","M","M","3","597ba81afd9fe500011672e2","06/18/2022, 21:40:48",-1.92568051621555,"31","M","right",1,1,0,0,FALSE,"P_N_M_lapid.jpg P_P_M_zamir.jpg"
4771,"E_C_M_mushonov.jpg","P_P_M_smootrich.jpg","FALSE","pictures/stimuli/Entertainmant","pictures/stimuli/Politics","M","M","5","597ba81afd9fe500011672e2","06/18/2022, 21:40:48",-0.096284025810778,"31","M","right",1,1,0,0,FALSE,"E_C_M_mushonov.jpg P_P_M_smootrich.jpg"
4175,"E_C_F_ornaBanai.jpg","P_N_M_lapid.jpg","FALSE","pictures/stimuli/Entertainmant","pictures/stimuli/Politics","F","M","6","597ba81afd9fe500011672e2","06/18/2022, 21:40:48",0.81841421939161,"31","M","right",1,1,0,0,FALSE,"E_C_F_ornaBanai.jpg P_N_M_lapid.jpg"
2405,"E_C_M_katorza.jpg","E_M_F_rita.jpg","TRUE","pictures/stimuli/Entertainmant","pictures/stimuli/Entertainmant","M","F","6","597ba81afd9fe500011672e2","06/18/2022, 21:40:48",0.81841421939161,"31","M","right",1,1,0,0,FALSE,"E_C_M_katorza.jpg E_M_F_rita.jpg"
3495,"E_M_F_rita.jpg","P_P_M_smootrich.jpg","FALSE","pictures/stimuli/Entertainmant","pictures/stimuli/Politics","F","M","5","597ba81afd9fe500011672e2","06/18/2022, 21:40:48",-0.096284025810778,"31","M","right",1,1,0,0,FALSE,"E_M_F_rita.jpg P_P_M_smootrich.jpg"
2667,"E_C_F_shaniCo.jpg","P_P_M_benet.jpg","FALSE","pictures/stimuli/Entertainmant","pictures/stimuli/Politics","F","M","6","597ba81afd9fe500011672e2","06/18/2022, 21:40:48",0.81841421939161,"31","M","right",1,1,0,0,FALSE,"E_C_F_shaniCo.jpg P_P_M_benet.jpg"
3846,"E_M_M_tavori.jpg","P_P_M_peretz.jpg","FALSE","pictures/stimuli/Entertainmant","pictures/stimuli/Politics","M","M","4","597ba81afd9fe500011672e2","06/18/2022, 21:40:48",-1.01098227101317,"31","M","right",1,1,0,0,FALSE,"E_M_M_tavori.jpg P_P_M_peretz.jpg"
3105,"E_C_M_shaharHasson.jpg","E_H_F_yanai.jpg","TRUE","pictures/stimuli/Entertainmant","pictures/stimuli/Entertainmant","M","F","6","597ba81afd9fe500011672e2","06/18/2022, 21:40:48",0.81841421939161,"31","M","right",1,1,0,0,FALSE,"E_C_M_shaharHasson.jpg E_H_F_yanai.jpg"
5773,"P_P_F_michaeliM.jpg","P_N_F_yehimovitz.jpg","TRUE","pictures/stimuli/Politics","pictures/stimuli/Politics","F","F","4","597ba81afd9fe500011672e2","06/18/2022, 21:40:48",-1.01098227101317,"31","M","right",1,1,0,0,FALSE,"P_N_F_yehimovitz.jpg P_P_F_michaeliM.jpg"
2721,"E_M_M_Ivri.jpg","E_C_M_katorza.jpg","TRUE","pictures/stimuli/Entertainmant","pictures/stimuli/Entertainmant","M","M","6","597ba81afd9fe500011672e2","06/18/2022, 21:40:48",0.81841421939161,"31","M","right",1,1,0,0,FALSE,"E_C_M_katorza.jpg E_M_M_Ivri.jpg"
3896,"E_M_M_Ivri.jpg","E_C_F_ornaBanai.jpg","TRUE","pictures/stimuli/Entertainmant","pictures/stimuli/Entertainmant","M","F","6","597ba81afd9fe500011672e2","06/18/2022, 21:40:48",0.81841421939161,"31","M","right",1,1,0,0,FALSE,"E_C_F_ornaBanai.jpg E_M_M_Ivri.jpg"
3225,"E_H_F_yanai.jpg","P_N_F_yehimovitz.jpg","FALSE","pictures/stimuli/Entertainmant","pictures/stimuli/Politics","F","F","3","597ba81afd9fe500011672e2","06/18/2022, 21:40:48",-1.92568051621555,"31","M","right",1,1,0,0,FALSE,"E_H_F_yanai.jpg P_N_F_yehimovitz.jpg"
5724,"E_C_M_alfi.jpg","E_C_M_mushonov.jpg","TRUE","pictures/stimuli/Entertainmant","pictures/stimuli/Entertainmant","M","M","6","597ba81afd9fe500011672e2","06/18/2022, 21:40:48",0.81841421939161,"31","M","right",1,1,0,0,FALSE,"E_C_M_alfi.jpg E_C_M_mushonov.jpg"
4346,"E_C_M_alfi.jpg","P_N_M_lapid.jpg","FALSE","pictures/stimuli/Entertainmant","pictures/stimuli/Politics","M","M","5","597ba81afd9fe500011672e2","06/18/2022, 21:40:48",-0.096284025810778,"31","M","right",1,1,0,0,FALSE,"E_C_M_alfi.jpg P_N_M_lapid.jpg"
4614,"P_N_F_yehimovitz.jpg","P_P_M_zamir.jpg","TRUE","pictures/stimuli/Politics","pictures/stimuli/Politics","F","M","5","597ba81afd9fe500011672e2","06/18/2022, 21:40:48",-0.096284025810778,"31","M","right",1,1,0,0,FALSE,"P_N_F_yehimovitz.jpg P_P_M_zamir.jpg"
5658,"E_C_F_ornaBanai.jpg","P_N_F_yehimovitz.jpg","FALSE","pictures/stimuli/Entertainmant","pictures/stimuli/Politics","F","F","5","597ba81afd9fe500011672e2","06/18/2022, 21:40:48",-0.096284025810778,"31","M","right",1,1,0,0,FALSE,"E_C_F_ornaBanai.jpg P_N_F_yehimovitz.jpg"
3331,"P_P_M_peretz.jpg","P_P_M_smootrich.jpg","TRUE","pictures/stimuli/Politics","pictures/stimuli/Politics","M","M","5","597ba81afd9fe500011672e2","06/18/2022, 21:40:48",-0.096284025810778,"31","M","right",1,1,0,0,FALSE,"P_P_M_peretz.jpg P_P_M_smootrich.jpg"
5173,"E_M_M_Ivri.jpg","P_P_M_zamir.jpg","FALSE","pictures/stimuli/Entertainmant","pictures/stimuli/Politics","M","M","3","597ba81afd9fe500011672e2","06/18/2022, 21:40:48",-1.92568051621555,"31","M","right",1,1,0,0,FALSE,"E_M_M_Ivri.jpg P_P_M_zamir.jpg"
3205,"E_M_M_tavori.jpg","P_P_M_smootrich.jpg","FALSE","pictures/stimuli/Entertainmant","pictures/stimuli/Politics","M","M","6","597ba81afd9fe500011672e2","06/18/2022, 21:40:48",0.81841421939161,"31","M","right",1,1,0,0,FALSE,"E_M_M_tavori.jpg P_P_M_smootrich.jpg"
4114,"P_P_M_liberman.jpg","P_P_M_peretz.jpg","TRUE","pictures/stimuli/Politics","pictures/stimuli/Politics","M","M","6","597ba81afd9fe500011672e2","06/18/2022, 21:40:48",0.81841421939161,"31","M","right",1,1,0,0,FALSE,"P_P_M_liberman.jpg P_P_M_peretz.jpg"
3227,"E_M_M_tavori.jpg","P_N_F_yehimovitz.jpg","FALSE","pictures/stimuli/Entertainmant","pictures/stimuli/Politics","M","F","6","597ba81afd9fe500011672e2","06/18/2022, 21:40:48",0.81841421939161,"31","M","right",1,1,0,0,FALSE,"E_M_M_tavori.jpg P_N_F_yehimovitz.jpg"
6861,"P_P_M_benet.jpg","P_N_M_lapid.jpg","TRUE","pictures/stimuli/Politics","pictures/stimuli/Politics","M","M","5","597ba81afd9fe500011672e2","06/18/2022, 21:40:48",-0.096284025810778,"31","M","right",1,1,0,0,FALSE,"P_N_M_lapid.jpg P_P_M_benet.jpg"
2470,"P_P_M_peretz.jpg","P_N_F_yehimovitz.jpg","TRUE","pictures/stimuli/Politics","pictures/stimuli/Politics","M","F","6","597ba81afd9fe500011672e2","06/18/2022, 21:40:48",0.81841421939161,"31","M","right",1,1,0,0,FALSE,"P_N_F_yehimovitz.jpg P_P_M_peretz.jpg"
4439,"E_M_M_Ivri.jpg","P_P_F_shaked.jpg","FALSE","pictures/stimuli/Entertainmant","pictures/stimuli/Politics","M","F","6","597ba81afd9fe500011672e2","06/18/2022, 21:40:48",0.81841421939161,"31","M","right",1,1,0,0,FALSE,"E_M_M_Ivri.jpg P_P_F_shaked.jpg"
3361,"E_C_F_ornaBanai.jpg","P_P_M_liberman.jpg","FALSE","pictures/stimuli/Entertainmant","pictures/stimuli/Politics","F","M","6","597ba81afd9fe500011672e2","06/18/2022, 21:40:48",0.81841421939161,"31","M","right",1,1,0,0,FALSE,"E_C_F_ornaBanai.jpg P_P_M_liberman.jpg"
3768,"E_M_M_tavori.jpg","P_P_F_michaeliM.jpg","FALSE","pictures/stimuli/Entertainmant","pictures/stimuli/Politics","M","F","6","597ba81afd9fe500011672e2","06/18/2022, 21:40:48",0.81841421939161,"31","M","right",1,1,0,0,FALSE,"E_M_M_tavori.jpg P_P_F_michaeliM.jpg"
4017,"E_C_M_alfi.jpg","P_P_M_liberman.jpg","FALSE","pictures/stimuli/Entertainmant","pictures/stimuli/Politics","M","M","5","597ba81afd9fe500011672e2","06/18/2022, 21:40:48",-0.096284025810778,"31","M","right",1,1,0,0,FALSE,"E_C_M_alfi.jpg P_P_M_liberman.jpg"
4973,"P_N_M_lapid.jpg","P_P_M_liberman.jpg","TRUE","pictures/stimuli/Politics","pictures/stimuli/Politics","M","M","6","597ba81afd9fe500011672e2","06/18/2022, 21:40:48",0.81841421939161,"31","M","right",1,1,0,0,FALSE,"P_N_M_lapid.jpg P_P_M_liberman.jpg"
3972,"E_M_M_Ivri.jpg","P_N_M_lapid.jpg","FALSE","pictures/stimuli/Entertainmant","pictures/stimuli/Politics","M","M","4","597ba81afd9fe500011672e2","06/18/2022, 21:40:48",-1.01098227101317,"31","M","right",1,1,0,0,FALSE,"E_M_M_Ivri.jpg P_N_M_lapid.jpg"
5570,"E_C_F_shaniCo.jpg","P_P_F_michaeliM.jpg","FALSE","pictures/stimuli/Entertainmant","pictures/stimuli/Politics","F","F","4","597ba81afd9fe500011672e2","06/18/2022, 21:40:48",-1.01098227101317,"31","M","right",1,1,0,0,FALSE,"E_C_F_shaniCo.jpg P_P_F_michaeliM.jpg"
3666,"E_M_M_tavori.jpg","E_H_F_yanai.jpg","TRUE","pictures/stimuli/Entertainmant","pictures/stimuli/Entertainmant","M","F","6","597ba81afd9fe500011672e2","06/18/2022, 21:40:48",0.81841421939161,"31","M","right",1,1,0,0,FALSE,"E_H_F_yanai.jpg E_M_M_tavori.jpg"
4379,"E_C_M_katorza.jpg","P_P_M_peretz.jpg","FALSE","pictures/stimuli/Entertainmant","pictures/stimuli/Politics","M","M","4","597ba81afd9fe500011672e2","06/18/2022, 21:40:48",-1.01098227101317,"31","M","right",1,1,0,0,FALSE,"E_C_M_katorza.jpg P_P_M_peretz.jpg"
2607,"E_C_F_shaniCo.jpg","P_P_M_liberman.jpg","FALSE","pictures/stimuli/Entertainmant","pictures/stimuli/Politics","F","M","6","597ba81afd9fe500011672e2","06/18/2022, 21:40:48",0.81841421939161,"31","M","right",1,1,0,0,FALSE,"E_C_F_shaniCo.jpg P_P_M_liberman.jpg"
5151,"P_N_M_lapid.jpg","P_P_M_smootrich.jpg","TRUE","pictures/stimuli/Politics","pictures/stimuli/Politics","M","M","6","597ba81afd9fe500011672e2","06/18/2022, 21:40:48",0.81841421939161,"31","M","right",1,1,0,0,FALSE,"P_N_M_lapid.jpg P_P_M_smootrich.jpg"
6062,"E_H_F_yanai.jpg","P_P_F_michaeliM.jpg","FALSE","pictures/stimuli/Entertainmant","pictures/stimuli/Politics","F","F","5","597ba81afd9fe500011672e2","06/18/2022, 21:40:48",-0.096284025810778,"31","M","right",1,1,0,0,FALSE,"E_H_F_yanai.jpg P_P_F_michaeliM.jpg"
2827,"E_C_M_shaharHasson.jpg","P_P_M_peretz.jpg","FALSE","pictures/stimuli/Entertainmant","pictures/stimuli/Politics","M","M","4","597ba81afd9fe500011672e2","06/18/2022, 21:40:48",-1.01098227101317,"31","M","right",1,1,0,0,FALSE,"E_C_M_shaharHasson.jpg P_P_M_peretz.jpg"
5957,"E_C_F_harLev.jpg","E_M_F_rita.jpg","TRUE","pictures/stimuli/Entertainmant","pictures/stimuli/Entertainmant","F","F","3","597ba81afd9fe500011672e2","06/18/2022, 21:40:48",-1.92568051621555,"31","M","right",1,1,0,0,FALSE,"E_C_F_harLev.jpg E_M_F_rita.jpg"
3687,"E_H_F_yanai.jpg","P_P_M_peretz.jpg","FALSE","pictures/stimuli/Entertainmant","pictures/stimuli/Politics","F","M","6","597ba81afd9fe500011672e2","06/18/2022, 21:40:48",0.81841421939161,"31","M","right",1,1,0,0,FALSE,"E_H_F_yanai.jpg P_P_M_peretz.jpg"
3029,"E_M_F_rita.jpg","E_C_F_shaniCo.jpg","TRUE","pictures/stimuli/Entertainmant","pictures/stimuli/Entertainmant","F","F","3","597ba81afd9fe500011672e2","06/18/2022, 21:40:48",-1.92568051621555,"31","M","right",1,1,0,0,FALSE,"E_C_F_shaniCo.jpg E_M_F_rita.jpg"
4046,"P_P_F_shaked.jpg","P_P_M_zamir.jpg","TRUE","pictures/stimuli/Politics","pictures/stimuli/Politics","F","M","6","597ba81afd9fe500011672e2","06/18/2022, 21:40:48",0.81841421939161,"31","M","right",1,1,0,0,FALSE,"P_P_F_shaked.jpg P_P_M_zamir.jpg"
3725,"E_M_M_tavori.jpg","P_P_M_zamir.jpg","FALSE","pictures/stimuli/Entertainmant","pictures/stimuli/Politics","M","M","6","597ba81afd9fe500011672e2","06/18/2022, 21:40:48",0.81841421939161,"31","M","right",1,1,0,0,FALSE,"E_M_M_tavori.jpg P_P_M_zamir.jpg"
6173,"E_C_F_shaniCo.jpg","P_P_F_shaked.jpg","FALSE","pictures/stimuli/Entertainmant","pictures/stimuli/Politics","F","F","3","597ba81afd9fe500011672e2","06/18/2022, 21:40:48",-1.92568051621555,"31","M","right",1,1,0,0,FALSE,"E_C_F_shaniCo.jpg P_P_F_shaked.jpg"
2427,"E_H_F_yanai.jpg","P_P_M_liberman.jpg","FALSE","pictures/stimuli/Entertainmant","pictures/stimuli/Politics","F","M","6","597ba81afd9fe500011672e2","06/18/2022, 21:40:48",0.81841421939161,"31","M","right",1,1,0,0,FALSE,"E_H_F_yanai.jpg P_P_M_liberman.jpg"
2809,"E_C_F_harLev.jpg","E_C_M_mushonov.jpg","TRUE","pictures/stimuli/Entertainmant","pictures/stimuli/Entertainmant","F","M","6","597ba81afd9fe500011672e2","06/18/2022, 21:40:48",0.81841421939161,"31","M","right",1,1,0,0,FALSE,"E_C_F_harLev.jpg E_C_M_mushonov.jpg"
2338,"P_P_M_liberman.jpg","P_N_F_yehimovitz.jpg","TRUE","pictures/stimuli/Politics","pictures/stimuli/Politics","M","F","6","597ba81afd9fe500011672e2","06/18/2022, 21:40:48",0.81841421939161,"31","M","right",1,1,0,0,FALSE,"P_N_F_yehimovitz.jpg P_P_M_liberman.jpg"
4786,"E_C_F_ornaBanai.jpg","E_M_M_tavori.jpg","TRUE","pictures/stimuli/Entertainmant","pictures/stimuli/Entertainmant","F","M","6","597ba81afd9fe500011672e2","06/18/2022, 21:40:48",0.81841421939161,"31","M","right",1,1,0,0,FALSE,"E_C_F_ornaBanai.jpg E_M_M_tavori.jpg"
2344,"E_C_M_alfi.jpg","E_M_M_Ivri.jpg","TRUE","pictures/stimuli/Entertainmant","pictures/stimuli/Entertainmant","M","M","4","597ba81afd9fe500011672e2","06/18/2022, 21:40:48",-1.01098227101317,"31","M","right",1,1,0,0,FALSE,"E_C_M_alfi.jpg E_M_M_Ivri.jpg"
2396,"E_M_F_rita.jpg","P_P_M_zamir.jpg","FALSE","pictures/stimuli/Entertainmant","pictures/stimuli/Politics","F","M","5","597ba81afd9fe500011672e2","06/18/2022, 21:40:48",-0.096284025810778,"31","M","right",1,1,0,0,FALSE,"E_M_F_rita.jpg P_P_M_zamir.jpg"
2990,"E_C_F_harLev.jpg","P_P_M_liberman.jpg","FALSE","pictures/stimuli/Entertainmant","pictures/stimuli/Politics","F","M","6","597ba81afd9fe500011672e2","06/18/2022, 21:40:48",0.81841421939161,"31","M","right",1,1,0,0,FALSE,"E_C_F_harLev.jpg P_P_M_liberman.jpg"
6839,"P_P_M_benet.jpg","P_P_M_smootrich.jpg","TRUE","pictures/stimuli/Politics","pictures/stimuli/Politics","M","M","3","597ba81afd9fe500011672e2","06/18/2022, 21:40:48",-1.92568051621555,"31","M","right",1,1,0,0,FALSE,"P_P_M_benet.jpg P_P_M_smootrich.jpg"
4096,"E_C_M_mushonov.jpg","P_P_M_liberman.jpg","FALSE","pictures/stimuli/Entertainmant","pictures/stimuli/Politics","M","M","4","597ba81afd9fe500011672e2","06/18/2022, 21:40:48",-1.01098227101317,"31","M","right",1,1,0,0,FALSE,"E_C_M_mushonov.jpg P_P_M_liberman.jpg"
2564,"E_C_F_shaniCo.jpg","E_M_M_tavori.jpg","TRUE","pictures/stimuli/Entertainmant","pictures/stimuli/Entertainmant","F","M","6","597ba81afd9fe500011672e2","06/18/2022, 21:40:48",0.81841421939161,"31","M","right",1,1,0,0,FALSE,"E_C_F_shaniCo.jpg E_M_M_tavori.jpg"
2699,"E_M_F_rita.jpg","P_P_M_benet.jpg","FALSE","pictures/stimuli/Entertainmant","pictures/stimuli/Politics","F","M","5","597ba81afd9fe500011672e2","06/18/2022, 21:40:48",-0.096284025810778,"31","M","right",1,1,0,0,FALSE,"E_M_F_rita.jpg P_P_M_benet.jpg"
3110,"E_M_M_Ivri.jpg","P_N_F_yehimovitz.jpg","FALSE","pictures/stimuli/Entertainmant","pictures/stimuli/Politics","M","F","6","597ba81afd9fe500011672e2","06/18/2022, 21:40:48",0.81841421939161,"31","M","right",1,1,0,0,FALSE,"E_M_M_Ivri.jpg P_N_F_yehimovitz.jpg"
5849,"P_P_F_michaeliM.jpg","P_P_F_shaked.jpg","TRUE","pictures/stimuli/Politics","pictures/stimuli/Politics","F","F","4","597ba81afd9fe500011672e2","06/18/2022, 21:40:48",-1.01098227101317,"31","M","right",1,1,0,0,FALSE,"P_P_F_michaeliM.jpg P_P_F_shaked.jpg"
2435,"E_C_M_mushonov.jpg","P_P_F_shaked.jpg","FALSE","pictures/stimuli/Entertainmant","pictures/stimuli/Politics","M","F","4","597ba81afd9fe500011672e2","06/18/2022, 21:40:48",-1.01098227101317,"31","M","right",1,1,0,0,FALSE,"E_C_M_mushonov.jpg P_P_F_shaked.jpg"
2404,"E_C_F_ornaBanai.jpg","E_M_F_rita.jpg","TRUE","pictures/stimuli/Entertainmant","pictures/stimuli/Entertainmant","F","F","5","597ba81afd9fe500011672e2","06/18/2022, 21:40:48",-0.096284025810778,"31","M","right",1,1,0,0,FALSE,"E_C_F_ornaBanai.jpg E_M_F_rita.jpg"
2818,"E_C_M_alfi.jpg","P_P_M_zamir.jpg","FALSE","pictures/stimuli/Entertainmant","pictures/stimuli/Politics","M","M","4","597ba81afd9fe500011672e2","06/18/2022, 21:40:48",-1.01098227101317,"31","M","right",1,1,0,0,FALSE,"E_C_M_alfi.jpg P_P_M_zamir.jpg"
3576,"E_C_M_shaharHasson.jpg","P_N_M_lapid.jpg","FALSE","pictures/stimuli/Entertainmant","pictures/stimuli/Politics","M","M","6","597ba81afd9fe500011672e2","06/18/2022, 21:40:48",0.81841421939161,"31","M","right",1,1,0,0,FALSE,"E_C_M_shaharHasson.jpg P_N_M_lapid.jpg"
3168,"E_C_F_harLev.jpg","E_M_M_Ivri.jpg","TRUE","pictures/stimuli/Entertainmant","pictures/stimuli/Entertainmant","F","M","5","597ba81afd9fe500011672e2","06/18/2022, 21:40:48",-0.096284025810778,"31","M","right",1,1,0,0,FALSE,"E_C_F_harLev.jpg E_M_M_Ivri.jpg"
4038,"E_C_F_harLev.jpg","P_P_M_peretz.jpg","FALSE","pictures/stimuli/Entertainmant","pictures/stimuli/Politics","F","M","6","597ba81afd9fe500011672e2","06/18/2022, 21:40:48",0.81841421939161,"31","M","right",1,1,0,0,FALSE,"E_C_F_harLev.jpg P_P_M_peretz.jpg"
3939,"E_C_M_shaharHasson.jpg","P_P_F_shaked.jpg","FALSE","pictures/stimuli/Entertainmant","pictures/stimuli/Politics","M","F","6","597ba81afd9fe500011672e2","06/18/2022, 21:40:48",0.81841421939161,"31","M","right",1,1,0,0,FALSE,"E_C_M_shaharHasson.jpg P_P_F_shaked.jpg"
2361,"P_P_F_michaeliM.jpg","P_P_M_smootrich.jpg","TRUE","pictures/stimuli/Politics","pictures/stimuli/Politics","F","M","6","597ba81afd9fe500011672e2","06/18/2022, 21:40:48",0.81841421939161,"31","M","right",1,1,0,0,FALSE,"P_P_F_michaeliM.jpg P_P_M_smootrich.jpg"
4340,"P_P_M_benet.jpg","P_P_M_peretz.jpg","TRUE","pictures/stimuli/Politics","pictures/stimuli/Politics","M","M","6","597ba81afd9fe500011672e2","06/18/2022, 21:40:48",0.81841421939161,"31","M","right",1,1,0,0,FALSE,"P_P_M_benet.jpg P_P_M_peretz.jpg"
2560,"E_C_F_harLev.jpg","P_P_M_zamir.jpg","FALSE","pictures/stimuli/Entertainmant","pictures/stimuli/Politics","F","M","6","597ba81afd9fe500011672e2","06/18/2022, 21:40:48",0.81841421939161,"31","M","right",1,1,0,0,FALSE,"E_C_F_harLev.jpg P_P_M_zamir.jpg"
3004,"E_C_M_alfi.jpg","E_C_F_shaniCo.jpg","TRUE","pictures/stimuli/Entertainmant","pictures/stimuli/Entertainmant","M","F","6","597ba81afd9fe500011672e2","06/18/2022, 21:40:48",0.81841421939161,"31","M","right",1,1,0,0,FALSE,"E_C_F_shaniCo.jpg E_C_M_alfi.jpg"
2856,"E_C_M_katorza.jpg","E_C_M_mushonov.jpg","TRUE","pictures/stimuli/Entertainmant","pictures/stimuli/Entertainmant","M","M","4","597ba81afd9fe500011672e2","06/18/2022, 21:40:48",-1.01098227101317,"31","M","right",1,1,0,0,FALSE,"E_C_M_katorza.jpg E_C_M_mushonov.jpg"
3135,"P_P_M_peretz.jpg","P_P_F_shaked.jpg","TRUE","pictures/stimuli/Politics","pictures/stimuli/Politics","M","F","6","597ba81afd9fe500011672e2","06/18/2022, 21:40:48",0.81841421939161,"31","M","right",1,1,0,0,FALSE,"P_P_F_shaked.jpg P_P_M_peretz.jpg"
4611,"P_P_M_smootrich.jpg","P_P_M_zamir.jpg","TRUE","pictures/stimuli/Politics","pictures/stimuli/Politics","M","M","2","597ba81afd9fe500011672e2","06/18/2022, 21:40:48",-2.84037876141794,"31","M","right",1,1,0,0,FALSE,"P_P_M_smootrich.jpg P_P_M_zamir.jpg"
2881,"E_C_M_alfi.jpg","E_C_M_shaharHasson.jpg","TRUE","pictures/stimuli/Entertainmant","pictures/stimuli/Entertainmant","M","M","3","597ba81afd9fe500011672e2","06/18/2022, 21:40:48",-1.92568051621555,"31","M","right",1,1,0,0,FALSE,"E_C_M_alfi.jpg E_C_M_shaharHasson.jpg"
3007,"E_C_M_alfi.jpg","P_P_M_smootrich.jpg","FALSE","pictures/stimuli/Entertainmant","pictures/stimuli/Politics","M","M","4","597ba81afd9fe500011672e2","06/18/2022, 21:40:48",-1.01098227101317,"31","M","right",1,1,0,0,FALSE,"E_C_M_alfi.jpg P_P_M_smootrich.jpg"
2570,"E_C_M_katorza.jpg","P_P_M_liberman.jpg","FALSE","pictures/stimuli/Entertainmant","pictures/stimuli/Politics","M","M","5","597ba81afd9fe500011672e2","06/18/2022, 21:40:48",-0.096284025810778,"31","M","right",1,1,0,0,FALSE,"E_C_M_katorza.jpg P_P_M_liberman.jpg"
2620,"E_M_M_Ivri.jpg","E_C_M_mushonov.jpg","TRUE","pictures/stimuli/Entertainmant","pictures/stimuli/Entertainmant","M","M","5","597ba81afd9fe500011672e2","06/18/2022, 21:40:48",-0.096284025810778,"31","M","right",1,1,0,0,FALSE,"E_C_M_mushonov.jpg E_M_M_Ivri.jpg"
2293,"E_C_M_alfi.jpg","P_N_F_yehimovitz.jpg","FALSE","pictures/stimuli/Entertainmant","pictures/stimuli/Politics","M","F","6","597ba81afd9fe500011672e2","06/18/2022, 21:40:48",0.81841421939161,"31","M","right",1,1,0,0,FALSE,"E_C_M_alfi.jpg P_N_F_yehimovitz.jpg"
2971,"E_C_M_katorza.jpg","E_C_F_shaniCo.jpg","TRUE","pictures/stimuli/Entertainmant","pictures/stimuli/Entertainmant","M","F","6","597ba81afd9fe500011672e2","06/18/2022, 21:40:48",0.81841421939161,"31","M","right",1,1,0,0,FALSE,"E_C_F_shaniCo.jpg E_C_M_katorza.jpg"
4235,"E_C_M_shaharHasson.jpg","P_P_M_liberman.jpg","FALSE","pictures/stimuli/Entertainmant","pictures/stimuli/Politics","M","M","6","597ba81afd9fe500011672e2","06/18/2022, 21:40:48",0.81841421939161,"31","M","right",1,1,0,0,FALSE,"E_C_M_shaharHasson.jpg P_P_M_liberman.jpg"
2485,"E_C_M_katorza.jpg","P_N_F_yehimovitz.jpg","FALSE","pictures/stimuli/Entertainmant","pictures/stimuli/Politics","M","F","6","597ba81afd9fe500011672e2","06/18/2022, 21:40:48",0.81841421939161,"31","M","right",1,1,0,0,FALSE,"E_C_M_katorza.jpg P_N_F_yehimovitz.jpg"
3326,"E_C_F_shaniCo.jpg","P_P_M_zamir.jpg","FALSE","pictures/stimuli/Entertainmant","pictures/stimuli/Politics","F","M","6","597ba81afd9fe500011672e2","06/18/2022, 21:40:48",0.81841421939161,"31","M","right",1,1,0,0,FALSE,"E_C_F_shaniCo.jpg P_P_M_zamir.jpg"
3106,"E_M_M_tavori.jpg","P_N_M_lapid.jpg","FALSE","pictures/stimuli/Entertainmant","pictures/stimuli/Politics","M","M","6","597ba81afd9fe500011672e2","06/18/2022, 21:40:48",0.81841421939161,"31","M","right",1,1,0,0,FALSE,"E_M_M_tavori.jpg P_N_M_lapid.jpg"
2740,"E_C_F_ornaBanai.jpg","P_P_M_peretz.jpg","FALSE","pictures/stimuli/Entertainmant","pictures/stimuli/Politics","F","M","6","597ba81afd9fe500011672e2","06/18/2022, 21:40:48",0.81841421939161,"31","M","right",1,1,0,0,FALSE,"E_C_F_ornaBanai.jpg P_P_M_peretz.jpg"
3563,"E_C_F_harLev.jpg","P_P_F_michaeliM.jpg","FALSE","pictures/stimuli/Entertainmant","pictures/stimuli/Politics","F","F","5","597ba81afd9fe500011672e2","06/18/2022, 21:40:48",-0.096284025810778,"31","M","right",1,1,0,0,FALSE,"E_C_F_harLev.jpg P_P_F_michaeliM.jpg"
5397,"E_C_M_katorza.jpg","P_P_M_benet.jpg","FALSE","pictures/stimuli/Entertainmant","pictures/stimuli/Politics","M","M","6","597ba81afd9fe500011672e2","06/18/2022, 21:40:48",0.81841421939161,"31","M","right",1,1,0,0,FALSE,"E_C_M_katorza.jpg P_P_M_benet.jpg"
3520,"E_C_M_mushonov.jpg","E_M_M_tavori.jpg","TRUE","pictures/stimuli/Entertainmant","pictures/stimuli/Entertainmant","M","M","6","597ba81afd9fe500011672e2","06/18/2022, 21:40:48",0.81841421939161,"31","M","right",1,1,0,0,FALSE,"E_C_M_mushonov.jpg E_M_M_tavori.jpg"
4834,"P_N_M_lapid.jpg","P_N_F_yehimovitz.jpg","TRUE","pictures/stimuli/Politics","pictures/stimuli/Politics","M","F","6","597ba81afd9fe500011672e2","06/18/2022, 21:40:48",0.81841421939161,"31","M","right",1,1,0,0,FALSE,"P_N_F_yehimovitz.jpg P_N_M_lapid.jpg"
2733,"E_M_F_rita.jpg","P_N_M_lapid.jpg","FALSE","pictures/stimuli/Entertainmant","pictures/stimuli/Politics","F","M","6","597ba81afd9fe500011672e2","06/18/2022, 21:40:48",0.81841421939161,"31","M","right",1,1,0,0,FALSE,"E_M_F_rita.jpg P_N_M_lapid.jpg"
5423,"E_C_M_katorza.jpg","P_P_F_michaeliM.jpg","FALSE","pictures/stimuli/Entertainmant","pictures/stimuli/Politics","M","F","6","597ba81afd9fe500011672e2","06/18/2022, 21:40:48",0.81841421939161,"31","M","right",1,1,0,0,FALSE,"E_C_M_katorza.jpg P_P_F_michaeliM.jpg"
3172,"E_C_M_katorza.jpg","E_C_F_ornaBanai.jpg","TRUE","pictures/stimuli/Entertainmant","pictures/stimuli/Entertainmant","M","F","6","597ba81afd9fe500011672e2","06/18/2022, 21:40:48",0.81841421939161,"31","M","right",1,1,0,0,FALSE,"E_C_F_ornaBanai.jpg E_C_M_katorza.jpg"
5298,"E_H_F_yanai.jpg","P_P_M_benet.jpg","FALSE","pictures/stimuli/Entertainmant","pictures/stimuli/Politics","F","M","5","597ba81afd9fe500011672e2","06/18/2022, 21:40:48",-0.096284025810778,"31","M","right",1,1,0,0,FALSE,"E_H_F_yanai.jpg P_P_M_benet.jpg"
5086,"E_C_M_mushonov.jpg","E_H_F_yanai.jpg","TRUE","pictures/stimuli/Entertainmant","pictures/stimuli/Entertainmant","M","F","5","597ba81afd9fe500011672e2","06/18/2022, 21:40:48",-0.096284025810778,"31","M","right",1,1,0,0,FALSE,"E_C_M_mushonov.jpg E_H_F_yanai.jpg"
2416,"E_M_F_rita.jpg","P_P_M_liberman.jpg","FALSE","pictures/stimuli/Entertainmant","pictures/stimuli/Politics","F","M","6","597ba81afd9fe500011672e2","06/18/2022, 21:40:48",0.81841421939161,"31","M","right",1,1,0,0,FALSE,"E_M_F_rita.jpg P_P_M_liberman.jpg"
2752,"E_C_M_shaharHasson.jpg","P_P_M_benet.jpg","FALSE","pictures/stimuli/Entertainmant","pictures/stimuli/Politics","M","M","6","597ba81afd9fe500011672e2","06/18/2022, 21:40:48",0.81841421939161,"31","M","right",1,1,0,0,FALSE,"E_C_M_shaharHasson.jpg P_P_M_benet.jpg"
1944,"E_C_F_harLev.jpg","E_M_M_tavori.jpg","TRUE","pictures/stimuli/Entertainmant","pictures/stimuli/Entertainmant","F","M","6","597ba81afd9fe500011672e2","06/18/2022, 21:40:48",0.81841421939161,"31","M","right",1,1,0,0,FALSE,"E_C_F_harLev.jpg E_M_M_tavori.jpg"
1944,"P_P_M_benet.jpg","P_N_F_yehimovitz.jpg","TRUE","pictures/stimuli/Politics","pictures/stimuli/Politics","M","F","6","597ba81afd9fe500011672e2","06/18/2022, 21:40:48",0.81841421939161,"31","M","right",1,1,0,0,FALSE,"P_N_F_yehimovitz.jpg P_P_M_benet.jpg"
2269,"E_M_F_rita.jpg","E_C_M_shaharHasson.jpg","TRUE","pictures/stimuli/Entertainmant","pictures/stimuli/Entertainmant","F","M","6","597ba81afd9fe500011672e2","06/18/2022, 21:40:48",0.81841421939161,"31","M","right",1,1,0,0,FALSE,"E_C_M_shaharHasson.jpg E_M_F_rita.jpg"
6401,"P_P_M_smootrich.jpg","P_N_F_yehimovitz.jpg","TRUE","pictures/stimuli/Politics","pictures/stimuli/Politics","M","F","5","597ba81afd9fe500011672e2","06/18/2022, 21:40:48",-0.096284025810778,"31","M","right",1,1,0,0,FALSE,"P_N_F_yehimovitz.jpg P_P_M_smootrich.jpg"
3791,"E_C_M_mushonov.jpg","E_C_F_ornaBanai.jpg","TRUE","pictures/stimuli/Entertainmant","pictures/stimuli/Entertainmant","M","F","6","597ba81afd9fe500011672e2","06/18/2022, 21:40:48",0.81841421939161,"31","M","right",1,1,0,0,FALSE,"E_C_F_ornaBanai.jpg E_C_M_mushonov.jpg"
4205,"E_C_M_katorza.jpg","P_P_M_smootrich.jpg","FALSE","pictures/stimuli/Entertainmant","pictures/stimuli/Politics","M","M","6","597ba81afd9fe500011672e2","06/18/2022, 21:40:48",0.81841421939161,"31","M","right",1,1,0,0,FALSE,"E_C_M_katorza.jpg P_P_M_smootrich.jpg"
3295,"P_N_M_lapid.jpg","P_P_F_shaked.jpg","TRUE","pictures/stimuli/Politics","pictures/stimuli/Politics","M","F","5","597ba81afd9fe500011672e2","06/18/2022, 21:40:48",-0.096284025810778,"31","M","right",1,1,0,0,FALSE,"P_N_M_lapid.jpg P_P_F_shaked.jpg"
3739,"P_P_M_benet.jpg","P_P_M_liberman.jpg","TRUE","pictures/stimuli/Politics","pictures/stimuli/Politics","M","M","6","597ba81afd9fe500011672e2","06/18/2022, 21:40:48",0.81841421939161,"31","M","right",1,1,0,0,FALSE,"P_P_M_benet.jpg P_P_M_liberman.jpg"
3770,"E_C_M_alfi.jpg","E_C_F_harLev.jpg","TRUE","pictures/stimuli/Entertainmant","pictures/stimuli/Entertainmant","M","F","6","597ba81afd9fe500011672e2","06/18/2022, 21:40:48",0.81841421939161,"31","M","right",1,1,0,0,FALSE,"E_C_F_harLev.jpg E_C_M_alfi.jpg"
3421,"E_C_F_ornaBanai.jpg","E_C_M_shaharHasson.jpg","TRUE","pictures/stimuli/Entertainmant","pictures/stimuli/Entertainmant","F","M","6","597ba81afd9fe500011672e2","06/18/2022, 21:40:48",0.81841421939161,"31","M","right",1,1,0,0,FALSE,"E_C_F_ornaBanai.jpg E_C_M_shaharHasson.jpg"
3180,"E_M_M_tavori.jpg","P_P_F_shaked.jpg","FALSE","pictures/stimuli/Entertainmant","pictures/stimuli/Politics","M","F","6","597ba81afd9fe500011672e2","06/18/2022, 21:40:48",0.81841421939161,"31","M","right",1,1,0,0,FALSE,"E_M_M_tavori.jpg P_P_F_shaked.jpg"
3476,"E_C_M_mushonov.jpg","E_C_M_shaharHasson.jpg","TRUE","pictures/stimuli/Entertainmant","pictures/stimuli/Entertainmant","M","M","5","597ba81afd9fe500011672e2","06/18/2022, 21:40:48",-0.096284025810778,"31","M","right",1,1,0,0,FALSE,"E_C_M_mushonov.jpg E_C_M_shaharHasson.jpg"
4839,"E_C_F_harLev.jpg","P_P_M_smootrich.jpg","FALSE","pictures/stimuli/Entertainmant","pictures/stimuli/Politics","F","M","4","597ba81afd9fe500011672e2","06/18/2022, 21:40:48",-1.01098227101317,"31","M","right",1,1,0,0,FALSE,"E_C_F_harLev.jpg P_P_M_smootrich.jpg"
3553,"E_M_M_Ivri.jpg","E_C_M_shaharHasson.jpg","TRUE","pictures/stimuli/Entertainmant","pictures/stimuli/Entertainmant","M","M","6","597ba81afd9fe500011672e2","06/18/2022, 21:40:48",0.81841421939161,"31","M","right",1,1,0,0,FALSE,"E_C_M_shaharHasson.jpg E_M_M_Ivri.jpg"
2957,"E_C_M_alfi.jpg","E_M_F_rita.jpg","TRUE","pictures/stimuli/Entertainmant","pictures/stimuli/Entertainmant","M","F","6","597ba81afd9fe500011672e2","06/18/2022, 21:40:48",0.81841421939161,"31","M","right",1,1,0,0,FALSE,"E_C_M_alfi.jpg E_M_F_rita.jpg"
3571,"P_P_F_shaked.jpg","P_P_M_smootrich.jpg","TRUE","pictures/stimuli/Politics","pictures/stimuli/Politics","F","M","6","597ba81afd9fe500011672e2","06/18/2022, 21:40:48",0.81841421939161,"31","M","right",1,1,0,0,FALSE,"P_P_F_shaked.jpg P_P_M_smootrich.jpg"
5824,"E_M_M_Ivri.jpg","P_P_M_smootrich.jpg","FALSE","pictures/stimuli/Entertainmant","pictures/stimuli/Politics","M","M","5","597ba81afd9fe500011672e2","06/18/2022, 21:40:48",-0.096284025810778,"31","M","right",1,1,0,0,FALSE,"E_M_M_Ivri.jpg P_P_M_smootrich.jpg"
2665,"P_P_M_liberman.jpg","P_P_M_smootrich.jpg","TRUE","pictures/stimuli/Politics","pictures/stimuli/Politics","M","M","5","597ba81afd9fe500011672e2","06/18/2022, 21:40:48",-0.096284025810778,"31","M","right",1,1,0,0,FALSE,"P_P_M_liberman.jpg P_P_M_smootrich.jpg"
2716,"E_C_M_mushonov.jpg","P_P_M_zamir.jpg","FALSE","pictures/stimuli/Entertainmant","pictures/stimuli/Politics","M","M","3","597ba81afd9fe500011672e2","06/18/2022, 21:40:48",-1.92568051621555,"31","M","right",1,1,0,0,FALSE,"E_C_M_mushonov.jpg P_P_M_zamir.jpg"
3001,"E_C_M_katorza.jpg","P_P_F_shaked.jpg","FALSE","pictures/stimuli/Entertainmant","pictures/stimuli/Politics","M","F","6","597ba81afd9fe500011672e2","06/18/2022, 21:40:48",0.81841421939161,"31","M","right",1,1,0,0,FALSE,"E_C_M_katorza.jpg P_P_F_shaked.jpg"
3085,"E_C_M_shaharHasson.jpg","P_N_F_yehimovitz.jpg","FALSE","pictures/stimuli/Entertainmant","pictures/stimuli/Politics","M","F","6","597ba81afd9fe500011672e2","06/18/2022, 21:40:48",0.81841421939161,"31","M","right",1,1,0,0,FALSE,"E_C_M_shaharHasson.jpg P_N_F_yehimovitz.jpg"
2764,"E_C_M_katorza.jpg","E_H_F_yanai.jpg","TRUE","pictures/stimuli/Entertainmant","pictures/stimuli/Entertainmant","M","F","6","597ba81afd9fe500011672e2","06/18/2022, 21:40:48",0.81841421939161,"31","M","right",1,1,0,0,FALSE,"E_C_M_katorza.jpg E_H_F_yanai.jpg"
3064,"E_M_M_tavori.jpg","P_P_M_benet.jpg","FALSE","pictures/stimuli/Entertainmant","pictures/stimuli/Politics","M","M","6","597ba81afd9fe500011672e2","06/18/2022, 21:40:48",0.81841421939161,"31","M","right",1,1,0,0,FALSE,"E_M_M_tavori.jpg P_P_M_benet.jpg"
4076,"E_C_F_shaniCo.jpg","E_H_F_yanai.jpg","TRUE","pictures/stimuli/Entertainmant","pictures/stimuli/Entertainmant","F","F","2","597ba81afd9fe500011672e2","06/18/2022, 21:40:48",-2.84037876141794,"31","M","right",1,1,0,0,FALSE,"E_C_F_shaniCo.jpg E_H_F_yanai.jpg"
3000,"E_C_F_ornaBanai.jpg","P_P_M_smootrich.jpg","FALSE","pictures/stimuli/Entertainmant","pictures/stimuli/Politics","F","M","6","597ba81afd9fe500011672e2","06/18/2022, 21:40:48",0.81841421939161,"31","M","right",1,1,0,0,FALSE,"E_C_F_ornaBanai.jpg P_P_M_smootrich.jpg"
2812,"E_C_M_shaharHasson.jpg","E_C_F_shaniCo.jpg","TRUE","pictures/stimuli/Entertainmant","pictures/stimuli/Entertainmant","M","F","6","597ba81afd9fe500011672e2","06/18/2022, 21:40:48",0.81841421939161,"31","M","right",1,1,0,0,FALSE,"E_C_F_shaniCo.jpg E_C_M_shaharHasson.jpg"
4150,"E_C_F_shaniCo.jpg","P_N_F_yehimovitz.jpg","FALSE","pictures/stimuli/Entertainmant","pictures/stimuli/Politics","F","F","3","597ba81afd9fe500011672e2","06/18/2022, 21:40:48",-1.92568051621555,"31","M","right",1,1,0,0,FALSE,"E_C_F_shaniCo.jpg P_N_F_yehimovitz.jpg"
4022,"E_M_M_Ivri.jpg","P_P_M_liberman.jpg","FALSE","pictures/stimuli/Entertainmant","pictures/stimuli/Politics","M","M","6","597ba81afd9fe500011672e2","06/18/2022, 21:40:48",0.81841421939161,"31","M","right",1,1,0,0,FALSE,"E_M_M_Ivri.jpg P_P_M_liberman.jpg"
3282,"E_M_F_rita.jpg","E_H_F_yanai.jpg","TRUE","pictures/stimuli/Entertainmant","pictures/stimuli/Entertainmant","F","F","5","597ba81afd9fe500011672e2","06/18/2022, 21:40:48",-0.096284025810778,"31","M","right",1,1,0,0,FALSE,"E_H_F_yanai.jpg E_M_F_rita.jpg"
3395,"E_C_M_mushonov.jpg","P_P_F_michaeliM.jpg","FALSE","pictures/stimuli/Entertainmant","pictures/stimuli/Politics","M","F","5","597ba81afd9fe500011672e2","06/18/2022, 21:40:48",-0.096284025810778,"31","M","right",1,1,0,0,FALSE,"E_C_M_mushonov.jpg P_P_F_michaeliM.jpg"
3024,"E_C_M_mushonov.jpg","P_N_M_lapid.jpg","FALSE","pictures/stimuli/Entertainmant","pictures/stimuli/Politics","M","M","5","597ba81afd9fe500011672e2","06/18/2022, 21:40:48",-0.096284025810778,"31","M","right",1,1,0,0,FALSE,"E_C_M_mushonov.jpg P_N_M_lapid.jpg"
2138,"E_C_M_katorza.jpg","P_P_M_zamir.jpg","FALSE","pictures/stimuli/Entertainmant","pictures/stimuli/Politics","M","M","5","597ba81afd9fe500011672e2","06/18/2022, 21:40:48",-0.096284025810778,"31","M","right",1,1,0,0,FALSE,"E_C_M_katorza.jpg P_P_M_zamir.jpg"
3602,"P_P_M_benet.jpg","P_P_F_michaeliM.jpg","TRUE","pictures/stimuli/Politics","pictures/stimuli/Politics","M","F","6","597ba81afd9fe500011672e2","06/18/2022, 21:40:48",0.81841421939161,"31","M","right",1,1,0,0,FALSE,"P_P_F_michaeliM.jpg P_P_M_benet.jpg"
2608,"E_C_M_mushonov.jpg","P_P_M_benet.jpg","FALSE","pictures/stimuli/Entertainmant","pictures/stimuli/Politics","M","M","5","597ba81afd9fe500011672e2","06/18/2022, 21:40:48",-0.096284025810778,"31","M","right",1,1,0,0,FALSE,"E_C_M_mushonov.jpg P_P_M_benet.jpg"
3682,"E_H_F_yanai.jpg","P_P_M_zamir.jpg","FALSE","pictures/stimuli/Entertainmant","pictures/stimuli/Politics","F","M","6","597ba81afd9fe500011672e2","06/18/2022, 21:40:48",0.81841421939161,"31","M","right",1,1,0,0,FALSE,"E_H_F_yanai.jpg P_P_M_zamir.jpg"
6699,"E_C_M_mushonov.jpg","P_P_M_peretz.jpg","FALSE","pictures/stimuli/Entertainmant","pictures/stimuli/Politics","M","M","5","597ba81afd9fe500011672e2","06/18/2022, 21:40:48",-0.096284025810778,"31","M","right",1,1,0,0,FALSE,"E_C_M_mushonov.jpg P_P_M_peretz.jpg"
4631,"E_C_F_ornaBanai.jpg","E_H_F_yanai.jpg","TRUE","pictures/stimuli/Entertainmant","pictures/stimuli/Entertainmant","F","F","5","597ba81afd9fe500011672e2","06/18/2022, 21:40:48",-0.096284025810778,"31","M","right",1,1,0,0,FALSE,"E_C_F_ornaBanai.jpg E_H_F_yanai.jpg"
2923,"P_P_F_michaeliM.jpg","P_P_M_peretz.jpg","TRUE","pictures/stimuli/Politics","pictures/stimuli/Politics","F","M","6","597ba81afd9fe500011672e2","06/18/2022, 21:40:48",0.81841421939161,"31","M","right",1,1,0,0,FALSE,"P_P_F_michaeliM.jpg P_P_M_peretz.jpg"
3108,"E_C_M_alfi.jpg","P_P_M_benet.jpg","FALSE","pictures/stimuli/Entertainmant","pictures/stimuli/Politics","M","M","6","597ba81afd9fe500011672e2","06/18/2022, 21:40:48",0.81841421939161,"31","M","right",1,1,0,0,FALSE,"E_C_M_alfi.jpg P_P_M_benet.jpg"
5382,"P_P_M_liberman.jpg","P_P_M_zamir.jpg","TRUE","pictures/stimuli/Politics","pictures/stimuli/Politics","M","M","5","597ba81afd9fe500011672e2","06/18/2022, 21:40:48",-0.096284025810778,"31","M","right",1,1,0,0,FALSE,"P_P_M_liberman.jpg P_P_M_zamir.jpg"
2623,"E_C_M_mushonov.jpg","P_N_F_yehimovitz.jpg","FALSE","pictures/stimuli/Entertainmant","pictures/stimuli/Politics","M","F","4","597ba81afd9fe500011672e2","06/18/2022, 21:40:48",-1.01098227101317,"31","M","right",1,1,0,0,FALSE,"E_C_M_mushonov.jpg P_N_F_yehimovitz.jpg"
4219,"E_M_M_tavori.jpg","P_P_M_liberman.jpg","FALSE","pictures/stimuli/Entertainmant","pictures/stimuli/Politics","M","M","6","597ba81afd9fe500011672e2","06/18/2022, 21:40:48",0.81841421939161,"31","M","right",1,1,0,0,FALSE,"E_M_M_tavori.jpg P_P_M_liberman.jpg"
4934,"E_C_F_harLev.jpg","P_N_M_lapid.jpg","FALSE","pictures/stimuli/Entertainmant","pictures/stimuli/Politics","F","M","5","597ba81afd9fe500011672e2","06/18/2022, 21:40:48",-0.096284025810778,"31","M","right",1,1,0,0,FALSE,"E_C_F_harLev.jpg P_N_M_lapid.jpg"
5161,"P_N_M_lapid.jpg","P_P_F_michaeliM.jpg","TRUE","pictures/stimuli/Politics","pictures/stimuli/Politics","M","F","6","597ba81afd9fe500011672e2","06/18/2022, 21:40:48",0.81841421939161,"31","M","right",1,1,0,0,FALSE,"P_N_M_lapid.jpg P_P_F_michaeliM.jpg"
2527,"E_M_F_rita.jpg","P_N_F_yehimovitz.jpg","FALSE","pictures/stimuli/Entertainmant","pictures/stimuli/Politics","F","F","5","597ba81afd9fe500011672e2","06/18/2022, 21:40:48",-0.096284025810778,"31","M","right",1,1,0,0,FALSE,"E_M_F_rita.jpg P_N_F_yehimovitz.jpg"
2956,"P_P_M_liberman.jpg","P_P_F_shaked.jpg","TRUE","pictures/stimuli/Politics","pictures/stimuli/Politics","M","F","6","597ba81afd9fe500011672e2","06/18/2022, 21:40:48",0.81841421939161,"31","M","right",1,1,0,0,FALSE,"P_P_F_shaked.jpg P_P_M_liberman.jpg"
2440,"P_P_M_benet.jpg","P_P_F_shaked.jpg","TRUE","pictures/stimuli/Politics","pictures/stimuli/Politics","M","F","6","597ba81afd9fe500011672e2","06/18/2022, 21:40:48",0.81841421939161,"31","M","right",1,1,0,0,FALSE,"P_P_F_shaked.jpg P_P_M_benet.jpg"
2797,"E_C_F_shaniCo.jpg","P_N_M_lapid.jpg","FALSE","pictures/stimuli/Entertainmant","pictures/stimuli/Politics","F","M","5","597ba81afd9fe500011672e2","06/18/2022, 21:40:48",-0.096284025810778,"31","M","right",1,1,0,0,FALSE,"E_C_F_shaniCo.jpg P_N_M_lapid.jpg"
2822,"E_C_M_shaharHasson.jpg","P_P_M_smootrich.jpg","FALSE","pictures/stimuli/Entertainmant","pictures/stimuli/Politics","M","M","5","597ba81afd9fe500011672e2","06/18/2022, 21:40:48",-0.096284025810778,"31","M","right",1,1,0,0,FALSE,"E_C_M_shaharHasson.jpg P_P_M_smootrich.jpg"
2732,"E_C_F_shaniCo.jpg","P_P_M_peretz.jpg","FALSE","pictures/stimuli/Entertainmant","pictures/stimuli/Politics","F","M","5","597ba81afd9fe500011672e2","06/18/2022, 21:40:48",-0.096284025810778,"31","M","right",1,1,0,0,FALSE,"E_C_F_shaniCo.jpg P_P_M_peretz.jpg"
4226,"E_C_M_shaharHasson.jpg","P_P_F_michaeliM.jpg","FALSE","pictures/stimuli/Entertainmant","pictures/stimuli/Politics","M","F","6","597ba81afd9fe500011672e2","06/18/2022, 21:40:48",0.81841421939161,"31","M","right",1,1,0,0,FALSE,"E_C_M_shaharHasson.jpg P_P_F_michaeliM.jpg"
5746,"E_C_F_ornaBanai.jpg","E_C_F_shaniCo.jpg","TRUE","pictures/stimuli/Entertainmant","pictures/stimuli/Entertainmant","F","F","3","597ba81afd9fe500011672e2","06/18/2022, 21:40:48",-1.92568051621555,"31","M","right",1,1,0,0,FALSE,"E_C_F_ornaBanai.jpg E_C_F_shaniCo.jpg"
3317,"E_C_M_alfi.jpg","P_P_M_peretz.jpg","FALSE","pictures/stimuli/Entertainmant","pictures/stimuli/Politics","M","M","3","597ba81afd9fe500011672e2","06/18/2022, 21:40:48",-1.92568051621555,"31","M","right",1,1,0,0,FALSE,"E_C_M_alfi.jpg P_P_M_peretz.jpg"
2836,"E_M_F_rita.jpg","E_M_M_tavori.jpg","TRUE","pictures/stimuli/Entertainmant","pictures/stimuli/Entertainmant","F","M","6","597ba81afd9fe500011672e2","06/18/2022, 21:40:48",0.81841421939161,"31","M","right",1,1,0,0,FALSE,"E_M_F_rita.jpg E_M_M_tavori.jpg"
5358,"E_C_M_alfi.jpg","E_H_F_yanai.jpg","TRUE","pictures/stimuli/Entertainmant","pictures/stimuli/Entertainmant","M","F","6","597ba81afd9fe500011672e2","06/18/2022, 21:40:48",0.81841421939161,"31","M","right",1,1,0,0,FALSE,"E_C_M_alfi.jpg E_H_F_yanai.jpg"
2961,"E_C_M_mushonov.jpg","E_C_F_shaniCo.jpg","TRUE","pictures/stimuli/Entertainmant","pictures/stimuli/Entertainmant","M","F","4","597ba81afd9fe500011672e2","06/18/2022, 21:40:48",-1.01098227101317,"31","M","right",1,1,0,0,FALSE,"E_C_F_shaniCo.jpg E_C_M_mushonov.jpg"
3333,"E_C_F_harLev.jpg","P_P_M_benet.jpg","FALSE","pictures/stimuli/Entertainmant","pictures/stimuli/Politics","F","M","5","597ba81afd9fe500011672e2","06/18/2022, 21:40:48",-0.096284025810778,"31","M","right",1,1,0,0,FALSE,"E_C_F_harLev.jpg P_P_M_benet.jpg"
2389,"E_M_F_rita.jpg","P_P_F_shaked.jpg","FALSE","pictures/stimuli/Entertainmant","pictures/stimuli/Politics","F","F","5","597ba81afd9fe500011672e2","06/18/2022, 21:40:48",-0.096284025810778,"31","M","right",1,1,0,0,FALSE,"E_M_F_rita.jpg P_P_F_shaked.jpg"
9327,"E_C_F_harLev.jpg","P_P_F_shaked.jpg","FALSE","pictures/stimuli/Entertainmant","pictures/stimuli/Politics","F","F","3","597ba81afd9fe500011672e2","06/18/2022, 21:40:48",-1.92568051621555,"31","M","right",1,1,0,0,FALSE,"E_C_F_harLev.jpg P_P_F_shaked.jpg"
3220,"E_C_M_alfi.jpg","E_C_F_ornaBanai.jpg","TRUE","pictures/stimuli/Entertainmant","pictures/stimuli/Entertainmant","M","F","6","597ba81afd9fe500011672e2","06/18/2022, 21:40:48",0.81841421939161,"31","M","right",1,1,0,0,FALSE,"E_C_F_ornaBanai.jpg E_C_M_alfi.jpg"
2530,"E_M_M_Ivri.jpg","E_H_F_yanai.jpg","TRUE","pictures/stimuli/Entertainmant","pictures/stimuli/Entertainmant","M","F","5","597ba81afd9fe500011672e2","06/18/2022, 21:40:48",-0.096284025810778,"31","M","right",1,1,0,0,FALSE,"E_H_F_yanai.jpg E_M_M_Ivri.jpg"
3324,"P_P_F_michaeliM.jpg","P_P_M_zamir.jpg","TRUE","pictures/stimuli/Politics","pictures/stimuli/Politics","F","M","6","597ba81afd9fe500011672e2","06/18/2022, 21:40:48",0.81841421939161,"31","M","right",1,1,0,0,FALSE,"P_P_F_michaeliM.jpg P_P_M_zamir.jpg"
2822,"P_P_M_liberman.jpg","P_P_F_michaeliM.jpg","TRUE","pictures/stimuli/Politics","pictures/stimuli/Politics","M","F","6","597ba81afd9fe500011672e2","06/18/2022, 21:40:48",0.81841421939161,"31","M","right",1,1,0,0,FALSE,"P_P_F_michaeliM.jpg P_P_M_liberman.jpg"
4004,"E_C_M_alfi.jpg","P_P_F_shaked.jpg","FALSE","pictures/stimuli/Entertainmant","pictures/stimuli/Politics","M","F","6","597ba81afd9fe500011672e2","06/18/2022, 21:40:48",0.81841421939161,"31","M","right",1,1,0,0,FALSE,"E_C_M_alfi.jpg P_P_F_shaked.jpg"
5175,"E_C_M_alfi.jpg","E_C_M_katorza.jpg","TRUE","pictures/stimuli/Entertainmant","pictures/stimuli/Entertainmant","M","M","5","597ba81afd9fe500011672e2","06/18/2022, 21:40:48",-0.096284025810778,"31","M","right",1,1,0,0,FALSE,"E_C_M_alfi.jpg E_C_M_katorza.jpg"
2892,"E_H_F_yanai.jpg","P_N_M_lapid.jpg","FALSE","pictures/stimuli/Entertainmant","pictures/stimuli/Politics","F","M","5","597ba81afd9fe500011672e2","06/18/2022, 21:40:48",-0.096284025810778,"31","M","right",1,1,0,0,FALSE,"E_H_F_yanai.jpg P_N_M_lapid.jpg"
2631,"E_H_F_yanai.jpg","P_P_F_shaked.jpg","FALSE","pictures/stimuli/Entertainmant","pictures/stimuli/Politics","F","F","4","597ba81afd9fe500011672e2","06/18/2022, 21:40:48",-1.01098227101317,"31","M","right",1,1,0,0,FALSE,"E_H_F_yanai.jpg P_P_F_shaked.jpg"
3212,"E_C_M_shaharHasson.jpg","P_P_M_zamir.jpg","FALSE","pictures/stimuli/Entertainmant","pictures/stimuli/Politics","M","M","5","597ba81afd9fe500011672e2","06/18/2022, 21:40:48",-0.096284025810778,"31","M","right",1,1,0,0,FALSE,"E_C_M_shaharHasson.jpg P_P_M_zamir.jpg"
2809,"E_C_M_katorza.jpg","E_M_M_tavori.jpg","TRUE","pictures/stimuli/Entertainmant","pictures/stimuli/Entertainmant","M","M","4","597ba81afd9fe500011672e2","06/18/2022, 21:40:48",-1.01098227101317,"31","M","right",1,1,0,0,FALSE,"E_C_M_katorza.jpg E_M_M_tavori.jpg"
3209,"P_P_M_benet.jpg","P_P_M_zamir.jpg","TRUE","pictures/stimuli/Politics","pictures/stimuli/Politics","M","M","4","597ba81afd9fe500011672e2","06/18/2022, 21:40:48",-1.01098227101317,"31","M","right",1,1,0,0,FALSE,"P_P_M_benet.jpg P_P_M_zamir.jpg"
3140,"E_C_F_ornaBanai.jpg","P_P_F_shaked.jpg","FALSE","pictures/stimuli/Entertainmant","pictures/stimuli/Politics","F","F","3","597ba81afd9fe500011672e2","06/18/2022, 21:40:48",-1.92568051621555,"31","M","right",1,1,0,0,FALSE,"E_C_F_ornaBanai.jpg P_P_F_shaked.jpg"
2347,"E_C_F_shaniCo.jpg","P_P_M_smootrich.jpg","FALSE","pictures/stimuli/Entertainmant","pictures/stimuli/Politics","F","M","5","597ba81afd9fe500011672e2","06/18/2022, 21:40:48",-0.096284025810778,"31","M","right",1,1,0,0,FALSE,"E_C_F_shaniCo.jpg P_P_M_smootrich.jpg"
3133,"E_C_M_katorza.jpg","P_N_M_lapid.jpg","FALSE","pictures/stimuli/Entertainmant","pictures/stimuli/Politics","M","M","5","597ba81afd9fe500011672e2","06/18/2022, 21:40:48",-0.096284025810778,"31","M","right",1,1,0,0,FALSE,"E_C_M_katorza.jpg P_N_M_lapid.jpg"
12370,"P_P_F_shaked.jpg","P_P_M_smootrich.jpg","TRUE","pictures/stimuli/Politics","pictures/stimuli/Politics","F","M","6","5c0d109e73986d0001785b39","06/18/2022, 13:28:18",0.414644214431363,"33","F","right",1,1,0,0,FALSE,"P_P_F_shaked.jpg P_P_M_smootrich.jpg"
5898,"E_C_F_shaniCo.jpg","P_P_F_michaeliM.jpg","FALSE","pictures/stimuli/Entertainmant","pictures/stimuli/Politics","F","F","6","5c0d109e73986d0001785b39","06/18/2022, 13:28:18",0.414644214431363,"33","F","right",1,1,0,0,FALSE,"E_C_F_shaniCo.jpg P_P_F_michaeliM.jpg"
2650,"P_P_M_benet.jpg","P_N_M_lapid.jpg","TRUE","pictures/stimuli/Politics","pictures/stimuli/Politics","M","M","5","5c0d109e73986d0001785b39","06/18/2022, 13:28:18",-2.39901295492433,"33","F","right",1,1,0,0,FALSE,"P_N_M_lapid.jpg P_P_M_benet.jpg"
3777,"E_C_M_shaharHasson.jpg","P_P_M_peretz.jpg","FALSE","pictures/stimuli/Entertainmant","pictures/stimuli/Politics","M","M","6","5c0d109e73986d0001785b39","06/18/2022, 13:28:18",0.414644214431363,"33","F","right",1,1,0,0,FALSE,"E_C_M_shaharHasson.jpg P_P_M_peretz.jpg"
3598,"E_M_M_Ivri.jpg","E_C_F_ornaBanai.jpg","TRUE","pictures/stimuli/Entertainmant","pictures/stimuli/Entertainmant","M","F","6","5c0d109e73986d0001785b39","06/18/2022, 13:28:18",0.414644214431363,"33","F","right",1,1,0,0,FALSE,"E_C_F_ornaBanai.jpg E_M_M_Ivri.jpg"
3079,"E_H_F_yanai.jpg","P_P_M_benet.jpg","FALSE","pictures/stimuli/Entertainmant","pictures/stimuli/Politics","F","M","6","5c0d109e73986d0001785b39","06/18/2022, 13:28:18",0.414644214431363,"33","F","right",1,1,0,0,FALSE,"E_H_F_yanai.jpg P_P_M_benet.jpg"
2799,"E_M_M_Ivri.jpg","E_C_M_katorza.jpg","TRUE","pictures/stimuli/Entertainmant","pictures/stimuli/Entertainmant","M","M","6","5c0d109e73986d0001785b39","06/18/2022, 13:28:18",0.414644214431363,"33","F","right",1,1,0,0,FALSE,"E_C_M_katorza.jpg E_M_M_Ivri.jpg"
2847,"E_C_F_shaniCo.jpg","E_H_F_yanai.jpg","TRUE","pictures/stimuli/Entertainmant","pictures/stimuli/Entertainmant","F","F","6","5c0d109e73986d0001785b39","06/18/2022, 13:28:18",0.414644214431363,"33","F","right",1,1,0,0,FALSE,"E_C_F_shaniCo.jpg E_H_F_yanai.jpg"
3395,"E_C_M_alfi.jpg","P_P_M_benet.jpg","FALSE","pictures/stimuli/Entertainmant","pictures/stimuli/Politics","M","M","5","5c0d109e73986d0001785b39","06/18/2022, 13:28:18",-2.39901295492433,"33","F","right",1,1,0,0,FALSE,"E_C_M_alfi.jpg P_P_M_benet.jpg"
2233,"E_C_F_ornaBanai.jpg","E_M_M_tavori.jpg","TRUE","pictures/stimuli/Entertainmant","pictures/stimuli/Entertainmant","F","M","6","5c0d109e73986d0001785b39","06/18/2022, 13:28:18",0.414644214431363,"33","F","right",1,1,0,0,FALSE,"E_C_F_ornaBanai.jpg E_M_M_tavori.jpg"
9260,"P_P_M_benet.jpg","P_P_M_peretz.jpg","TRUE","pictures/stimuli/Politics","pictures/stimuli/Politics","M","M","6","5c0d109e73986d0001785b39","06/18/2022, 13:28:18",0.414644214431363,"33","F","right",1,1,0,0,FALSE,"P_P_M_benet.jpg P_P_M_peretz.jpg"
2925,"E_C_M_shaharHasson.jpg","P_P_M_zamir.jpg","FALSE","pictures/stimuli/Entertainmant","pictures/stimuli/Politics","M","M","6","5c0d109e73986d0001785b39","06/18/2022, 13:28:18",0.414644214431363,"33","F","right",1,0,0,0,TRUE,"E_C_M_shaharHasson.jpg P_P_M_zamir.jpg"
2394,"E_C_M_alfi.jpg","E_C_M_shaharHasson.jpg","TRUE","pictures/stimuli/Entertainmant","pictures/stimuli/Entertainmant","M","M","6","5c0d109e73986d0001785b39","06/18/2022, 13:28:18",0.414644214431363,"33","F","right",1,1,0,0,FALSE,"E_C_M_alfi.jpg E_C_M_shaharHasson.jpg"
2209,"P_P_F_michaeliM.jpg","P_P_M_zamir.jpg","TRUE","pictures/stimuli/Politics","pictures/stimuli/Politics","F","M","6","5c0d109e73986d0001785b39","06/18/2022, 13:28:18",0.414644214431363,"33","F","right",1,0,0,0,TRUE,"P_P_F_michaeliM.jpg P_P_M_zamir.jpg"
2095,"E_M_M_Ivri.jpg","P_N_M_lapid.jpg","FALSE","pictures/stimuli/Entertainmant","pictures/stimuli/Politics","M","M","5","5c0d109e73986d0001785b39","06/18/2022, 13:28:18",-2.39901295492433,"33","F","right",1,1,0,0,FALSE,"E_M_M_Ivri.jpg P_N_M_lapid.jpg"
2108,"E_C_F_shaniCo.jpg","P_N_M_lapid.jpg","FALSE","pictures/stimuli/Entertainmant","pictures/stimuli/Politics","F","M","6","5c0d109e73986d0001785b39","06/18/2022, 13:28:18",0.414644214431363,"33","F","right",1,1,0,0,FALSE,"E_C_F_shaniCo.jpg P_N_M_lapid.jpg"
5115,"E_M_M_Ivri.jpg","P_P_M_peretz.jpg","FALSE","pictures/stimuli/Entertainmant","pictures/stimuli/Politics","M","M","6","5c0d109e73986d0001785b39","06/18/2022, 13:28:18",0.414644214431363,"33","F","right",1,1,0,0,FALSE,"E_M_M_Ivri.jpg P_P_M_peretz.jpg"
2518,"E_M_F_rita.jpg","P_P_M_peretz.jpg","FALSE","pictures/stimuli/Entertainmant","pictures/stimuli/Politics","F","M","6","5c0d109e73986d0001785b39","06/18/2022, 13:28:18",0.414644214431363,"33","F","right",1,1,0,0,FALSE,"E_M_F_rita.jpg P_P_M_peretz.jpg"
2126,"E_C_F_ornaBanai.jpg","E_C_M_shaharHasson.jpg","TRUE","pictures/stimuli/Entertainmant","pictures/stimuli/Entertainmant","F","M","6","5c0d109e73986d0001785b39","06/18/2022, 13:28:18",0.414644214431363,"33","F","right",1,1,0,0,FALSE,"E_C_F_ornaBanai.jpg E_C_M_shaharHasson.jpg"
2825,"E_C_M_mushonov.jpg","P_N_M_lapid.jpg","FALSE","pictures/stimuli/Entertainmant","pictures/stimuli/Politics","M","M","6","5c0d109e73986d0001785b39","06/18/2022, 13:28:18",0.414644214431363,"33","F","right",1,1,0,0,FALSE,"E_C_M_mushonov.jpg P_N_M_lapid.jpg"
2684,"E_C_M_alfi.jpg","E_C_M_katorza.jpg","TRUE","pictures/stimuli/Entertainmant","pictures/stimuli/Entertainmant","M","M","6","5c0d109e73986d0001785b39","06/18/2022, 13:28:18",0.414644214431363,"33","F","right",1,1,0,0,FALSE,"E_C_M_alfi.jpg E_C_M_katorza.jpg"
2506,"E_C_F_ornaBanai.jpg","E_M_F_rita.jpg","TRUE","pictures/stimuli/Entertainmant","pictures/stimuli/Entertainmant","F","F","6","5c0d109e73986d0001785b39","06/18/2022, 13:28:18",0.414644214431363,"33","F","right",1,1,0,0,FALSE,"E_C_F_ornaBanai.jpg E_M_F_rita.jpg"
4730,"E_C_F_harLev.jpg","P_P_F_michaeliM.jpg","FALSE","pictures/stimuli/Entertainmant","pictures/stimuli/Politics","F","F","6","5c0d109e73986d0001785b39","06/18/2022, 13:28:18",0.414644214431363,"33","F","right",1,1,0,0,FALSE,"E_C_F_harLev.jpg P_P_F_michaeliM.jpg"
22039,"E_M_M_tavori.jpg","P_P_F_shaked.jpg","FALSE","pictures/stimuli/Entertainmant","pictures/stimuli/Politics","M","F","6","5c0d109e73986d0001785b39","06/18/2022, 13:28:18",0.414644214431363,"33","F","right",1,1,0,0,FALSE,"E_M_M_tavori.jpg P_P_F_shaked.jpg"
9557,"E_C_M_alfi.jpg","E_C_F_ornaBanai.jpg","TRUE","pictures/stimuli/Entertainmant","pictures/stimuli/Entertainmant","M","F","6","5c0d109e73986d0001785b39","06/18/2022, 13:28:18",0.414644214431363,"33","F","right",1,1,0,0,FALSE,"E_C_F_ornaBanai.jpg E_C_M_alfi.jpg"
9502,"P_P_M_benet.jpg","P_P_F_michaeliM.jpg","TRUE","pictures/stimuli/Politics","pictures/stimuli/Politics","M","F","6","5c0d109e73986d0001785b39","06/18/2022, 13:28:18",0.414644214431363,"33","F","right",1,1,0,0,FALSE,"P_P_F_michaeliM.jpg P_P_M_benet.jpg"
14615,"E_C_M_katorza.jpg","P_N_F_yehimovitz.jpg","FALSE","pictures/stimuli/Entertainmant","pictures/stimuli/Politics","M","F","6","5c0d109e73986d0001785b39","06/18/2022, 13:28:18",0.414644214431363,"33","F","right",1,1,0,0,FALSE,"E_C_M_katorza.jpg P_N_F_yehimovitz.jpg"
7655,"P_N_M_lapid.jpg","P_P_M_peretz.jpg","TRUE","pictures/stimuli/Politics","pictures/stimuli/Politics","M","M","6","5c0d109e73986d0001785b39","06/18/2022, 13:28:18",0.414644214431363,"33","F","right",1,1,0,0,FALSE,"P_N_M_lapid.jpg P_P_M_peretz.jpg"
12355,"E_C_M_katorza.jpg","P_N_M_lapid.jpg","FALSE","pictures/stimuli/Entertainmant","pictures/stimuli/Politics","M","M","5","5c0d109e73986d0001785b39","06/18/2022, 13:28:18",-2.39901295492433,"33","F","right",1,1,0,0,FALSE,"E_C_M_katorza.jpg P_N_M_lapid.jpg"
3231,"E_C_M_shaharHasson.jpg","E_M_M_tavori.jpg","TRUE","pictures/stimuli/Entertainmant","pictures/stimuli/Entertainmant","M","M","5","5c0d109e73986d0001785b39","06/18/2022, 13:28:18",-2.39901295492433,"33","F","right",1,1,0,0,FALSE,"E_C_M_shaharHasson.jpg E_M_M_tavori.jpg"
2183,"E_C_F_ornaBanai.jpg","P_P_M_liberman.jpg","FALSE","pictures/stimuli/Entertainmant","pictures/stimuli/Politics","F","M","6","5c0d109e73986d0001785b39","06/18/2022, 13:28:18",0.414644214431363,"33","F","right",1,1,0,0,FALSE,"E_C_F_ornaBanai.jpg P_P_M_liberman.jpg"
5815,"E_C_M_mushonov.jpg","P_P_M_zamir.jpg","FALSE","pictures/stimuli/Entertainmant","pictures/stimuli/Politics","M","M","6","5c0d109e73986d0001785b39","06/18/2022, 13:28:18",0.414644214431363,"33","F","right",1,0,0,0,TRUE,"E_C_M_mushonov.jpg P_P_M_zamir.jpg"
4233,"E_M_F_rita.jpg","E_M_M_tavori.jpg","TRUE","pictures/stimuli/Entertainmant","pictures/stimuli/Entertainmant","F","M","6","5c0d109e73986d0001785b39","06/18/2022, 13:28:18",0.414644214431363,"33","F","right",1,1,0,0,FALSE,"E_M_F_rita.jpg E_M_M_tavori.jpg"
8695,"E_C_M_katorza.jpg","E_M_M_tavori.jpg","TRUE","pictures/stimuli/Entertainmant","pictures/stimuli/Entertainmant","M","M","6","5c0d109e73986d0001785b39","06/18/2022, 13:28:18",0.414644214431363,"33","F","right",1,1,0,0,FALSE,"E_C_M_katorza.jpg E_M_M_tavori.jpg"
2178,"E_C_F_shaniCo.jpg","P_P_M_peretz.jpg","FALSE","pictures/stimuli/Entertainmant","pictures/stimuli/Politics","F","M","6","5c0d109e73986d0001785b39","06/18/2022, 13:28:18",0.414644214431363,"33","F","right",1,1,0,0,FALSE,"E_C_F_shaniCo.jpg P_P_M_peretz.jpg"
2390,"E_C_M_shaharHasson.jpg","P_P_F_shaked.jpg","FALSE","pictures/stimuli/Entertainmant","pictures/stimuli/Politics","M","F","6","5c0d109e73986d0001785b39","06/18/2022, 13:28:18",0.414644214431363,"33","F","right",1,1,0,0,FALSE,"E_C_M_shaharHasson.jpg P_P_F_shaked.jpg"
10708,"E_C_M_katorza.jpg","P_P_M_smootrich.jpg","FALSE","pictures/stimuli/Entertainmant","pictures/stimuli/Politics","M","M","6","5c0d109e73986d0001785b39","06/18/2022, 13:28:18",0.414644214431363,"33","F","right",1,1,0,0,FALSE,"E_C_M_katorza.jpg P_P_M_smootrich.jpg"
5202,"E_C_F_harLev.jpg","E_C_M_katorza.jpg","TRUE","pictures/stimuli/Entertainmant","pictures/stimuli/Entertainmant","F","M","6","5c0d109e73986d0001785b39","06/18/2022, 13:28:18",0.414644214431363,"33","F","right",1,1,0,0,FALSE,"E_C_F_harLev.jpg E_C_M_katorza.jpg"
3934,"E_C_M_alfi.jpg","E_C_F_shaniCo.jpg","TRUE","pictures/stimuli/Entertainmant","pictures/stimuli/Entertainmant","M","F","6","5c0d109e73986d0001785b39","06/18/2022, 13:28:18",0.414644214431363,"33","F","right",1,1,0,0,FALSE,"E_C_F_shaniCo.jpg E_C_M_alfi.jpg"
14242,"E_C_M_alfi.jpg","E_M_M_tavori.jpg","TRUE","pictures/stimuli/Entertainmant","pictures/stimuli/Entertainmant","M","M","6","5c0d109e73986d0001785b39","06/18/2022, 13:28:18",0.414644214431363,"33","F","right",1,1,0,0,FALSE,"E_C_M_alfi.jpg E_M_M_tavori.jpg"
9559,"E_H_F_yanai.jpg","P_N_F_yehimovitz.jpg","FALSE","pictures/stimuli/Entertainmant","pictures/stimuli/Politics","F","F","6","5c0d109e73986d0001785b39","06/18/2022, 13:28:18",0.414644214431363,"33","F","right",1,1,0,0,FALSE,"E_H_F_yanai.jpg P_N_F_yehimovitz.jpg"
4670,"E_M_M_Ivri.jpg","E_C_F_shaniCo.jpg","TRUE","pictures/stimuli/Entertainmant","pictures/stimuli/Entertainmant","M","F","6","5c0d109e73986d0001785b39","06/18/2022, 13:28:18",0.414644214431363,"33","F","right",1,1,0,0,FALSE,"E_C_F_shaniCo.jpg E_M_M_Ivri.jpg"
3943,"P_P_F_shaked.jpg","P_P_M_zamir.jpg","TRUE","pictures/stimuli/Politics","pictures/stimuli/Politics","F","M","6","5c0d109e73986d0001785b39","06/18/2022, 13:28:18",0.414644214431363,"33","F","right",1,0,0,0,TRUE,"P_P_F_shaked.jpg P_P_M_zamir.jpg"
1536,"E_C_M_shaharHasson.jpg","E_H_F_yanai.jpg","TRUE","pictures/stimuli/Entertainmant","pictures/stimuli/Entertainmant","M","F","6","5c0d109e73986d0001785b39","06/18/2022, 13:28:18",0.414644214431363,"33","F","right",1,1,0,0,FALSE,"E_C_M_shaharHasson.jpg E_H_F_yanai.jpg"
3527,"E_M_F_rita.jpg","E_H_F_yanai.jpg","TRUE","pictures/stimuli/Entertainmant","pictures/stimuli/Entertainmant","F","F","6","5c0d109e73986d0001785b39","06/18/2022, 13:28:18",0.414644214431363,"33","F","right",1,1,0,0,FALSE,"E_H_F_yanai.jpg E_M_F_rita.jpg"
3318,"E_C_F_ornaBanai.jpg","P_N_F_yehimovitz.jpg","FALSE","pictures/stimuli/Entertainmant","pictures/stimuli/Politics","F","F","5","5c0d109e73986d0001785b39","06/18/2022, 13:28:18",-2.39901295492433,"33","F","right",1,1,0,0,FALSE,"E_C_F_ornaBanai.jpg P_N_F_yehimovitz.jpg"
3467,"E_C_F_harLev.jpg","E_C_F_ornaBanai.jpg","TRUE","pictures/stimuli/Entertainmant","pictures/stimuli/Entertainmant","F","F","6","5c0d109e73986d0001785b39","06/18/2022, 13:28:18",0.414644214431363,"33","F","right",1,1,0,0,FALSE,"E_C_F_harLev.jpg E_C_F_ornaBanai.jpg"
2411,"E_C_M_alfi.jpg","E_C_F_harLev.jpg","TRUE","pictures/stimuli/Entertainmant","pictures/stimuli/Entertainmant","M","F","6","5c0d109e73986d0001785b39","06/18/2022, 13:28:18",0.414644214431363,"33","F","right",1,1,0,0,FALSE,"E_C_F_harLev.jpg E_C_M_alfi.jpg"
2619,"E_C_F_harLev.jpg","E_C_F_shaniCo.jpg","TRUE","pictures/stimuli/Entertainmant","pictures/stimuli/Entertainmant","F","F","5","5c0d109e73986d0001785b39","06/18/2022, 13:28:18",-2.39901295492433,"33","F","right",1,1,0,0,FALSE,"E_C_F_harLev.jpg E_C_F_shaniCo.jpg"
2470,"P_P_M_peretz.jpg","P_P_F_shaked.jpg","TRUE","pictures/stimuli/Politics","pictures/stimuli/Politics","M","F","6","5c0d109e73986d0001785b39","06/18/2022, 13:28:18",0.414644214431363,"33","F","right",1,1,0,0,FALSE,"P_P_F_shaked.jpg P_P_M_peretz.jpg"
2270,"E_C_F_shaniCo.jpg","E_M_M_tavori.jpg","TRUE","pictures/stimuli/Entertainmant","pictures/stimuli/Entertainmant","F","M","6","5c0d109e73986d0001785b39","06/18/2022, 13:28:18",0.414644214431363,"33","F","right",1,1,0,0,FALSE,"E_C_F_shaniCo.jpg E_M_M_tavori.jpg"
2555,"P_P_M_peretz.jpg","P_P_M_smootrich.jpg","TRUE","pictures/stimuli/Politics","pictures/stimuli/Politics","M","M","6","5c0d109e73986d0001785b39","06/18/2022, 13:28:18",0.414644214431363,"33","F","right",1,1,0,0,FALSE,"P_P_M_peretz.jpg P_P_M_smootrich.jpg"
1747,"P_N_M_lapid.jpg","P_P_M_liberman.jpg","TRUE","pictures/stimuli/Politics","pictures/stimuli/Politics","M","M","6","5c0d109e73986d0001785b39","06/18/2022, 13:28:18",0.414644214431363,"33","F","right",1,1,0,0,FALSE,"P_N_M_lapid.jpg P_P_M_liberman.jpg"
1804,"P_P_M_liberman.jpg","P_P_F_shaked.jpg","TRUE","pictures/stimuli/Politics","pictures/stimuli/Politics","M","F","6","5c0d109e73986d0001785b39","06/18/2022, 13:28:18",0.414644214431363,"33","F","right",1,1,0,0,FALSE,"P_P_F_shaked.jpg P_P_M_liberman.jpg"
2577,"E_C_M_alfi.jpg","P_P_M_zamir.jpg","FALSE","pictures/stimuli/Entertainmant","pictures/stimuli/Politics","M","M","6","5c0d109e73986d0001785b39","06/18/2022, 13:28:18",0.414644214431363,"33","F","right",1,0,0,0,TRUE,"E_C_M_alfi.jpg P_P_M_zamir.jpg"
6064,"E_C_M_shaharHasson.jpg","P_P_M_smootrich.jpg","FALSE","pictures/stimuli/Entertainmant","pictures/stimuli/Politics","M","M","6","5c0d109e73986d0001785b39","06/18/2022, 13:28:18",0.414644214431363,"33","F","right",1,1,0,0,FALSE,"E_C_M_shaharHasson.jpg P_P_M_smootrich.jpg"
1607,"P_P_F_michaeliM.jpg","P_P_M_smootrich.jpg","TRUE","pictures/stimuli/Politics","pictures/stimuli/Politics","F","M","6","5c0d109e73986d0001785b39","06/18/2022, 13:28:18",0.414644214431363,"33","F","right",1,1,0,0,FALSE,"P_P_F_michaeliM.jpg P_P_M_smootrich.jpg"
3311,"E_C_M_katorza.jpg","E_C_M_mushonov.jpg","TRUE","pictures/stimuli/Entertainmant","pictures/stimuli/Entertainmant","M","M","6","5c0d109e73986d0001785b39","06/18/2022, 13:28:18",0.414644214431363,"33","F","right",1,1,0,0,FALSE,"E_C_M_katorza.jpg E_C_M_mushonov.jpg"
5751,"E_C_M_shaharHasson.jpg","P_P_M_benet.jpg","FALSE","pictures/stimuli/Entertainmant","pictures/stimuli/Politics","M","M","6","5c0d109e73986d0001785b39","06/18/2022, 13:28:18",0.414644214431363,"33","F","right",1,1,0,0,FALSE,"E_C_M_shaharHasson.jpg P_P_M_benet.jpg"
2036,"E_M_M_tavori.jpg","P_P_F_michaeliM.jpg","FALSE","pictures/stimuli/Entertainmant","pictures/stimuli/Politics","M","F","6","5c0d109e73986d0001785b39","06/18/2022, 13:28:18",0.414644214431363,"33","F","right",1,1,0,0,FALSE,"E_M_M_tavori.jpg P_P_F_michaeliM.jpg"
11599,"E_C_F_ornaBanai.jpg","P_P_F_michaeliM.jpg","FALSE","pictures/stimuli/Entertainmant","pictures/stimuli/Politics","F","F","6","5c0d109e73986d0001785b39","06/18/2022, 13:28:18",0.414644214431363,"33","F","right",1,1,0,0,FALSE,"E_C_F_ornaBanai.jpg P_P_F_michaeliM.jpg"
1994,"E_M_F_rita.jpg","P_N_M_lapid.jpg","FALSE","pictures/stimuli/Entertainmant","pictures/stimuli/Politics","F","M","6","5c0d109e73986d0001785b39","06/18/2022, 13:28:18",0.414644214431363,"33","F","right",1,1,0,0,FALSE,"E_M_F_rita.jpg P_N_M_lapid.jpg"
5096,"E_M_F_rita.jpg","E_C_F_shaniCo.jpg","TRUE","pictures/stimuli/Entertainmant","pictures/stimuli/Entertainmant","F","F","5","5c0d109e73986d0001785b39","06/18/2022, 13:28:18",-2.39901295492433,"33","F","right",1,1,0,0,FALSE,"E_C_F_shaniCo.jpg E_M_F_rita.jpg"
1583,"E_M_M_Ivri.jpg","P_P_M_smootrich.jpg","FALSE","pictures/stimuli/Entertainmant","pictures/stimuli/Politics","M","M","6","5c0d109e73986d0001785b39","06/18/2022, 13:28:18",0.414644214431363,"33","F","right",1,1,0,0,FALSE,"E_M_M_Ivri.jpg P_P_M_smootrich.jpg"
2332,"P_P_M_peretz.jpg","P_N_F_yehimovitz.jpg","TRUE","pictures/stimuli/Politics","pictures/stimuli/Politics","M","F","6","5c0d109e73986d0001785b39","06/18/2022, 13:28:18",0.414644214431363,"33","F","right",1,1,0,0,FALSE,"P_N_F_yehimovitz.jpg P_P_M_peretz.jpg"
3785,"E_M_M_Ivri.jpg","E_M_F_rita.jpg","TRUE","pictures/stimuli/Entertainmant","pictures/stimuli/Entertainmant","M","F","6","5c0d109e73986d0001785b39","06/18/2022, 13:28:18",0.414644214431363,"33","F","right",1,1,0,0,FALSE,"E_M_F_rita.jpg E_M_M_Ivri.jpg"
1574,"E_C_M_katorza.jpg","E_M_F_rita.jpg","TRUE","pictures/stimuli/Entertainmant","pictures/stimuli/Entertainmant","M","F","6","5c0d109e73986d0001785b39","06/18/2022, 13:28:18",0.414644214431363,"33","F","right",1,1,0,0,FALSE,"E_C_M_katorza.jpg E_M_F_rita.jpg"
1496,"E_C_F_ornaBanai.jpg","P_N_M_lapid.jpg","FALSE","pictures/stimuli/Entertainmant","pictures/stimuli/Politics","F","M","6","5c0d109e73986d0001785b39","06/18/2022, 13:28:18",0.414644214431363,"33","F","right",1,1,0,0,FALSE,"E_C_F_ornaBanai.jpg P_N_M_lapid.jpg"
1503,"E_C_M_katorza.jpg","E_H_F_yanai.jpg","TRUE","pictures/stimuli/Entertainmant","pictures/stimuli/Entertainmant","M","F","6","5c0d109e73986d0001785b39","06/18/2022, 13:28:18",0.414644214431363,"33","F","right",1,1,0,0,FALSE,"E_C_M_katorza.jpg E_H_F_yanai.jpg"
3811,"E_C_M_alfi.jpg","P_P_M_smootrich.jpg","FALSE","pictures/stimuli/Entertainmant","pictures/stimuli/Politics","M","M","6","5c0d109e73986d0001785b39","06/18/2022, 13:28:18",0.414644214431363,"33","F","right",1,1,0,0,FALSE,"E_C_M_alfi.jpg P_P_M_smootrich.jpg"
2179,"P_P_M_liberman.jpg","P_P_M_smootrich.jpg","TRUE","pictures/stimuli/Politics","pictures/stimuli/Politics","M","M","6","5c0d109e73986d0001785b39","06/18/2022, 13:28:18",0.414644214431363,"33","F","right",1,1,0,0,FALSE,"P_P_M_liberman.jpg P_P_M_smootrich.jpg"
6819,"P_P_M_benet.jpg","P_P_M_smootrich.jpg","TRUE","pictures/stimuli/Politics","pictures/stimuli/Politics","M","M","5","5c0d109e73986d0001785b39","06/18/2022, 13:28:18",-2.39901295492433,"33","F","right",1,1,0,0,FALSE,"P_P_M_benet.jpg P_P_M_smootrich.jpg"
2003,"E_M_F_rita.jpg","E_C_M_shaharHasson.jpg","TRUE","pictures/stimuli/Entertainmant","pictures/stimuli/Entertainmant","F","M","6","5c0d109e73986d0001785b39","06/18/2022, 13:28:18",0.414644214431363,"33","F","right",1,1,0,0,FALSE,"E_C_M_shaharHasson.jpg E_M_F_rita.jpg"
1194,"E_C_M_shaharHasson.jpg","P_P_F_michaeliM.jpg","FALSE","pictures/stimuli/Entertainmant","pictures/stimuli/Politics","M","F","6","5c0d109e73986d0001785b39","06/18/2022, 13:28:18",0.414644214431363,"33","F","right",1,1,0,0,FALSE,"E_C_M_shaharHasson.jpg P_P_F_michaeliM.jpg"
2476,"P_P_F_michaeliM.jpg","P_P_F_shaked.jpg","TRUE","pictures/stimuli/Politics","pictures/stimuli/Politics","F","F","6","5c0d109e73986d0001785b39","06/18/2022, 13:28:18",0.414644214431363,"33","F","right",1,1,0,0,FALSE,"P_P_F_michaeliM.jpg P_P_F_shaked.jpg"
1022,"E_C_M_shaharHasson.jpg","E_C_F_shaniCo.jpg","TRUE","pictures/stimuli/Entertainmant","pictures/stimuli/Entertainmant","M","F","6","5c0d109e73986d0001785b39","06/18/2022, 13:28:18",0.414644214431363,"33","F","right",1,1,0,0,FALSE,"E_C_F_shaniCo.jpg E_C_M_shaharHasson.jpg"
1007,"E_C_F_harLev.jpg","E_M_F_rita.jpg","TRUE","pictures/stimuli/Entertainmant","pictures/stimuli/Entertainmant","F","F","6","5c0d109e73986d0001785b39","06/18/2022, 13:28:18",0.414644214431363,"33","F","right",1,1,0,0,FALSE,"E_C_F_harLev.jpg E_M_F_rita.jpg"
1414,"E_M_F_rita.jpg","P_P_M_liberman.jpg","FALSE","pictures/stimuli/Entertainmant","pictures/stimuli/Politics","F","M","6","5c0d109e73986d0001785b39","06/18/2022, 13:28:18",0.414644214431363,"33","F","right",1,1,0,0,FALSE,"E_M_F_rita.jpg P_P_M_liberman.jpg"
1849,"E_C_F_ornaBanai.jpg","P_P_F_shaked.jpg","FALSE","pictures/stimuli/Entertainmant","pictures/stimuli/Politics","F","F","5","5c0d109e73986d0001785b39","06/18/2022, 13:28:18",-2.39901295492433,"33","F","right",1,1,0,0,FALSE,"E_C_F_ornaBanai.jpg P_P_F_shaked.jpg"
1421,"E_C_M_mushonov.jpg","E_C_M_shaharHasson.jpg","TRUE","pictures/stimuli/Entertainmant","pictures/stimuli/Entertainmant","M","M","6","5c0d109e73986d0001785b39","06/18/2022, 13:28:18",0.414644214431363,"33","F","right",1,1,0,0,FALSE,"E_C_M_mushonov.jpg E_C_M_shaharHasson.jpg"
3015,"E_C_F_harLev.jpg","E_M_M_Ivri.jpg","TRUE","pictures/stimuli/Entertainmant","pictures/stimuli/Entertainmant","F","M","6","5c0d109e73986d0001785b39","06/18/2022, 13:28:18",0.414644214431363,"33","F","right",1,1,0,0,FALSE,"E_C_F_harLev.jpg E_M_M_Ivri.jpg"
1463,"E_C_M_katorza.jpg","P_P_F_shaked.jpg","FALSE","pictures/stimuli/Entertainmant","pictures/stimuli/Politics","M","F","6","5c0d109e73986d0001785b39","06/18/2022, 13:28:18",0.414644214431363,"33","F","right",1,1,0,0,FALSE,"E_C_M_katorza.jpg P_P_F_shaked.jpg"
1991,"E_C_M_alfi.jpg","E_H_F_yanai.jpg","TRUE","pictures/stimuli/Entertainmant","pictures/stimuli/Entertainmant","M","F","6","5c0d109e73986d0001785b39","06/18/2022, 13:28:18",0.414644214431363,"33","F","right",1,1,0,0,FALSE,"E_C_M_alfi.jpg E_H_F_yanai.jpg"
1447,"E_C_F_harLev.jpg","E_M_M_tavori.jpg","TRUE","pictures/stimuli/Entertainmant","pictures/stimuli/Entertainmant","F","M","6","5c0d109e73986d0001785b39","06/18/2022, 13:28:18",0.414644214431363,"33","F","right",1,1,0,0,FALSE,"E_C_F_harLev.jpg E_M_M_tavori.jpg"
1540,"P_P_M_benet.jpg","P_P_M_liberman.jpg","TRUE","pictures/stimuli/Politics","pictures/stimuli/Politics","M","M","6","5c0d109e73986d0001785b39","06/18/2022, 13:28:18",0.414644214431363,"33","F","right",1,1,0,0,FALSE,"P_P_M_benet.jpg P_P_M_liberman.jpg"
1864,"E_C_M_katorza.jpg","P_P_M_peretz.jpg","FALSE","pictures/stimuli/Entertainmant","pictures/stimuli/Politics","M","M","6","5c0d109e73986d0001785b39","06/18/2022, 13:28:18",0.414644214431363,"33","F","right",1,1,0,0,FALSE,"E_C_M_katorza.jpg P_P_M_peretz.jpg"
3040,"E_H_F_yanai.jpg","P_P_F_shaked.jpg","FALSE","pictures/stimuli/Entertainmant","pictures/stimuli/Politics","F","F","5","5c0d109e73986d0001785b39","06/18/2022, 13:28:18",-2.39901295492433,"33","F","right",1,1,0,0,FALSE,"E_H_F_yanai.jpg P_P_F_shaked.jpg"
2126,"E_C_F_harLev.jpg","P_P_M_benet.jpg","FALSE","pictures/stimuli/Entertainmant","pictures/stimuli/Politics","F","M","6","5c0d109e73986d0001785b39","06/18/2022, 13:28:18",0.414644214431363,"33","F","right",1,1,0,0,FALSE,"E_C_F_harLev.jpg P_P_M_benet.jpg"
1746,"P_P_M_smootrich.jpg","P_P_M_zamir.jpg","TRUE","pictures/stimuli/Politics","pictures/stimuli/Politics","M","M","6","5c0d109e73986d0001785b39","06/18/2022, 13:28:18",0.414644214431363,"33","F","right",1,0,0,0,TRUE,"P_P_M_smootrich.jpg P_P_M_zamir.jpg"
3321,"E_M_F_rita.jpg","P_P_M_smootrich.jpg","FALSE","pictures/stimuli/Entertainmant","pictures/stimuli/Politics","F","M","6","5c0d109e73986d0001785b39","06/18/2022, 13:28:18",0.414644214431363,"33","F","right",1,1,0,0,FALSE,"E_M_F_rita.jpg P_P_M_smootrich.jpg"
2639,"E_M_M_Ivri.jpg","E_H_F_yanai.jpg","TRUE","pictures/stimuli/Entertainmant","pictures/stimuli/Entertainmant","M","F","6","5c0d109e73986d0001785b39","06/18/2022, 13:28:18",0.414644214431363,"33","F","right",1,1,0,0,FALSE,"E_H_F_yanai.jpg E_M_M_Ivri.jpg"
2577,"P_P_M_liberman.jpg","P_P_F_michaeliM.jpg","TRUE","pictures/stimuli/Politics","pictures/stimuli/Politics","M","F","6","5c0d109e73986d0001785b39","06/18/2022, 13:28:18",0.414644214431363,"33","F","right",1,1,0,0,FALSE,"P_P_F_michaeliM.jpg P_P_M_liberman.jpg"
2044,"E_M_M_tavori.jpg","E_H_F_yanai.jpg","TRUE","pictures/stimuli/Entertainmant","pictures/stimuli/Entertainmant","M","F","6","5c0d109e73986d0001785b39","06/18/2022, 13:28:18",0.414644214431363,"33","F","right",1,1,0,0,FALSE,"E_H_F_yanai.jpg E_M_M_tavori.jpg"
1995,"E_M_M_Ivri.jpg","E_M_M_tavori.jpg","TRUE","pictures/stimuli/Entertainmant","pictures/stimuli/Entertainmant","M","M","6","5c0d109e73986d0001785b39","06/18/2022, 13:28:18",0.414644214431363,"33","F","right",1,1,0,0,FALSE,"E_M_M_Ivri.jpg E_M_M_tavori.jpg"
2365,"E_C_M_shaharHasson.jpg","P_N_F_yehimovitz.jpg","FALSE","pictures/stimuli/Entertainmant","pictures/stimuli/Politics","M","F","6","5c0d109e73986d0001785b39","06/18/2022, 13:28:18",0.414644214431363,"33","F","right",1,1,0,0,FALSE,"E_C_M_shaharHasson.jpg P_N_F_yehimovitz.jpg"
1544,"P_P_M_smootrich.jpg","P_N_F_yehimovitz.jpg","TRUE","pictures/stimuli/Politics","pictures/stimuli/Politics","M","F","6","5c0d109e73986d0001785b39","06/18/2022, 13:28:18",0.414644214431363,"33","F","right",1,1,0,0,FALSE,"P_N_F_yehimovitz.jpg P_P_M_smootrich.jpg"
2227,"P_N_M_lapid.jpg","P_P_F_michaeliM.jpg","TRUE","pictures/stimuli/Politics","pictures/stimuli/Politics","M","F","6","5c0d109e73986d0001785b39","06/18/2022, 13:28:18",0.414644214431363,"33","F","right",1,1,0,0,FALSE,"P_N_M_lapid.jpg P_P_F_michaeliM.jpg"
2060,"P_P_F_michaeliM.jpg","P_P_M_peretz.jpg","TRUE","pictures/stimuli/Politics","pictures/stimuli/Politics","F","M","6","5c0d109e73986d0001785b39","06/18/2022, 13:28:18",0.414644214431363,"33","F","right",1,1,0,0,FALSE,"P_P_F_michaeliM.jpg P_P_M_peretz.jpg"
1543,"E_H_F_yanai.jpg","P_P_M_liberman.jpg","FALSE","pictures/stimuli/Entertainmant","pictures/stimuli/Politics","F","M","6","5c0d109e73986d0001785b39","06/18/2022, 13:28:18",0.414644214431363,"33","F","right",1,1,0,0,FALSE,"E_H_F_yanai.jpg P_P_M_liberman.jpg"
1696,"E_C_M_mushonov.jpg","E_M_M_tavori.jpg","TRUE","pictures/stimuli/Entertainmant","pictures/stimuli/Entertainmant","M","M","6","5c0d109e73986d0001785b39","06/18/2022, 13:28:18",0.414644214431363,"33","F","right",1,1,0,0,FALSE,"E_C_M_mushonov.jpg E_M_M_tavori.jpg"
2849,"E_C_F_shaniCo.jpg","P_P_F_shaked.jpg","FALSE","pictures/stimuli/Entertainmant","pictures/stimuli/Politics","F","F","5","5c0d109e73986d0001785b39","06/18/2022, 13:28:18",-2.39901295492433,"33","F","right",1,1,0,0,FALSE,"E_C_F_shaniCo.jpg P_P_F_shaked.jpg"
2120,"E_C_M_mushonov.jpg","P_N_F_yehimovitz.jpg","FALSE","pictures/stimuli/Entertainmant","pictures/stimuli/Politics","M","F","6","5c0d109e73986d0001785b39","06/18/2022, 13:28:18",0.414644214431363,"33","F","right",1,1,0,0,FALSE,"E_C_M_mushonov.jpg P_N_F_yehimovitz.jpg"
1752,"E_M_M_tavori.jpg","P_P_M_smootrich.jpg","FALSE","pictures/stimuli/Entertainmant","pictures/stimuli/Politics","M","M","6","5c0d109e73986d0001785b39","06/18/2022, 13:28:18",0.414644214431363,"33","F","right",1,1,0,0,FALSE,"E_M_M_tavori.jpg P_P_M_smootrich.jpg"
2111,"E_M_M_Ivri.jpg","P_P_M_zamir.jpg","FALSE","pictures/stimuli/Entertainmant","pictures/stimuli/Politics","M","M","6","5c0d109e73986d0001785b39","06/18/2022, 13:28:18",0.414644214431363,"33","F","right",1,0,0,0,TRUE,"E_M_M_Ivri.jpg P_P_M_zamir.jpg"
4833,"E_C_F_ornaBanai.jpg","E_H_F_yanai.jpg","TRUE","pictures/stimuli/Entertainmant","pictures/stimuli/Entertainmant","F","F","5","5c0d109e73986d0001785b39","06/18/2022, 13:28:18",-2.39901295492433,"33","F","right",1,1,0,0,FALSE,"E_C_F_ornaBanai.jpg E_H_F_yanai.jpg"
1352,"E_M_M_tavori.jpg","P_N_M_lapid.jpg","FALSE","pictures/stimuli/Entertainmant","pictures/stimuli/Politics","M","M","6","5c0d109e73986d0001785b39","06/18/2022, 13:28:18",0.414644214431363,"33","F","right",1,1,0,0,FALSE,"E_M_M_tavori.jpg P_N_M_lapid.jpg"
1455,"E_C_M_alfi.jpg","E_M_M_Ivri.jpg","TRUE","pictures/stimuli/Entertainmant","pictures/stimuli/Entertainmant","M","M","6","5c0d109e73986d0001785b39","06/18/2022, 13:28:18",0.414644214431363,"33","F","right",1,1,0,0,FALSE,"E_C_M_alfi.jpg E_M_M_Ivri.jpg"
1910,"E_H_F_yanai.jpg","P_N_M_lapid.jpg","FALSE","pictures/stimuli/Entertainmant","pictures/stimuli/Politics","F","M","6","5c0d109e73986d0001785b39","06/18/2022, 13:28:18",0.414644214431363,"33","F","right",1,1,0,0,FALSE,"E_H_F_yanai.jpg P_N_M_lapid.jpg"
1447,"E_C_F_harLev.jpg","P_P_M_liberman.jpg","FALSE","pictures/stimuli/Entertainmant","pictures/stimuli/Politics","F","M","6","5c0d109e73986d0001785b39","06/18/2022, 13:28:18",0.414644214431363,"33","F","right",1,1,0,0,FALSE,"E_C_F_harLev.jpg P_P_M_liberman.jpg"
2101,"E_M_M_Ivri.jpg","P_P_M_liberman.jpg","FALSE","pictures/stimuli/Entertainmant","pictures/stimuli/Politics","M","M","6","5c0d109e73986d0001785b39","06/18/2022, 13:28:18",0.414644214431363,"33","F","right",1,1,0,0,FALSE,"E_M_M_Ivri.jpg P_P_M_liberman.jpg"
2162,"E_M_M_tavori.jpg","P_P_M_benet.jpg","FALSE","pictures/stimuli/Entertainmant","pictures/stimuli/Politics","M","M","6","5c0d109e73986d0001785b39","06/18/2022, 13:28:18",0.414644214431363,"33","F","right",1,1,0,0,FALSE,"E_M_M_tavori.jpg P_P_M_benet.jpg"
2683,"E_M_F_rita.jpg","P_N_F_yehimovitz.jpg","FALSE","pictures/stimuli/Entertainmant","pictures/stimuli/Politics","F","F","5","5c0d109e73986d0001785b39","06/18/2022, 13:28:18",-2.39901295492433,"33","F","right",1,1,0,0,FALSE,"E_M_F_rita.jpg P_N_F_yehimovitz.jpg"
2641,"E_C_M_alfi.jpg","P_P_F_michaeliM.jpg","FALSE","pictures/stimuli/Entertainmant","pictures/stimuli/Politics","M","F","6","5c0d109e73986d0001785b39","06/18/2022, 13:28:18",0.414644214431363,"33","F","right",1,1,0,0,FALSE,"E_C_M_alfi.jpg P_P_F_michaeliM.jpg"
3781,"E_M_M_Ivri.jpg","P_P_M_benet.jpg","FALSE","pictures/stimuli/Entertainmant","pictures/stimuli/Politics","M","M","5","5c0d109e73986d0001785b39","06/18/2022, 13:28:18",-2.39901295492433,"33","F","right",1,1,0,0,FALSE,"E_M_M_Ivri.jpg P_P_M_benet.jpg"
1911,"E_C_M_alfi.jpg","P_P_M_liberman.jpg","FALSE","pictures/stimuli/Entertainmant","pictures/stimuli/Politics","M","M","6","5c0d109e73986d0001785b39","06/18/2022, 13:28:18",0.414644214431363,"33","F","right",1,1,0,0,FALSE,"E_C_M_alfi.jpg P_P_M_liberman.jpg"
1774,"P_P_M_liberman.jpg","P_N_F_yehimovitz.jpg","TRUE","pictures/stimuli/Politics","pictures/stimuli/Politics","M","F","6","5c0d109e73986d0001785b39","06/18/2022, 13:28:18",0.414644214431363,"33","F","right",1,1,0,0,FALSE,"P_N_F_yehimovitz.jpg P_P_M_liberman.jpg"
1791,"E_C_F_harLev.jpg","P_N_M_lapid.jpg","FALSE","pictures/stimuli/Entertainmant","pictures/stimuli/Politics","F","M","6","5c0d109e73986d0001785b39","06/18/2022, 13:28:18",0.414644214431363,"33","F","right",1,1,0,0,FALSE,"E_C_F_harLev.jpg P_N_M_lapid.jpg"
1371,"P_N_M_lapid.jpg","P_N_F_yehimovitz.jpg","TRUE","pictures/stimuli/Politics","pictures/stimuli/Politics","M","F","6","5c0d109e73986d0001785b39","06/18/2022, 13:28:18",0.414644214431363,"33","F","right",1,1,0,0,FALSE,"P_N_F_yehimovitz.jpg P_N_M_lapid.jpg"
1497,"E_C_M_katorza.jpg","E_C_F_shaniCo.jpg","TRUE","pictures/stimuli/Entertainmant","pictures/stimuli/Entertainmant","M","F","6","5c0d109e73986d0001785b39","06/18/2022, 13:28:18",0.414644214431363,"33","F","right",1,1,0,0,FALSE,"E_C_F_shaniCo.jpg E_C_M_katorza.jpg"
2094,"P_P_M_liberman.jpg","P_P_M_peretz.jpg","TRUE","pictures/stimuli/Politics","pictures/stimuli/Politics","M","M","6","5c0d109e73986d0001785b39","06/18/2022, 13:28:18",0.414644214431363,"33","F","right",1,1,0,0,FALSE,"P_P_M_liberman.jpg P_P_M_peretz.jpg"
1887,"E_M_F_rita.jpg","P_P_F_shaked.jpg","FALSE","pictures/stimuli/Entertainmant","pictures/stimuli/Politics","F","F","5","5c0d109e73986d0001785b39","06/18/2022, 13:28:18",-2.39901295492433,"33","F","right",1,1,0,0,FALSE,"E_M_F_rita.jpg P_P_F_shaked.jpg"
1126,"E_C_M_alfi.jpg","P_P_M_peretz.jpg","FALSE","pictures/stimuli/Entertainmant","pictures/stimuli/Politics","M","M","6","5c0d109e73986d0001785b39","06/18/2022, 13:28:18",0.414644214431363,"33","F","right",1,1,0,0,FALSE,"E_C_M_alfi.jpg P_P_M_peretz.jpg"
1420,"E_C_M_mushonov.jpg","E_H_F_yanai.jpg","TRUE","pictures/stimuli/Entertainmant","pictures/stimuli/Entertainmant","M","F","6","5c0d109e73986d0001785b39","06/18/2022, 13:28:18",0.414644214431363,"33","F","right",1,1,0,0,FALSE,"E_C_M_mushonov.jpg E_H_F_yanai.jpg"
1643,"E_C_F_shaniCo.jpg","P_P_M_benet.jpg","FALSE","pictures/stimuli/Entertainmant","pictures/stimuli/Politics","F","M","6","5c0d109e73986d0001785b39","06/18/2022, 13:28:18",0.414644214431363,"33","F","right",1,1,0,0,FALSE,"E_C_F_shaniCo.jpg P_P_M_benet.jpg"
1400,"E_C_M_alfi.jpg","P_N_F_yehimovitz.jpg","FALSE","pictures/stimuli/Entertainmant","pictures/stimuli/Politics","M","F","6","5c0d109e73986d0001785b39","06/18/2022, 13:28:18",0.414644214431363,"33","F","right",1,1,0,0,FALSE,"E_C_M_alfi.jpg P_N_F_yehimovitz.jpg"
2602,"E_C_F_harLev.jpg","E_H_F_yanai.jpg","TRUE","pictures/stimuli/Entertainmant","pictures/stimuli/Entertainmant","F","F","6","5c0d109e73986d0001785b39","06/18/2022, 13:28:18",0.414644214431363,"33","F","right",1,1,0,0,FALSE,"E_C_F_harLev.jpg E_H_F_yanai.jpg"
1452,"E_C_M_mushonov.jpg","E_M_F_rita.jpg","TRUE","pictures/stimuli/Entertainmant","pictures/stimuli/Entertainmant","M","F","6","5c0d109e73986d0001785b39","06/18/2022, 13:28:18",0.414644214431363,"33","F","right",1,1,0,0,FALSE,"E_C_M_mushonov.jpg E_M_F_rita.jpg"
1327,"P_N_M_lapid.jpg","P_P_F_shaked.jpg","TRUE","pictures/stimuli/Politics","pictures/stimuli/Politics","M","F","6","5c0d109e73986d0001785b39","06/18/2022, 13:28:18",0.414644214431363,"33","F","right",1,1,0,0,FALSE,"P_N_M_lapid.jpg P_P_F_shaked.jpg"
1343,"E_M_M_Ivri.jpg","P_P_F_michaeliM.jpg","FALSE","pictures/stimuli/Entertainmant","pictures/stimuli/Politics","M","F","6","5c0d109e73986d0001785b39","06/18/2022, 13:28:18",0.414644214431363,"33","F","right",1,1,0,0,FALSE,"E_M_M_Ivri.jpg P_P_F_michaeliM.jpg"
3039,"P_P_M_benet.jpg","P_P_M_zamir.jpg","TRUE","pictures/stimuli/Politics","pictures/stimuli/Politics","M","M","5","5c0d109e73986d0001785b39","06/18/2022, 13:28:18",-2.39901295492433,"33","F","right",1,0,0,0,TRUE,"P_P_M_benet.jpg P_P_M_zamir.jpg"
2124,"E_C_M_katorza.jpg","P_P_M_liberman.jpg","FALSE","pictures/stimuli/Entertainmant","pictures/stimuli/Politics","M","M","6","5c0d109e73986d0001785b39","06/18/2022, 13:28:18",0.414644214431363,"33","F","right",1,1,0,0,FALSE,"E_C_M_katorza.jpg P_P_M_liberman.jpg"
3640,"E_M_M_Ivri.jpg","P_N_F_yehimovitz.jpg","FALSE","pictures/stimuli/Entertainmant","pictures/stimuli/Politics","M","F","6","5c0d109e73986d0001785b39","06/18/2022, 13:28:18",0.414644214431363,"33","F","right",1,1,0,0,FALSE,"E_M_M_Ivri.jpg P_N_F_yehimovitz.jpg"
1705,"E_C_F_shaniCo.jpg","P_P_M_zamir.jpg","FALSE","pictures/stimuli/Entertainmant","pictures/stimuli/Politics","F","M","6","5c0d109e73986d0001785b39","06/18/2022, 13:28:18",0.414644214431363,"33","F","right",1,0,0,0,TRUE,"E_C_F_shaniCo.jpg P_P_M_zamir.jpg"
1605,"P_P_M_benet.jpg","P_P_F_shaked.jpg","TRUE","pictures/stimuli/Politics","pictures/stimuli/Politics","M","F","6","5c0d109e73986d0001785b39","06/18/2022, 13:28:18",0.414644214431363,"33","F","right",1,1,0,0,FALSE,"P_P_F_shaked.jpg P_P_M_benet.jpg"
1649,"E_C_F_ornaBanai.jpg","E_C_F_shaniCo.jpg","TRUE","pictures/stimuli/Entertainmant","pictures/stimuli/Entertainmant","F","F","5","5c0d109e73986d0001785b39","06/18/2022, 13:28:18",-2.39901295492433,"33","F","right",1,1,0,0,FALSE,"E_C_F_ornaBanai.jpg E_C_F_shaniCo.jpg"
4145,"E_C_M_mushonov.jpg","P_P_M_smootrich.jpg","FALSE","pictures/stimuli/Entertainmant","pictures/stimuli/Politics","M","M","5","5c0d109e73986d0001785b39","06/18/2022, 13:28:18",-2.39901295492433,"33","F","right",1,1,0,0,FALSE,"E_C_M_mushonov.jpg P_P_M_smootrich.jpg"
1387,"E_C_M_mushonov.jpg","P_P_M_liberman.jpg","FALSE","pictures/stimuli/Entertainmant","pictures/stimuli/Politics","M","M","6","5c0d109e73986d0001785b39","06/18/2022, 13:28:18",0.414644214431363,"33","F","right",1,1,0,0,FALSE,"E_C_M_mushonov.jpg P_P_M_liberman.jpg"
1411,"E_C_F_shaniCo.jpg","P_P_M_smootrich.jpg","FALSE","pictures/stimuli/Entertainmant","pictures/stimuli/Politics","F","M","6","5c0d109e73986d0001785b39","06/18/2022, 13:28:18",0.414644214431363,"33","F","right",1,1,0,0,FALSE,"E_C_F_shaniCo.jpg P_P_M_smootrich.jpg"
2459,"E_C_M_alfi.jpg","P_P_F_shaked.jpg","FALSE","pictures/stimuli/Entertainmant","pictures/stimuli/Politics","M","F","6","5c0d109e73986d0001785b39","06/18/2022, 13:28:18",0.414644214431363,"33","F","right",1,1,0,0,FALSE,"E_C_M_alfi.jpg P_P_F_shaked.jpg"
4730,"E_C_M_katorza.jpg","E_C_M_shaharHasson.jpg","TRUE","pictures/stimuli/Entertainmant","pictures/stimuli/Entertainmant","M","M","6","5c0d109e73986d0001785b39","06/18/2022, 13:28:18",0.414644214431363,"33","F","right",1,1,0,0,FALSE,"E_C_M_katorza.jpg E_C_M_shaharHasson.jpg"
1459,"P_N_F_yehimovitz.jpg","P_P_M_zamir.jpg","TRUE","pictures/stimuli/Politics","pictures/stimuli/Politics","F","M","6","5c0d109e73986d0001785b39","06/18/2022, 13:28:18",0.414644214431363,"33","F","right",1,0,0,0,TRUE,"P_N_F_yehimovitz.jpg P_P_M_zamir.jpg"
1277,"E_C_M_alfi.jpg","E_M_F_rita.jpg","TRUE","pictures/stimuli/Entertainmant","pictures/stimuli/Entertainmant","M","F","6","5c0d109e73986d0001785b39","06/18/2022, 13:28:18",0.414644214431363,"33","F","right",1,1,0,0,FALSE,"E_C_M_alfi.jpg E_M_F_rita.jpg"
1939,"E_C_F_ornaBanai.jpg","P_P_M_zamir.jpg","FALSE","pictures/stimuli/Entertainmant","pictures/stimuli/Politics","F","M","6","5c0d109e73986d0001785b39","06/18/2022, 13:28:18",0.414644214431363,"33","F","right",1,0,0,0,TRUE,"E_C_F_ornaBanai.jpg P_P_M_zamir.jpg"
4086,"E_C_F_harLev.jpg","P_P_F_shaked.jpg","FALSE","pictures/stimuli/Entertainmant","pictures/stimuli/Politics","F","F","5","5c0d109e73986d0001785b39","06/18/2022, 13:28:18",-2.39901295492433,"33","F","right",1,1,0,0,FALSE,"E_C_F_harLev.jpg P_P_F_shaked.jpg"
3206,"E_C_M_alfi.jpg","P_N_M_lapid.jpg","FALSE","pictures/stimuli/Entertainmant","pictures/stimuli/Politics","M","M","6","5c0d109e73986d0001785b39","06/18/2022, 13:28:18",0.414644214431363,"33","F","right",1,1,0,0,FALSE,"E_C_M_alfi.jpg P_N_M_lapid.jpg"
1473,"E_C_F_harLev.jpg","P_P_M_smootrich.jpg","FALSE","pictures/stimuli/Entertainmant","pictures/stimuli/Politics","F","M","6","5c0d109e73986d0001785b39","06/18/2022, 13:28:18",0.414644214431363,"33","F","right",1,1,0,0,FALSE,"E_C_F_harLev.jpg P_P_M_smootrich.jpg"
3543,"E_C_M_mushonov.jpg","P_P_M_benet.jpg","FALSE","pictures/stimuli/Entertainmant","pictures/stimuli/Politics","M","M","5","5c0d109e73986d0001785b39","06/18/2022, 13:28:18",-2.39901295492433,"33","F","right",1,1,0,0,FALSE,"E_C_M_mushonov.jpg P_P_M_benet.jpg"
1518,"E_C_M_shaharHasson.jpg","P_N_M_lapid.jpg","FALSE","pictures/stimuli/Entertainmant","pictures/stimuli/Politics","M","M","6","5c0d109e73986d0001785b39","06/18/2022, 13:28:18",0.414644214431363,"33","F","right",1,1,0,0,FALSE,"E_C_M_shaharHasson.jpg P_N_M_lapid.jpg"
2282,"P_N_M_lapid.jpg","P_P_M_zamir.jpg","TRUE","pictures/stimuli/Politics","pictures/stimuli/Politics","M","M","5","5c0d109e73986d0001785b39","06/18/2022, 13:28:18",-2.39901295492433,"33","F","right",1,0,0,0,TRUE,"P_N_M_lapid.jpg P_P_M_zamir.jpg"
7767,"P_P_F_michaeliM.jpg","P_N_F_yehimovitz.jpg","TRUE","pictures/stimuli/Politics","pictures/stimuli/Politics","F","F","5","5c0d109e73986d0001785b39","06/18/2022, 13:28:18",-2.39901295492433,"33","F","right",1,1,0,0,FALSE,"P_N_F_yehimovitz.jpg P_P_F_michaeliM.jpg"
1998,"E_C_M_katorza.jpg","P_P_F_michaeliM.jpg","FALSE","pictures/stimuli/Entertainmant","pictures/stimuli/Politics","M","F","6","5c0d109e73986d0001785b39","06/18/2022, 13:28:18",0.414644214431363,"33","F","right",1,1,0,0,FALSE,"E_C_M_katorza.jpg P_P_F_michaeliM.jpg"
2551,"E_H_F_yanai.jpg","P_P_M_zamir.jpg","FALSE","pictures/stimuli/Entertainmant","pictures/stimuli/Politics","F","M","6","5c0d109e73986d0001785b39","06/18/2022, 13:28:18",0.414644214431363,"33","F","right",1,0,0,0,TRUE,"E_H_F_yanai.jpg P_P_M_zamir.jpg"
2919,"E_C_F_shaniCo.jpg","P_N_F_yehimovitz.jpg","FALSE","pictures/stimuli/Entertainmant","pictures/stimuli/Politics","F","F","5","5c0d109e73986d0001785b39","06/18/2022, 13:28:18",-2.39901295492433,"33","F","right",1,1,0,0,FALSE,"E_C_F_shaniCo.jpg P_N_F_yehimovitz.jpg"
1266,"E_C_M_mushonov.jpg","P_P_F_shaked.jpg","FALSE","pictures/stimuli/Entertainmant","pictures/stimuli/Politics","M","F","6","5c0d109e73986d0001785b39","06/18/2022, 13:28:18",0.414644214431363,"33","F","right",1,1,0,0,FALSE,"E_C_M_mushonov.jpg P_P_F_shaked.jpg"
1479,"P_P_M_benet.jpg","P_N_F_yehimovitz.jpg","TRUE","pictures/stimuli/Politics","pictures/stimuli/Politics","M","F","6","5c0d109e73986d0001785b39","06/18/2022, 13:28:18",0.414644214431363,"33","F","right",1,1,0,0,FALSE,"P_N_F_yehimovitz.jpg P_P_M_benet.jpg"
1822,"E_M_M_tavori.jpg","P_P_M_zamir.jpg","FALSE","pictures/stimuli/Entertainmant","pictures/stimuli/Politics","M","M","6","5c0d109e73986d0001785b39","06/18/2022, 13:28:18",0.414644214431363,"33","F","right",1,0,0,0,TRUE,"E_M_M_tavori.jpg P_P_M_zamir.jpg"
1431,"P_P_M_peretz.jpg","P_P_M_zamir.jpg","TRUE","pictures/stimuli/Politics","pictures/stimuli/Politics","M","M","6","5c0d109e73986d0001785b39","06/18/2022, 13:28:18",0.414644214431363,"33","F","right",1,0,0,0,TRUE,"P_P_M_peretz.jpg P_P_M_zamir.jpg"
2539,"E_H_F_yanai.jpg","P_P_F_michaeliM.jpg","FALSE","pictures/stimuli/Entertainmant","pictures/stimuli/Politics","F","F","5","5c0d109e73986d0001785b39","06/18/2022, 13:28:18",-2.39901295492433,"33","F","right",1,1,0,0,FALSE,"E_H_F_yanai.jpg P_P_F_michaeliM.jpg"
1999,"E_C_M_katorza.jpg","P_P_M_zamir.jpg","FALSE","pictures/stimuli/Entertainmant","pictures/stimuli/Politics","M","M","6","5c0d109e73986d0001785b39","06/18/2022, 13:28:18",0.414644214431363,"33","F","right",1,0,0,0,TRUE,"E_C_M_katorza.jpg P_P_M_zamir.jpg"
1431,"E_M_M_Ivri.jpg","P_P_F_shaked.jpg","FALSE","pictures/stimuli/Entertainmant","pictures/stimuli/Politics","M","F","6","5c0d109e73986d0001785b39","06/18/2022, 13:28:18",0.414644214431363,"33","F","right",1,1,0,0,FALSE,"E_M_M_Ivri.jpg P_P_F_shaked.jpg"
2287,"E_M_M_Ivri.jpg","E_C_M_mushonov.jpg","TRUE","pictures/stimuli/Entertainmant","pictures/stimuli/Entertainmant","M","M","5","5c0d109e73986d0001785b39","06/18/2022, 13:28:18",-2.39901295492433,"33","F","right",1,1,0,0,FALSE,"E_C_M_mushonov.jpg E_M_M_Ivri.jpg"
1623,"E_C_F_ornaBanai.jpg","P_P_M_benet.jpg","FALSE","pictures/stimuli/Entertainmant","pictures/stimuli/Politics","F","M","6","5c0d109e73986d0001785b39","06/18/2022, 13:28:18",0.414644214431363,"33","F","right",1,1,0,0,FALSE,"E_C_F_ornaBanai.jpg P_P_M_benet.jpg"
1615,"E_C_M_katorza.jpg","E_C_F_ornaBanai.jpg","TRUE","pictures/stimuli/Entertainmant","pictures/stimuli/Entertainmant","M","F","6","5c0d109e73986d0001785b39","06/18/2022, 13:28:18",0.414644214431363,"33","F","right",1,1,0,0,FALSE,"E_C_F_ornaBanai.jpg E_C_M_katorza.jpg"
2231,"E_C_M_mushonov.jpg","P_P_M_peretz.jpg","FALSE","pictures/stimuli/Entertainmant","pictures/stimuli/Politics","M","M","6","5c0d109e73986d0001785b39","06/18/2022, 13:28:18",0.414644214431363,"33","F","right",1,1,0,0,FALSE,"E_C_M_mushonov.jpg P_P_M_peretz.jpg"
2122,"E_C_M_mushonov.jpg","E_C_F_shaniCo.jpg","TRUE","pictures/stimuli/Entertainmant","pictures/stimuli/Entertainmant","M","F","6","5c0d109e73986d0001785b39","06/18/2022, 13:28:18",0.414644214431363,"33","F","right",1,1,0,0,FALSE,"E_C_F_shaniCo.jpg E_C_M_mushonov.jpg"
1516,"E_C_M_mushonov.jpg","P_P_F_michaeliM.jpg","FALSE","pictures/stimuli/Entertainmant","pictures/stimuli/Politics","M","F","6","5c0d109e73986d0001785b39","06/18/2022, 13:28:18",0.414644214431363,"33","F","right",1,1,0,0,FALSE,"E_C_M_mushonov.jpg P_P_F_michaeliM.jpg"
1598,"E_C_M_katorza.jpg","P_P_M_benet.jpg","FALSE","pictures/stimuli/Entertainmant","pictures/stimuli/Politics","M","M","6","5c0d109e73986d0001785b39","06/18/2022, 13:28:18",0.414644214431363,"33","F","right",1,1,0,0,FALSE,"E_C_M_katorza.jpg P_P_M_benet.jpg"
1478,"E_M_F_rita.jpg","P_P_M_benet.jpg","FALSE","pictures/stimuli/Entertainmant","pictures/stimuli/Politics","F","M","6","5c0d109e73986d0001785b39","06/18/2022, 13:28:18",0.414644214431363,"33","F","right",1,1,0,0,FALSE,"E_M_F_rita.jpg P_P_M_benet.jpg"
1368,"E_C_F_harLev.jpg","P_P_M_peretz.jpg","FALSE","pictures/stimuli/Entertainmant","pictures/stimuli/Politics","F","M","6","5c0d109e73986d0001785b39","06/18/2022, 13:28:18",0.414644214431363,"33","F","right",1,1,0,0,FALSE,"E_C_F_harLev.jpg P_P_M_peretz.jpg"
2868,"E_M_F_rita.jpg","P_P_F_michaeliM.jpg","FALSE","pictures/stimuli/Entertainmant","pictures/stimuli/Politics","F","F","6","5c0d109e73986d0001785b39","06/18/2022, 13:28:18",0.414644214431363,"33","F","right",1,1,0,0,FALSE,"E_M_F_rita.jpg P_P_F_michaeliM.jpg"
1503,"E_H_F_yanai.jpg","P_P_M_smootrich.jpg","FALSE","pictures/stimuli/Entertainmant","pictures/stimuli/Politics","F","M","6","5c0d109e73986d0001785b39","06/18/2022, 13:28:18",0.414644214431363,"33","F","right",1,1,0,0,FALSE,"E_H_F_yanai.jpg P_P_M_smootrich.jpg"
4888,"E_C_F_harLev.jpg","P_N_F_yehimovitz.jpg","FALSE","pictures/stimuli/Entertainmant","pictures/stimuli/Politics","F","F","6","5c0d109e73986d0001785b39","06/18/2022, 13:28:18",0.414644214431363,"33","F","right",1,1,0,0,FALSE,"E_C_F_harLev.jpg P_N_F_yehimovitz.jpg"
1481,"E_C_F_harLev.jpg","E_C_M_shaharHasson.jpg","TRUE","pictures/stimuli/Entertainmant","pictures/stimuli/Entertainmant","F","M","6","5c0d109e73986d0001785b39","06/18/2022, 13:28:18",0.414644214431363,"33","F","right",1,1,0,0,FALSE,"E_C_F_harLev.jpg E_C_M_shaharHasson.jpg"
1446,"E_C_F_harLev.jpg","P_P_M_zamir.jpg","FALSE","pictures/stimuli/Entertainmant","pictures/stimuli/Politics","F","M","6","5c0d109e73986d0001785b39","06/18/2022, 13:28:18",0.414644214431363,"33","F","right",1,0,0,0,TRUE,"E_C_F_harLev.jpg P_P_M_zamir.jpg"
1943,"E_C_F_ornaBanai.jpg","P_P_M_smootrich.jpg","FALSE","pictures/stimuli/Entertainmant","pictures/stimuli/Politics","F","M","6","5c0d109e73986d0001785b39","06/18/2022, 13:28:18",0.414644214431363,"33","F","right",1,1,0,0,FALSE,"E_C_F_ornaBanai.jpg P_P_M_smootrich.jpg"
1487,"E_M_M_tavori.jpg","P_P_M_liberman.jpg","FALSE","pictures/stimuli/Entertainmant","pictures/stimuli/Politics","M","M","6","5c0d109e73986d0001785b39","06/18/2022, 13:28:18",0.414644214431363,"33","F","right",1,1,0,0,FALSE,"E_M_M_tavori.jpg P_P_M_liberman.jpg"
1327,"E_C_F_harLev.jpg","E_C_M_mushonov.jpg","TRUE","pictures/stimuli/Entertainmant","pictures/stimuli/Entertainmant","F","M","6","5c0d109e73986d0001785b39","06/18/2022, 13:28:18",0.414644214431363,"33","F","right",1,1,0,0,FALSE,"E_C_F_harLev.jpg E_C_M_mushonov.jpg"
1327,"E_C_F_shaniCo.jpg","P_P_M_liberman.jpg","FALSE","pictures/stimuli/Entertainmant","pictures/stimuli/Politics","F","M","6","5c0d109e73986d0001785b39","06/18/2022, 13:28:18",0.414644214431363,"33","F","right",1,1,0,0,FALSE,"E_C_F_shaniCo.jpg P_P_M_liberman.jpg"
5115,"E_C_F_ornaBanai.jpg","P_P_M_peretz.jpg","FALSE","pictures/stimuli/Entertainmant","pictures/stimuli/Politics","F","M","6","5c0d109e73986d0001785b39","06/18/2022, 13:28:18",0.414644214431363,"33","F","right",1,1,0,0,FALSE,"E_C_F_ornaBanai.jpg P_P_M_peretz.jpg"
2068,"P_P_M_liberman.jpg","P_P_M_zamir.jpg","TRUE","pictures/stimuli/Politics","pictures/stimuli/Politics","M","M","6","5c0d109e73986d0001785b39","06/18/2022, 13:28:18",0.414644214431363,"33","F","right",1,0,0,0,TRUE,"P_P_M_liberman.jpg P_P_M_zamir.jpg"
1574,"E_M_M_Ivri.jpg","E_C_M_shaharHasson.jpg","TRUE","pictures/stimuli/Entertainmant","pictures/stimuli/Entertainmant","M","M","6","5c0d109e73986d0001785b39","06/18/2022, 13:28:18",0.414644214431363,"33","F","right",1,1,0,0,FALSE,"E_C_M_shaharHasson.jpg E_M_M_Ivri.jpg"
1415,"E_C_M_mushonov.jpg","E_C_F_ornaBanai.jpg","TRUE","pictures/stimuli/Entertainmant","pictures/stimuli/Entertainmant","M","F","6","5c0d109e73986d0001785b39","06/18/2022, 13:28:18",0.414644214431363,"33","F","right",1,1,0,0,FALSE,"E_C_F_ornaBanai.jpg E_C_M_mushonov.jpg"
1379,"E_C_M_shaharHasson.jpg","P_P_M_liberman.jpg","FALSE","pictures/stimuli/Entertainmant","pictures/stimuli/Politics","M","M","6","5c0d109e73986d0001785b39","06/18/2022, 13:28:18",0.414644214431363,"33","F","right",1,1,0,0,FALSE,"E_C_M_shaharHasson.jpg P_P_M_liberman.jpg"
1655,"E_C_M_alfi.jpg","E_C_M_mushonov.jpg","TRUE","pictures/stimuli/Entertainmant","pictures/stimuli/Entertainmant","M","M","5","5c0d109e73986d0001785b39","06/18/2022, 13:28:18",-2.39901295492433,"33","F","right",1,1,0,0,FALSE,"E_C_M_alfi.jpg E_C_M_mushonov.jpg"
1970,"E_M_M_tavori.jpg","P_P_M_peretz.jpg","FALSE","pictures/stimuli/Entertainmant","pictures/stimuli/Politics","M","M","6","5c0d109e73986d0001785b39","06/18/2022, 13:28:18",0.414644214431363,"33","F","right",1,1,0,0,FALSE,"E_M_M_tavori.jpg P_P_M_peretz.jpg"
2745,"E_H_F_yanai.jpg","P_P_M_peretz.jpg","FALSE","pictures/stimuli/Entertainmant","pictures/stimuli/Politics","F","M","6","5c0d109e73986d0001785b39","06/18/2022, 13:28:18",0.414644214431363,"33","F","right",1,1,0,0,FALSE,"E_H_F_yanai.jpg P_P_M_peretz.jpg"
1671,"P_P_F_shaked.jpg","P_N_F_yehimovitz.jpg","TRUE","pictures/stimuli/Politics","pictures/stimuli/Politics","F","F","5","5c0d109e73986d0001785b39","06/18/2022, 13:28:18",-2.39901295492433,"33","F","right",1,1,0,0,FALSE,"P_N_F_yehimovitz.jpg P_P_F_shaked.jpg"
1399,"P_N_M_lapid.jpg","P_P_M_smootrich.jpg","TRUE","pictures/stimuli/Politics","pictures/stimuli/Politics","M","M","6","5c0d109e73986d0001785b39","06/18/2022, 13:28:18",0.414644214431363,"33","F","right",1,1,0,0,FALSE,"P_N_M_lapid.jpg P_P_M_smootrich.jpg"
2397,"E_M_M_tavori.jpg","P_N_F_yehimovitz.jpg","FALSE","pictures/stimuli/Entertainmant","pictures/stimuli/Politics","M","F","6","5c0d109e73986d0001785b39","06/18/2022, 13:28:18",0.414644214431363,"33","F","right",1,1,0,0,FALSE,"E_M_M_tavori.jpg P_N_F_yehimovitz.jpg"
1334,"E_M_F_rita.jpg","P_P_M_zamir.jpg","FALSE","pictures/stimuli/Entertainmant","pictures/stimuli/Politics","F","M","6","5c0d109e73986d0001785b39","06/18/2022, 13:28:18",0.414644214431363,"33","F","right",1,0,0,0,TRUE,"E_M_F_rita.jpg P_P_M_zamir.jpg"
