"RT","img_1","img_2","isSameProffesion","img1proffesion","img2proffesion","img1Gender","img2Gender","keyPressed","participant","time","normlised_keyPress","age","gender","handedness","isFamiliar_img1","isFamiliar_img2","vividness_img1","vividness_img2","reject_trial","pair"
8670,"E_M_F_rita.jpg","E_C_F_shaniCo.jpg","TRUE","pictures/stimuli/E","pictures/stimuli/E","F","F","3","5ba8d21cd08ab20001c82ecf","08/06/2022, 16:32:57",-1.71207590675671,"31","M","right",0,1,0,0,TRUE,"E_C_F_shaniCo.jpg E_M_F_rita.jpg"
4374,"E_M_F_rita.jpg","P_N_F_yehimovitz.jpg","FALSE","pictures/stimuli/E","pictures/stimuli/P","F","F","5","5ba8d21cd08ab20001c82ecf","08/06/2022, 16:32:57",0.0752560838134821,"31","M","right",0,1,0,0,TRUE,"E_M_F_rita.jpg P_N_F_yehimovitz.jpg"
3356,"E_C_F_shaniCo.jpg","P_N_F_yehimovitz.jpg","FALSE","pictures/stimuli/E","pictures/stimuli/P","F","F","5","5ba8d21cd08ab20001c82ecf","08/06/2022, 16:32:57",0.0752560838134821,"31","M","right",1,1,0,0,TRUE,"E_C_F_shaniCo.jpg P_N_F_yehimovitz.jpg"
4562,"E_C_M_alfi.jpg","P_P_M_zamir.jpg","FALSE","pictures/stimuli/E","pictures/stimuli/P","M","M","4","5ba8d21cd08ab20001c82ecf","08/06/2022, 16:32:57",-0.818409911471615,"31","M","right",1,0,0,0,TRUE,"E_C_M_alfi.jpg P_P_M_zamir.jpg"
5501,"E_C_F_ornaBanai.jpg","E_M_F_rita.jpg","TRUE","pictures/stimuli/E","pictures/stimuli/E","F","F","3","5ba8d21cd08ab20001c82ecf","08/06/2022, 16:32:57",-1.71207590675671,"31","M","right",1,0,0,0,TRUE,"E_C_F_ornaBanai.jpg E_M_F_rita.jpg"
3166,"E_C_F_shaniCo.jpg","P_P_M_benet.jpg","FALSE","pictures/stimuli/E","pictures/stimuli/P","F","M","6","5ba8d21cd08ab20001c82ecf","08/06/2022, 16:32:57",0.968922079098579,"31","M","right",1,1,0,0,TRUE,"E_C_F_shaniCo.jpg P_P_M_benet.jpg"
3317,"E_C_F_harLev.jpg","E_H_F_yanai.jpg","TRUE","pictures/stimuli/E","pictures/stimuli/E","F","F","5","5ba8d21cd08ab20001c82ecf","08/06/2022, 16:32:57",0.0752560838134821,"31","M","right",1,0,0,0,TRUE,"E_C_F_harLev.jpg E_H_F_yanai.jpg"
3163,"E_C_M_alfi.jpg","E_H_F_yanai.jpg","TRUE","pictures/stimuli/E","pictures/stimuli/E","M","F","6","5ba8d21cd08ab20001c82ecf","08/06/2022, 16:32:57",0.968922079098579,"31","M","right",1,0,0,0,TRUE,"E_C_M_alfi.jpg E_H_F_yanai.jpg"
3391,"E_C_F_ornaBanai.jpg","E_H_F_yanai.jpg","TRUE","pictures/stimuli/E","pictures/stimuli/E","F","F","5","5ba8d21cd08ab20001c82ecf","08/06/2022, 16:32:57",0.0752560838134821,"31","M","right",1,0,0,0,TRUE,"E_C_F_ornaBanai.jpg E_H_F_yanai.jpg"
5922,"E_C_M_shaharHasson.jpg","P_P_M_benet.jpg","FALSE","pictures/stimuli/E","pictures/stimuli/P","M","M","5","5ba8d21cd08ab20001c82ecf","08/06/2022, 16:32:57",0.0752560838134821,"31","M","right",1,1,0,0,TRUE,"E_C_M_shaharHasson.jpg P_P_M_benet.jpg"
4054,"E_C_M_alfi.jpg","E_M_M_Ivri.jpg","TRUE","pictures/stimuli/E","pictures/stimuli/E","M","M","3","5ba8d21cd08ab20001c82ecf","08/06/2022, 16:32:57",-1.71207590675671,"31","M","right",1,0,0,0,TRUE,"E_C_M_alfi.jpg E_M_M_Ivri.jpg"
2483,"P_P_M_peretz.jpg","P_N_F_yehimovitz.jpg","TRUE","pictures/stimuli/P","pictures/stimuli/P","M","F","6","5ba8d21cd08ab20001c82ecf","08/06/2022, 16:32:57",0.968922079098579,"31","M","right",0,1,0,0,TRUE,"P_N_F_yehimovitz.jpg P_P_M_peretz.jpg"
7427,"E_M_F_rita.jpg","E_M_M_tavori.jpg","TRUE","pictures/stimuli/E","pictures/stimuli/E","F","M","6","5ba8d21cd08ab20001c82ecf","08/06/2022, 16:32:57",0.968922079098579,"31","M","right",0,1,0,0,TRUE,"E_M_F_rita.jpg E_M_M_tavori.jpg"
6905,"E_M_M_Ivri.jpg","E_C_M_mushonov.jpg","TRUE","pictures/stimuli/E","pictures/stimuli/E","M","M","5","5ba8d21cd08ab20001c82ecf","08/06/2022, 16:32:57",0.0752560838134821,"31","M","right",0,0,0,0,TRUE,"E_C_M_mushonov.jpg E_M_M_Ivri.jpg"
4863,"E_C_M_alfi.jpg","P_N_M_lapid.jpg","FALSE","pictures/stimuli/E","pictures/stimuli/P","M","M","5","5ba8d21cd08ab20001c82ecf","08/06/2022, 16:32:57",0.0752560838134821,"31","M","right",1,1,0,0,TRUE,"E_C_M_alfi.jpg P_N_M_lapid.jpg"
4557,"E_C_F_harLev.jpg","P_P_F_shaked.jpg","FALSE","pictures/stimuli/E","pictures/stimuli/P","F","F","2","5ba8d21cd08ab20001c82ecf","08/06/2022, 16:32:57",-2.60574190204181,"31","M","right",1,1,0,0,TRUE,"E_C_F_harLev.jpg P_P_F_shaked.jpg"
3249,"E_C_F_ornaBanai.jpg","P_P_M_smootrich.jpg","FALSE","pictures/stimuli/E","pictures/stimuli/P","F","M","6","5ba8d21cd08ab20001c82ecf","08/06/2022, 16:32:57",0.968922079098579,"31","M","right",1,1,0,0,TRUE,"E_C_F_ornaBanai.jpg P_P_M_smootrich.jpg"
3096,"E_C_M_mushonov.jpg","P_N_M_lapid.jpg","FALSE","pictures/stimuli/E","pictures/stimuli/P","M","M","5","5ba8d21cd08ab20001c82ecf","08/06/2022, 16:32:57",0.0752560838134821,"31","M","right",0,1,0,0,TRUE,"E_C_M_mushonov.jpg P_N_M_lapid.jpg"
2943,"E_C_M_mushonov.jpg","P_P_F_shaked.jpg","FALSE","pictures/stimuli/E","pictures/stimuli/P","M","F","6","5ba8d21cd08ab20001c82ecf","08/06/2022, 16:32:57",0.968922079098579,"31","M","right",0,1,0,0,TRUE,"E_C_M_mushonov.jpg P_P_F_shaked.jpg"
4060,"E_M_M_Ivri.jpg","E_C_F_ornaBanai.jpg","TRUE","pictures/stimuli/E","pictures/stimuli/E","M","F","6","5ba8d21cd08ab20001c82ecf","08/06/2022, 16:32:57",0.968922079098579,"31","M","right",0,1,0,0,TRUE,"E_C_F_ornaBanai.jpg E_M_M_Ivri.jpg"
3984,"P_P_M_liberman.jpg","P_P_M_smootrich.jpg","TRUE","pictures/stimuli/P","pictures/stimuli/P","M","M","5","5ba8d21cd08ab20001c82ecf","08/06/2022, 16:32:57",0.0752560838134821,"31","M","right",1,1,0,0,TRUE,"P_P_M_liberman.jpg P_P_M_smootrich.jpg"
2939,"P_N_M_lapid.jpg","P_P_F_shaked.jpg","TRUE","pictures/stimuli/P","pictures/stimuli/P","M","F","6","5ba8d21cd08ab20001c82ecf","08/06/2022, 16:32:57",0.968922079098579,"31","M","right",1,1,0,0,TRUE,"P_N_M_lapid.jpg P_P_F_shaked.jpg"
3357,"E_C_F_ornaBanai.jpg","P_P_F_michaeliM.jpg","FALSE","pictures/stimuli/E","pictures/stimuli/P","F","F","5","5ba8d21cd08ab20001c82ecf","08/06/2022, 16:32:57",0.0752560838134821,"31","M","right",1,1,0,0,TRUE,"E_C_F_ornaBanai.jpg P_P_F_michaeliM.jpg"
4291,"E_M_F_rita.jpg","P_P_M_liberman.jpg","FALSE","pictures/stimuli/E","pictures/stimuli/P","F","M","6","5ba8d21cd08ab20001c82ecf","08/06/2022, 16:32:57",0.968922079098579,"31","M","right",0,1,0,0,TRUE,"E_M_F_rita.jpg P_P_M_liberman.jpg"
3531,"E_C_M_mushonov.jpg","P_P_F_michaeliM.jpg","FALSE","pictures/stimuli/E","pictures/stimuli/P","M","F","6","5ba8d21cd08ab20001c82ecf","08/06/2022, 16:32:57",0.968922079098579,"31","M","right",0,1,0,0,TRUE,"E_C_M_mushonov.jpg P_P_F_michaeliM.jpg"
5089,"E_C_M_shaharHasson.jpg","P_P_M_smootrich.jpg","FALSE","pictures/stimuli/E","pictures/stimuli/P","M","M","3","5ba8d21cd08ab20001c82ecf","08/06/2022, 16:32:57",-1.71207590675671,"31","M","right",1,1,0,0,TRUE,"E_C_M_shaharHasson.jpg P_P_M_smootrich.jpg"
6991,"E_C_M_mushonov.jpg","P_P_M_benet.jpg","FALSE","pictures/stimuli/E","pictures/stimuli/P","M","M","5","5ba8d21cd08ab20001c82ecf","08/06/2022, 16:32:57",0.0752560838134821,"31","M","right",0,1,0,0,TRUE,"E_C_M_mushonov.jpg P_P_M_benet.jpg"
3920,"E_C_M_alfi.jpg","E_C_M_katorza.jpg","TRUE","pictures/stimuli/E","pictures/stimuli/E","M","M","4","5ba8d21cd08ab20001c82ecf","08/06/2022, 16:32:57",-0.818409911471615,"31","M","right",1,1,0,0,TRUE,"E_C_M_alfi.jpg E_C_M_katorza.jpg"
4622,"P_P_M_smootrich.jpg","P_N_F_yehimovitz.jpg","TRUE","pictures/stimuli/P","pictures/stimuli/P","M","F","6","5ba8d21cd08ab20001c82ecf","08/06/2022, 16:32:57",0.968922079098579,"31","M","right",1,1,0,0,TRUE,"P_N_F_yehimovitz.jpg P_P_M_smootrich.jpg"
4871,"E_C_M_mushonov.jpg","E_H_F_yanai.jpg","TRUE","pictures/stimuli/E","pictures/stimuli/E","M","F","6","5ba8d21cd08ab20001c82ecf","08/06/2022, 16:32:57",0.968922079098579,"31","M","right",0,0,0,0,TRUE,"E_C_M_mushonov.jpg E_H_F_yanai.jpg"
3828,"E_C_M_mushonov.jpg","P_P_M_smootrich.jpg","FALSE","pictures/stimuli/E","pictures/stimuli/P","M","M","4","5ba8d21cd08ab20001c82ecf","08/06/2022, 16:32:57",-0.818409911471615,"31","M","right",0,1,0,0,TRUE,"E_C_M_mushonov.jpg P_P_M_smootrich.jpg"
2415,"E_C_M_katorza.jpg","P_P_M_zamir.jpg","FALSE","pictures/stimuli/E","pictures/stimuli/P","M","M","5","5ba8d21cd08ab20001c82ecf","08/06/2022, 16:32:57",0.0752560838134821,"31","M","right",1,0,0,0,TRUE,"E_C_M_katorza.jpg P_P_M_zamir.jpg"
2998,"E_C_M_katorza.jpg","E_M_M_tavori.jpg","TRUE","pictures/stimuli/E","pictures/stimuli/E","M","M","5","5ba8d21cd08ab20001c82ecf","08/06/2022, 16:32:57",0.0752560838134821,"31","M","right",1,1,0,0,TRUE,"E_C_M_katorza.jpg E_M_M_tavori.jpg"
1493,"P_P_M_liberman.jpg","P_P_F_shaked.jpg","TRUE","pictures/stimuli/P","pictures/stimuli/P","M","F","6","5ba8d21cd08ab20001c82ecf","08/06/2022, 16:32:57",0.968922079098579,"31","M","right",1,1,0,0,TRUE,"P_P_F_shaked.jpg P_P_M_liberman.jpg"
2559,"P_P_M_benet.jpg","P_P_M_smootrich.jpg","TRUE","pictures/stimuli/P","pictures/stimuli/P","M","M","4","5ba8d21cd08ab20001c82ecf","08/06/2022, 16:32:57",-0.818409911471615,"31","M","right",1,1,0,0,TRUE,"P_P_M_benet.jpg P_P_M_smootrich.jpg"
3698,"E_C_M_mushonov.jpg","E_M_M_tavori.jpg","TRUE","pictures/stimuli/E","pictures/stimuli/E","M","M","3","5ba8d21cd08ab20001c82ecf","08/06/2022, 16:32:57",-1.71207590675671,"31","M","right",0,1,0,0,TRUE,"E_C_M_mushonov.jpg E_M_M_tavori.jpg"
2597,"P_P_M_benet.jpg","P_N_F_yehimovitz.jpg","TRUE","pictures/stimuli/P","pictures/stimuli/P","M","F","6","5ba8d21cd08ab20001c82ecf","08/06/2022, 16:32:57",0.968922079098579,"31","M","right",1,1,0,0,TRUE,"P_N_F_yehimovitz.jpg P_P_M_benet.jpg"
2116,"E_M_F_rita.jpg","P_P_F_shaked.jpg","FALSE","pictures/stimuli/E","pictures/stimuli/P","F","F","4","5ba8d21cd08ab20001c82ecf","08/06/2022, 16:32:57",-0.818409911471615,"31","M","right",0,1,0,0,TRUE,"E_M_F_rita.jpg P_P_F_shaked.jpg"
3614,"E_C_M_shaharHasson.jpg","P_P_F_shaked.jpg","FALSE","pictures/stimuli/E","pictures/stimuli/P","M","F","6","5ba8d21cd08ab20001c82ecf","08/06/2022, 16:32:57",0.968922079098579,"31","M","right",1,1,0,0,TRUE,"E_C_M_shaharHasson.jpg P_P_F_shaked.jpg"
1749,"E_C_F_shaniCo.jpg","P_P_M_smootrich.jpg","FALSE","pictures/stimuli/E","pictures/stimuli/P","F","M","6","5ba8d21cd08ab20001c82ecf","08/06/2022, 16:32:57",0.968922079098579,"31","M","right",1,1,0,0,TRUE,"E_C_F_shaniCo.jpg P_P_M_smootrich.jpg"
2277,"E_M_M_Ivri.jpg","E_M_M_tavori.jpg","TRUE","pictures/stimuli/E","pictures/stimuli/E","M","M","4","5ba8d21cd08ab20001c82ecf","08/06/2022, 16:32:57",-0.818409911471615,"31","M","right",0,1,0,0,TRUE,"E_M_M_Ivri.jpg E_M_M_tavori.jpg"
1509,"E_M_M_Ivri.jpg","E_C_F_shaniCo.jpg","TRUE","pictures/stimuli/E","pictures/stimuli/E","M","F","6","5ba8d21cd08ab20001c82ecf","08/06/2022, 16:32:57",0.968922079098579,"31","M","right",0,1,0,0,TRUE,"E_C_F_shaniCo.jpg E_M_M_Ivri.jpg"
1331,"E_M_M_tavori.jpg","E_H_F_yanai.jpg","TRUE","pictures/stimuli/E","pictures/stimuli/E","M","F","6","5ba8d21cd08ab20001c82ecf","08/06/2022, 16:32:57",0.968922079098579,"31","M","right",1,0,0,0,TRUE,"E_H_F_yanai.jpg E_M_M_tavori.jpg"
3176,"E_M_M_tavori.jpg","P_P_M_smootrich.jpg","FALSE","pictures/stimuli/E","pictures/stimuli/P","M","M","4","5ba8d21cd08ab20001c82ecf","08/06/2022, 16:32:57",-0.818409911471615,"31","M","right",1,1,0,0,TRUE,"E_M_M_tavori.jpg P_P_M_smootrich.jpg"
1301,"E_C_F_harLev.jpg","P_N_M_lapid.jpg","FALSE","pictures/stimuli/E","pictures/stimuli/P","F","M","6","5ba8d21cd08ab20001c82ecf","08/06/2022, 16:32:57",0.968922079098579,"31","M","right",1,1,0,0,TRUE,"E_C_F_harLev.jpg P_N_M_lapid.jpg"
1765,"E_C_M_mushonov.jpg","P_P_M_liberman.jpg","FALSE","pictures/stimuli/E","pictures/stimuli/P","M","M","6","5ba8d21cd08ab20001c82ecf","08/06/2022, 16:32:57",0.968922079098579,"31","M","right",0,1,0,0,TRUE,"E_C_M_mushonov.jpg P_P_M_liberman.jpg"
1715,"E_C_F_shaniCo.jpg","P_N_M_lapid.jpg","FALSE","pictures/stimuli/E","pictures/stimuli/P","F","M","6","5ba8d21cd08ab20001c82ecf","08/06/2022, 16:32:57",0.968922079098579,"31","M","right",1,1,0,0,TRUE,"E_C_F_shaniCo.jpg P_N_M_lapid.jpg"
2485,"E_C_F_shaniCo.jpg","E_H_F_yanai.jpg","TRUE","pictures/stimuli/E","pictures/stimuli/E","F","F","5","5ba8d21cd08ab20001c82ecf","08/06/2022, 16:32:57",0.0752560838134821,"31","M","right",1,0,0,0,TRUE,"E_C_F_shaniCo.jpg E_H_F_yanai.jpg"
1116,"E_C_M_shaharHasson.jpg","E_H_F_yanai.jpg","TRUE","pictures/stimuli/E","pictures/stimuli/E","M","F","6","5ba8d21cd08ab20001c82ecf","08/06/2022, 16:32:57",0.968922079098579,"31","M","right",1,0,0,0,TRUE,"E_C_M_shaharHasson.jpg E_H_F_yanai.jpg"
2727,"E_C_M_alfi.jpg","P_P_M_peretz.jpg","FALSE","pictures/stimuli/E","pictures/stimuli/P","M","M","5","5ba8d21cd08ab20001c82ecf","08/06/2022, 16:32:57",0.0752560838134821,"31","M","right",1,0,0,0,TRUE,"E_C_M_alfi.jpg P_P_M_peretz.jpg"
3665,"E_C_F_ornaBanai.jpg","P_N_M_lapid.jpg","FALSE","pictures/stimuli/E","pictures/stimuli/P","F","M","6","5ba8d21cd08ab20001c82ecf","08/06/2022, 16:32:57",0.968922079098579,"31","M","right",1,1,0,0,TRUE,"E_C_F_ornaBanai.jpg P_N_M_lapid.jpg"
2038,"E_M_F_rita.jpg","P_P_F_michaeliM.jpg","FALSE","pictures/stimuli/E","pictures/stimuli/P","F","F","4","5ba8d21cd08ab20001c82ecf","08/06/2022, 16:32:57",-0.818409911471615,"31","M","right",0,1,0,0,TRUE,"E_M_F_rita.jpg P_P_F_michaeliM.jpg"
2886,"P_P_M_peretz.jpg","P_P_M_zamir.jpg","TRUE","pictures/stimuli/P","pictures/stimuli/P","M","M","5","5ba8d21cd08ab20001c82ecf","08/06/2022, 16:32:57",0.0752560838134821,"31","M","right",0,0,0,0,TRUE,"P_P_M_peretz.jpg P_P_M_zamir.jpg"
1453,"P_P_M_benet.jpg","P_P_F_michaeliM.jpg","TRUE","pictures/stimuli/P","pictures/stimuli/P","M","F","6","5ba8d21cd08ab20001c82ecf","08/06/2022, 16:32:57",0.968922079098579,"31","M","right",1,1,0,0,TRUE,"P_P_F_michaeliM.jpg P_P_M_benet.jpg"
1115,"E_C_M_katorza.jpg","E_H_F_yanai.jpg","TRUE","pictures/stimuli/E","pictures/stimuli/E","M","F","6","5ba8d21cd08ab20001c82ecf","08/06/2022, 16:32:57",0.968922079098579,"31","M","right",1,0,0,0,TRUE,"E_C_M_katorza.jpg E_H_F_yanai.jpg"
2680,"P_N_M_lapid.jpg","P_P_M_smootrich.jpg","TRUE","pictures/stimuli/P","pictures/stimuli/P","M","M","3","5ba8d21cd08ab20001c82ecf","08/06/2022, 16:32:57",-1.71207590675671,"31","M","right",1,1,0,0,TRUE,"P_N_M_lapid.jpg P_P_M_smootrich.jpg"
2212,"E_C_M_alfi.jpg","E_M_M_tavori.jpg","TRUE","pictures/stimuli/E","pictures/stimuli/E","M","M","4","5ba8d21cd08ab20001c82ecf","08/06/2022, 16:32:57",-0.818409911471615,"31","M","right",1,1,0,0,TRUE,"E_C_M_alfi.jpg E_M_M_tavori.jpg"
2100,"E_H_F_yanai.jpg","P_P_F_michaeliM.jpg","FALSE","pictures/stimuli/E","pictures/stimuli/P","F","F","5","5ba8d21cd08ab20001c82ecf","08/06/2022, 16:32:57",0.0752560838134821,"31","M","right",0,1,0,0,TRUE,"E_H_F_yanai.jpg P_P_F_michaeliM.jpg"
2225,"P_N_F_yehimovitz.jpg","P_P_M_zamir.jpg","TRUE","pictures/stimuli/P","pictures/stimuli/P","F","M","6","5ba8d21cd08ab20001c82ecf","08/06/2022, 16:32:57",0.968922079098579,"31","M","right",1,0,0,0,TRUE,"P_N_F_yehimovitz.jpg P_P_M_zamir.jpg"
3863,"E_C_M_alfi.jpg","P_P_F_shaked.jpg","FALSE","pictures/stimuli/E","pictures/stimuli/P","M","F","6","5ba8d21cd08ab20001c82ecf","08/06/2022, 16:32:57",0.968922079098579,"31","M","right",1,1,0,0,TRUE,"E_C_M_alfi.jpg P_P_F_shaked.jpg"
3615,"E_C_M_shaharHasson.jpg","E_C_F_ornaBanai.jpg","TRUE","pictures/stimuli/E","pictures/stimuli/E","M","F","3","5ba8d21cd08ab20001c82ecf","08/06/2022, 16:32:57",-1.71207590675671,"31","M","right",1,1,0,0,TRUE,"E_C_F_ornaBanai.jpg E_C_M_shaharHasson.jpg"
2100,"E_C_M_alfi.jpg","P_P_M_benet.jpg","FALSE","pictures/stimuli/E","pictures/stimuli/P","M","M","5","5ba8d21cd08ab20001c82ecf","08/06/2022, 16:32:57",0.0752560838134821,"31","M","right",1,1,0,0,TRUE,"E_C_M_alfi.jpg P_P_M_benet.jpg"
2119,"E_H_F_yanai.jpg","P_P_M_smootrich.jpg","FALSE","pictures/stimuli/E","pictures/stimuli/P","F","M","6","5ba8d21cd08ab20001c82ecf","08/06/2022, 16:32:57",0.968922079098579,"31","M","right",0,1,0,0,TRUE,"E_H_F_yanai.jpg P_P_M_smootrich.jpg"
1756,"E_C_F_ornaBanai.jpg","P_P_M_benet.jpg","FALSE","pictures/stimuli/E","pictures/stimuli/P","F","M","6","5ba8d21cd08ab20001c82ecf","08/06/2022, 16:32:57",0.968922079098579,"31","M","right",1,1,0,0,TRUE,"E_C_F_ornaBanai.jpg P_P_M_benet.jpg"
1700,"P_P_M_liberman.jpg","P_P_F_michaeliM.jpg","TRUE","pictures/stimuli/P","pictures/stimuli/P","M","F","6","5ba8d21cd08ab20001c82ecf","08/06/2022, 16:32:57",0.968922079098579,"31","M","right",1,1,0,0,TRUE,"P_P_F_michaeliM.jpg P_P_M_liberman.jpg"
3263,"E_C_M_mushonov.jpg","E_C_F_shaniCo.jpg","TRUE","pictures/stimuli/E","pictures/stimuli/E","M","F","4","5ba8d21cd08ab20001c82ecf","08/06/2022, 16:32:57",-0.818409911471615,"31","M","right",0,1,0,0,TRUE,"E_C_F_shaniCo.jpg E_C_M_mushonov.jpg"
4910,"E_C_F_ornaBanai.jpg","P_N_F_yehimovitz.jpg","FALSE","pictures/stimuli/E","pictures/stimuli/P","F","F","5","5ba8d21cd08ab20001c82ecf","08/06/2022, 16:32:57",0.0752560838134821,"31","M","right",1,1,0,0,TRUE,"E_C_F_ornaBanai.jpg P_N_F_yehimovitz.jpg"
1797,"P_P_M_peretz.jpg","P_P_F_shaked.jpg","TRUE","pictures/stimuli/P","pictures/stimuli/P","M","F","6","5ba8d21cd08ab20001c82ecf","08/06/2022, 16:32:57",0.968922079098579,"31","M","right",0,1,0,0,TRUE,"P_P_F_shaked.jpg P_P_M_peretz.jpg"
1877,"E_M_M_tavori.jpg","P_P_M_liberman.jpg","FALSE","pictures/stimuli/E","pictures/stimuli/P","M","M","5","5ba8d21cd08ab20001c82ecf","08/06/2022, 16:32:57",0.0752560838134821,"31","M","right",1,1,0,0,TRUE,"E_M_M_tavori.jpg P_P_M_liberman.jpg"
1129,"E_H_F_yanai.jpg","P_N_M_lapid.jpg","FALSE","pictures/stimuli/E","pictures/stimuli/P","F","M","6","5ba8d21cd08ab20001c82ecf","08/06/2022, 16:32:57",0.968922079098579,"31","M","right",0,1,0,0,TRUE,"E_H_F_yanai.jpg P_N_M_lapid.jpg"
1884,"P_N_M_lapid.jpg","P_P_M_zamir.jpg","TRUE","pictures/stimuli/P","pictures/stimuli/P","M","M","4","5ba8d21cd08ab20001c82ecf","08/06/2022, 16:32:57",-0.818409911471615,"31","M","right",1,0,0,0,TRUE,"P_N_M_lapid.jpg P_P_M_zamir.jpg"
1764,"E_C_M_katorza.jpg","E_M_M_Ivri.jpg","TRUE","pictures/stimuli/E","pictures/stimuli/E","M","M","5","5ba8d21cd08ab20001c82ecf","08/06/2022, 16:32:57",0.0752560838134821,"31","M","right",1,0,0,0,TRUE,"E_C_M_katorza.jpg E_M_M_Ivri.jpg"
2093,"E_M_M_Ivri.jpg","P_P_M_liberman.jpg","FALSE","pictures/stimuli/E","pictures/stimuli/P","M","M","5","5ba8d21cd08ab20001c82ecf","08/06/2022, 16:32:57",0.0752560838134821,"31","M","right",0,1,0,0,TRUE,"E_M_M_Ivri.jpg P_P_M_liberman.jpg"
1964,"E_C_F_ornaBanai.jpg","E_C_F_shaniCo.jpg","TRUE","pictures/stimuli/E","pictures/stimuli/E","F","F","3","5ba8d21cd08ab20001c82ecf","08/06/2022, 16:32:57",-1.71207590675671,"31","M","right",1,1,0,0,TRUE,"E_C_F_ornaBanai.jpg E_C_F_shaniCo.jpg"
1756,"E_C_M_katorza.jpg","E_M_F_rita.jpg","TRUE","pictures/stimuli/E","pictures/stimuli/E","M","F","6","5ba8d21cd08ab20001c82ecf","08/06/2022, 16:32:57",0.968922079098579,"31","M","right",1,0,0,0,TRUE,"E_C_M_katorza.jpg E_M_F_rita.jpg"
1861,"E_C_M_alfi.jpg","P_P_M_smootrich.jpg","FALSE","pictures/stimuli/E","pictures/stimuli/P","M","M","3","5ba8d21cd08ab20001c82ecf","08/06/2022, 16:32:57",-1.71207590675671,"31","M","right",1,1,0,0,TRUE,"E_C_M_alfi.jpg P_P_M_smootrich.jpg"
1782,"E_M_M_Ivri.jpg","P_P_M_benet.jpg","FALSE","pictures/stimuli/E","pictures/stimuli/P","M","M","4","5ba8d21cd08ab20001c82ecf","08/06/2022, 16:32:57",-0.818409911471615,"31","M","right",0,1,0,0,TRUE,"E_M_M_Ivri.jpg P_P_M_benet.jpg"
3893,"E_M_M_Ivri.jpg","P_P_M_zamir.jpg","FALSE","pictures/stimuli/E","pictures/stimuli/P","M","M","2","5ba8d21cd08ab20001c82ecf","08/06/2022, 16:32:57",-2.60574190204181,"31","M","right",0,0,0,0,TRUE,"E_M_M_Ivri.jpg P_P_M_zamir.jpg"
3028,"E_C_M_katorza.jpg","E_C_M_mushonov.jpg","TRUE","pictures/stimuli/E","pictures/stimuli/E","M","M","4","5ba8d21cd08ab20001c82ecf","08/06/2022, 16:32:57",-0.818409911471615,"31","M","right",1,0,0,0,TRUE,"E_C_M_katorza.jpg E_C_M_mushonov.jpg"
1852,"P_P_M_benet.jpg","P_P_M_zamir.jpg","TRUE","pictures/stimuli/P","pictures/stimuli/P","M","M","5","5ba8d21cd08ab20001c82ecf","08/06/2022, 16:32:57",0.0752560838134821,"31","M","right",1,0,0,0,TRUE,"P_P_M_benet.jpg P_P_M_zamir.jpg"
2362,"E_C_F_harLev.jpg","P_P_M_liberman.jpg","FALSE","pictures/stimuli/E","pictures/stimuli/P","F","M","6","5ba8d21cd08ab20001c82ecf","08/06/2022, 16:32:57",0.968922079098579,"31","M","right",1,1,0,0,TRUE,"E_C_F_harLev.jpg P_P_M_liberman.jpg"
2645,"E_C_M_mushonov.jpg","E_M_F_rita.jpg","TRUE","pictures/stimuli/E","pictures/stimuli/E","M","F","4","5ba8d21cd08ab20001c82ecf","08/06/2022, 16:32:57",-0.818409911471615,"31","M","right",0,0,0,0,TRUE,"E_C_M_mushonov.jpg E_M_F_rita.jpg"
1852,"E_C_M_shaharHasson.jpg","E_M_M_tavori.jpg","TRUE","pictures/stimuli/E","pictures/stimuli/E","M","M","3","5ba8d21cd08ab20001c82ecf","08/06/2022, 16:32:57",-1.71207590675671,"31","M","right",1,1,0,0,TRUE,"E_C_M_shaharHasson.jpg E_M_M_tavori.jpg"
3367,"E_C_M_alfi.jpg","P_P_F_michaeliM.jpg","FALSE","pictures/stimuli/E","pictures/stimuli/P","M","F","4","5ba8d21cd08ab20001c82ecf","08/06/2022, 16:32:57",-0.818409911471615,"31","M","right",1,1,0,0,TRUE,"E_C_M_alfi.jpg P_P_F_michaeliM.jpg"
3288,"E_M_F_rita.jpg","P_P_M_peretz.jpg","FALSE","pictures/stimuli/E","pictures/stimuli/P","F","M","6","5ba8d21cd08ab20001c82ecf","08/06/2022, 16:32:57",0.968922079098579,"31","M","right",0,0,0,0,TRUE,"E_M_F_rita.jpg P_P_M_peretz.jpg"
2414,"E_H_F_yanai.jpg","P_P_F_shaked.jpg","FALSE","pictures/stimuli/E","pictures/stimuli/P","F","F","4","5ba8d21cd08ab20001c82ecf","08/06/2022, 16:32:57",-0.818409911471615,"31","M","right",0,1,0,0,TRUE,"E_H_F_yanai.jpg P_P_F_shaked.jpg"
2006,"E_C_M_alfi.jpg","E_C_F_ornaBanai.jpg","TRUE","pictures/stimuli/E","pictures/stimuli/E","M","F","3","5ba8d21cd08ab20001c82ecf","08/06/2022, 16:32:57",-1.71207590675671,"31","M","right",1,1,0,0,TRUE,"E_C_F_ornaBanai.jpg E_C_M_alfi.jpg"
2806,"E_M_M_tavori.jpg","P_P_F_michaeliM.jpg","FALSE","pictures/stimuli/E","pictures/stimuli/P","M","F","4","5ba8d21cd08ab20001c82ecf","08/06/2022, 16:32:57",-0.818409911471615,"31","M","right",1,1,0,0,TRUE,"E_M_M_tavori.jpg P_P_F_michaeliM.jpg"
2004,"E_M_M_Ivri.jpg","P_P_M_smootrich.jpg","FALSE","pictures/stimuli/E","pictures/stimuli/P","M","M","3","5ba8d21cd08ab20001c82ecf","08/06/2022, 16:32:57",-1.71207590675671,"31","M","right",0,1,0,0,TRUE,"E_M_M_Ivri.jpg P_P_M_smootrich.jpg"
1811,"P_P_M_smootrich.jpg","P_P_M_zamir.jpg","TRUE","pictures/stimuli/P","pictures/stimuli/P","M","M","2","5ba8d21cd08ab20001c82ecf","08/06/2022, 16:32:57",-2.60574190204181,"31","M","right",1,0,0,0,TRUE,"P_P_M_smootrich.jpg P_P_M_zamir.jpg"
3104,"P_P_M_benet.jpg","P_P_F_shaked.jpg","TRUE","pictures/stimuli/P","pictures/stimuli/P","M","F","6","5ba8d21cd08ab20001c82ecf","08/06/2022, 16:32:57",0.968922079098579,"31","M","right",1,1,0,0,TRUE,"P_P_F_shaked.jpg P_P_M_benet.jpg"
2526,"E_C_M_alfi.jpg","P_N_F_yehimovitz.jpg","FALSE","pictures/stimuli/E","pictures/stimuli/P","M","F","6","5ba8d21cd08ab20001c82ecf","08/06/2022, 16:32:57",0.968922079098579,"31","M","right",1,1,0,0,TRUE,"E_C_M_alfi.jpg P_N_F_yehimovitz.jpg"
2694,"P_P_M_benet.jpg","P_P_M_peretz.jpg","TRUE","pictures/stimuli/P","pictures/stimuli/P","M","M","4","5ba8d21cd08ab20001c82ecf","08/06/2022, 16:32:57",-0.818409911471615,"31","M","right",1,0,0,0,TRUE,"P_P_M_benet.jpg P_P_M_peretz.jpg"
1988,"E_H_F_yanai.jpg","P_P_M_benet.jpg","FALSE","pictures/stimuli/E","pictures/stimuli/P","F","M","5","5ba8d21cd08ab20001c82ecf","08/06/2022, 16:32:57",0.0752560838134821,"31","M","right",0,1,0,0,TRUE,"E_H_F_yanai.jpg P_P_M_benet.jpg"
2822,"E_M_M_tavori.jpg","P_N_M_lapid.jpg","FALSE","pictures/stimuli/E","pictures/stimuli/P","M","M","5","5ba8d21cd08ab20001c82ecf","08/06/2022, 16:32:57",0.0752560838134821,"31","M","right",1,1,0,0,TRUE,"E_M_M_tavori.jpg P_N_M_lapid.jpg"
2960,"P_P_F_shaked.jpg","P_P_M_zamir.jpg","TRUE","pictures/stimuli/P","pictures/stimuli/P","F","M","6","5ba8d21cd08ab20001c82ecf","08/06/2022, 16:32:57",0.968922079098579,"31","M","right",1,0,0,0,TRUE,"P_P_F_shaked.jpg P_P_M_zamir.jpg"
1603,"E_C_M_katorza.jpg","P_P_M_smootrich.jpg","FALSE","pictures/stimuli/E","pictures/stimuli/P","M","M","5","5ba8d21cd08ab20001c82ecf","08/06/2022, 16:32:57",0.0752560838134821,"31","M","right",1,1,0,0,TRUE,"E_C_M_katorza.jpg P_P_M_smootrich.jpg"
1428,"E_M_M_Ivri.jpg","E_M_F_rita.jpg","TRUE","pictures/stimuli/E","pictures/stimuli/E","M","F","5","5ba8d21cd08ab20001c82ecf","08/06/2022, 16:32:57",0.0752560838134821,"31","M","right",0,0,0,0,TRUE,"E_M_F_rita.jpg E_M_M_Ivri.jpg"
2125,"E_C_M_mushonov.jpg","P_P_M_peretz.jpg","FALSE","pictures/stimuli/E","pictures/stimuli/P","M","M","5","5ba8d21cd08ab20001c82ecf","08/06/2022, 16:32:57",0.0752560838134821,"31","M","right",0,0,0,0,TRUE,"E_C_M_mushonov.jpg P_P_M_peretz.jpg"
1965,"E_M_M_tavori.jpg","P_N_F_yehimovitz.jpg","FALSE","pictures/stimuli/E","pictures/stimuli/P","M","F","6","5ba8d21cd08ab20001c82ecf","08/06/2022, 16:32:57",0.968922079098579,"31","M","right",1,1,0,0,TRUE,"E_M_M_tavori.jpg P_N_F_yehimovitz.jpg"
1813,"E_C_M_shaharHasson.jpg","E_C_M_mushonov.jpg","TRUE","pictures/stimuli/E","pictures/stimuli/E","M","M","4","5ba8d21cd08ab20001c82ecf","08/06/2022, 16:32:57",-0.818409911471615,"31","M","right",1,0,0,0,TRUE,"E_C_M_mushonov.jpg E_C_M_shaharHasson.jpg"
1634,"P_P_F_michaeliM.jpg","P_P_M_peretz.jpg","TRUE","pictures/stimuli/P","pictures/stimuli/P","F","M","6","5ba8d21cd08ab20001c82ecf","08/06/2022, 16:32:57",0.968922079098579,"31","M","right",1,0,0,0,TRUE,"P_P_F_michaeliM.jpg P_P_M_peretz.jpg"
1725,"E_M_F_rita.jpg","E_H_F_yanai.jpg","TRUE","pictures/stimuli/E","pictures/stimuli/E","F","F","5","5ba8d21cd08ab20001c82ecf","08/06/2022, 16:32:57",0.0752560838134821,"31","M","right",0,0,0,0,TRUE,"E_H_F_yanai.jpg E_M_F_rita.jpg"
2526,"E_M_M_Ivri.jpg","P_P_F_shaked.jpg","FALSE","pictures/stimuli/E","pictures/stimuli/P","M","F","6","5ba8d21cd08ab20001c82ecf","08/06/2022, 16:32:57",0.968922079098579,"31","M","right",0,1,0,0,TRUE,"E_M_M_Ivri.jpg P_P_F_shaked.jpg"
1645,"E_C_M_katorza.jpg","E_C_F_ornaBanai.jpg","TRUE","pictures/stimuli/E","pictures/stimuli/E","M","F","6","5ba8d21cd08ab20001c82ecf","08/06/2022, 16:32:57",0.968922079098579,"31","M","right",1,1,0,0,TRUE,"E_C_F_ornaBanai.jpg E_C_M_katorza.jpg"
1876,"E_C_M_shaharHasson.jpg","P_P_M_liberman.jpg","FALSE","pictures/stimuli/E","pictures/stimuli/P","M","M","5","5ba8d21cd08ab20001c82ecf","08/06/2022, 16:32:57",0.0752560838134821,"31","M","right",1,1,0,0,TRUE,"E_C_M_shaharHasson.jpg P_P_M_liberman.jpg"
1933,"E_C_F_harLev.jpg","E_M_F_rita.jpg","TRUE","pictures/stimuli/E","pictures/stimuli/E","F","F","4","5ba8d21cd08ab20001c82ecf","08/06/2022, 16:32:57",-0.818409911471615,"31","M","right",1,0,0,0,TRUE,"E_C_F_harLev.jpg E_M_F_rita.jpg"
1787,"E_C_M_shaharHasson.jpg","P_N_F_yehimovitz.jpg","FALSE","pictures/stimuli/E","pictures/stimuli/P","M","F","6","5ba8d21cd08ab20001c82ecf","08/06/2022, 16:32:57",0.968922079098579,"31","M","right",1,1,0,0,TRUE,"E_C_M_shaharHasson.jpg P_N_F_yehimovitz.jpg"
1597,"E_M_M_tavori.jpg","P_P_M_zamir.jpg","FALSE","pictures/stimuli/E","pictures/stimuli/P","M","M","5","5ba8d21cd08ab20001c82ecf","08/06/2022, 16:32:57",0.0752560838134821,"31","M","right",1,0,0,0,TRUE,"E_M_M_tavori.jpg P_P_M_zamir.jpg"
1733,"E_C_M_katorza.jpg","E_C_F_harLev.jpg","TRUE","pictures/stimuli/E","pictures/stimuli/E","M","F","6","5ba8d21cd08ab20001c82ecf","08/06/2022, 16:32:57",0.968922079098579,"31","M","right",1,1,0,0,TRUE,"E_C_F_harLev.jpg E_C_M_katorza.jpg"
2702,"E_C_M_alfi.jpg","E_C_F_shaniCo.jpg","TRUE","pictures/stimuli/E","pictures/stimuli/E","M","F","5","5ba8d21cd08ab20001c82ecf","08/06/2022, 16:32:57",0.0752560838134821,"31","M","right",1,1,0,0,TRUE,"E_C_F_shaniCo.jpg E_C_M_alfi.jpg"
1741,"E_M_F_rita.jpg","P_P_M_zamir.jpg","FALSE","pictures/stimuli/E","pictures/stimuli/P","F","M","6","5ba8d21cd08ab20001c82ecf","08/06/2022, 16:32:57",0.968922079098579,"31","M","right",0,0,0,0,TRUE,"E_M_F_rita.jpg P_P_M_zamir.jpg"
2359,"E_H_F_yanai.jpg","P_N_F_yehimovitz.jpg","FALSE","pictures/stimuli/E","pictures/stimuli/P","F","F","3","5ba8d21cd08ab20001c82ecf","08/06/2022, 16:32:57",-1.71207590675671,"31","M","right",0,1,0,0,TRUE,"E_H_F_yanai.jpg P_N_F_yehimovitz.jpg"
1658,"E_C_M_alfi.jpg","E_C_F_harLev.jpg","TRUE","pictures/stimuli/E","pictures/stimuli/E","M","F","5","5ba8d21cd08ab20001c82ecf","08/06/2022, 16:32:57",0.0752560838134821,"31","M","right",1,1,0,0,TRUE,"E_C_F_harLev.jpg E_C_M_alfi.jpg"
1196,"E_C_M_mushonov.jpg","P_N_F_yehimovitz.jpg","FALSE","pictures/stimuli/E","pictures/stimuli/P","M","F","6","5ba8d21cd08ab20001c82ecf","08/06/2022, 16:32:57",0.968922079098579,"31","M","right",0,1,0,0,TRUE,"E_C_M_mushonov.jpg P_N_F_yehimovitz.jpg"
2558,"E_C_F_ornaBanai.jpg","E_M_M_tavori.jpg","TRUE","pictures/stimuli/E","pictures/stimuli/E","F","M","4","5ba8d21cd08ab20001c82ecf","08/06/2022, 16:32:57",-0.818409911471615,"31","M","right",1,1,0,0,TRUE,"E_C_F_ornaBanai.jpg E_M_M_tavori.jpg"
2257,"E_C_M_shaharHasson.jpg","P_P_M_peretz.jpg","FALSE","pictures/stimuli/E","pictures/stimuli/P","M","M","5","5ba8d21cd08ab20001c82ecf","08/06/2022, 16:32:57",0.0752560838134821,"31","M","right",1,0,0,0,TRUE,"E_C_M_shaharHasson.jpg P_P_M_peretz.jpg"
1364,"E_H_F_yanai.jpg","P_P_M_liberman.jpg","FALSE","pictures/stimuli/E","pictures/stimuli/P","F","M","6","5ba8d21cd08ab20001c82ecf","08/06/2022, 16:32:57",0.968922079098579,"31","M","right",0,1,0,0,TRUE,"E_H_F_yanai.jpg P_P_M_liberman.jpg"
2044,"E_C_M_shaharHasson.jpg","E_M_M_Ivri.jpg","TRUE","pictures/stimuli/E","pictures/stimuli/E","M","M","4","5ba8d21cd08ab20001c82ecf","08/06/2022, 16:32:57",-0.818409911471615,"31","M","right",1,0,0,0,TRUE,"E_C_M_shaharHasson.jpg E_M_M_Ivri.jpg"
1941,"E_C_M_katorza.jpg","P_P_F_michaeliM.jpg","FALSE","pictures/stimuli/E","pictures/stimuli/P","M","F","6","5ba8d21cd08ab20001c82ecf","08/06/2022, 16:32:57",0.968922079098579,"31","M","right",1,1,0,0,TRUE,"E_C_M_katorza.jpg P_P_F_michaeliM.jpg"
2174,"E_C_M_shaharHasson.jpg","P_P_M_zamir.jpg","FALSE","pictures/stimuli/E","pictures/stimuli/P","M","M","4","5ba8d21cd08ab20001c82ecf","08/06/2022, 16:32:57",-0.818409911471615,"31","M","right",1,0,0,0,TRUE,"E_C_M_shaharHasson.jpg P_P_M_zamir.jpg"
1552,"E_C_F_ornaBanai.jpg","P_P_M_liberman.jpg","FALSE","pictures/stimuli/E","pictures/stimuli/P","F","M","6","5ba8d21cd08ab20001c82ecf","08/06/2022, 16:32:57",0.968922079098579,"31","M","right",1,1,0,0,TRUE,"E_C_F_ornaBanai.jpg P_P_M_liberman.jpg"
2038,"P_N_M_lapid.jpg","P_P_M_liberman.jpg","TRUE","pictures/stimuli/P","pictures/stimuli/P","M","M","6","5ba8d21cd08ab20001c82ecf","08/06/2022, 16:32:57",0.968922079098579,"31","M","right",1,1,0,0,TRUE,"P_N_M_lapid.jpg P_P_M_liberman.jpg"
2352,"P_P_M_peretz.jpg","P_P_M_smootrich.jpg","TRUE","pictures/stimuli/P","pictures/stimuli/P","M","M","3","5ba8d21cd08ab20001c82ecf","08/06/2022, 16:32:57",-1.71207590675671,"31","M","right",0,1,0,0,TRUE,"P_P_M_peretz.jpg P_P_M_smootrich.jpg"
9736,"E_C_M_katorza.jpg","P_N_F_yehimovitz.jpg","FALSE","pictures/stimuli/E","pictures/stimuli/P","M","F","6","5ba8d21cd08ab20001c82ecf","08/06/2022, 16:32:57",0.968922079098579,"31","M","right",1,1,0,0,TRUE,"E_C_M_katorza.jpg P_N_F_yehimovitz.jpg"
1667,"P_P_M_liberman.jpg","P_P_M_peretz.jpg","TRUE","pictures/stimuli/P","pictures/stimuli/P","M","M","4","5ba8d21cd08ab20001c82ecf","08/06/2022, 16:32:57",-0.818409911471615,"31","M","right",1,0,0,0,TRUE,"P_P_M_liberman.jpg P_P_M_peretz.jpg"
2527,"P_N_M_lapid.jpg","P_P_F_michaeliM.jpg","TRUE","pictures/stimuli/P","pictures/stimuli/P","M","F","6","5ba8d21cd08ab20001c82ecf","08/06/2022, 16:32:57",0.968922079098579,"31","M","right",1,1,0,0,TRUE,"P_N_M_lapid.jpg P_P_F_michaeliM.jpg"
2509,"E_C_M_alfi.jpg","E_C_M_shaharHasson.jpg","TRUE","pictures/stimuli/E","pictures/stimuli/E","M","M","3","5ba8d21cd08ab20001c82ecf","08/06/2022, 16:32:57",-1.71207590675671,"31","M","right",1,1,0,0,TRUE,"E_C_M_alfi.jpg E_C_M_shaharHasson.jpg"
1724,"E_C_M_katorza.jpg","P_P_M_peretz.jpg","FALSE","pictures/stimuli/E","pictures/stimuli/P","M","M","4","5ba8d21cd08ab20001c82ecf","08/06/2022, 16:32:57",-0.818409911471615,"31","M","right",1,0,0,0,TRUE,"E_C_M_katorza.jpg P_P_M_peretz.jpg"
3983,"E_C_M_katorza.jpg","E_C_M_shaharHasson.jpg","TRUE","pictures/stimuli/E","pictures/stimuli/E","M","M","5","5ba8d21cd08ab20001c82ecf","08/06/2022, 16:32:57",0.0752560838134821,"31","M","right",1,1,0,0,TRUE,"E_C_M_katorza.jpg E_C_M_shaharHasson.jpg"
2039,"E_M_M_Ivri.jpg","E_H_F_yanai.jpg","TRUE","pictures/stimuli/E","pictures/stimuli/E","M","F","6","5ba8d21cd08ab20001c82ecf","08/06/2022, 16:32:57",0.968922079098579,"31","M","right",0,0,0,0,TRUE,"E_H_F_yanai.jpg E_M_M_Ivri.jpg"
2189,"E_C_M_mushonov.jpg","P_P_M_zamir.jpg","FALSE","pictures/stimuli/E","pictures/stimuli/P","M","M","5","5ba8d21cd08ab20001c82ecf","08/06/2022, 16:32:57",0.0752560838134821,"31","M","right",0,0,0,0,TRUE,"E_C_M_mushonov.jpg P_P_M_zamir.jpg"
1876,"E_C_M_alfi.jpg","E_C_M_mushonov.jpg","TRUE","pictures/stimuli/E","pictures/stimuli/E","M","M","4","5ba8d21cd08ab20001c82ecf","08/06/2022, 16:32:57",-0.818409911471615,"31","M","right",1,0,0,0,TRUE,"E_C_M_alfi.jpg E_C_M_mushonov.jpg"
3606,"P_P_F_michaeliM.jpg","P_P_M_zamir.jpg","TRUE","pictures/stimuli/P","pictures/stimuli/P","F","M","5","5ba8d21cd08ab20001c82ecf","08/06/2022, 16:32:57",0.0752560838134821,"31","M","right",1,0,0,0,TRUE,"P_P_F_michaeliM.jpg P_P_M_zamir.jpg"
2479,"E_C_F_harLev.jpg","P_P_M_benet.jpg","FALSE","pictures/stimuli/E","pictures/stimuli/P","F","M","6","5ba8d21cd08ab20001c82ecf","08/06/2022, 16:32:57",0.968922079098579,"31","M","right",1,1,0,0,TRUE,"E_C_F_harLev.jpg P_P_M_benet.jpg"
2061,"P_P_M_benet.jpg","P_N_M_lapid.jpg","TRUE","pictures/stimuli/P","pictures/stimuli/P","M","M","5","5ba8d21cd08ab20001c82ecf","08/06/2022, 16:32:57",0.0752560838134821,"31","M","right",1,1,0,0,TRUE,"P_N_M_lapid.jpg P_P_M_benet.jpg"
1835,"E_C_F_shaniCo.jpg","P_P_M_zamir.jpg","FALSE","pictures/stimuli/E","pictures/stimuli/P","F","M","6","5ba8d21cd08ab20001c82ecf","08/06/2022, 16:32:57",0.968922079098579,"31","M","right",1,0,0,0,TRUE,"E_C_F_shaniCo.jpg P_P_M_zamir.jpg"
2280,"E_C_M_shaharHasson.jpg","E_M_F_rita.jpg","TRUE","pictures/stimuli/E","pictures/stimuli/E","M","F","4","5ba8d21cd08ab20001c82ecf","08/06/2022, 16:32:57",-0.818409911471615,"31","M","right",1,0,0,0,TRUE,"E_C_M_shaharHasson.jpg E_M_F_rita.jpg"
1530,"E_C_F_shaniCo.jpg","P_P_M_liberman.jpg","FALSE","pictures/stimuli/E","pictures/stimuli/P","F","M","6","5ba8d21cd08ab20001c82ecf","08/06/2022, 16:32:57",0.968922079098579,"31","M","right",1,1,0,0,TRUE,"E_C_F_shaniCo.jpg P_P_M_liberman.jpg"
2703,"E_M_F_rita.jpg","P_P_M_benet.jpg","FALSE","pictures/stimuli/E","pictures/stimuli/P","F","M","6","5ba8d21cd08ab20001c82ecf","08/06/2022, 16:32:57",0.968922079098579,"31","M","right",0,1,0,0,TRUE,"E_M_F_rita.jpg P_P_M_benet.jpg"
1315,"E_C_F_ornaBanai.jpg","P_P_M_zamir.jpg","FALSE","pictures/stimuli/E","pictures/stimuli/P","F","M","6","5ba8d21cd08ab20001c82ecf","08/06/2022, 16:32:57",0.968922079098579,"31","M","right",1,0,0,0,TRUE,"E_C_F_ornaBanai.jpg P_P_M_zamir.jpg"
1804,"E_M_M_Ivri.jpg","P_P_M_peretz.jpg","FALSE","pictures/stimuli/E","pictures/stimuli/P","M","M","5","5ba8d21cd08ab20001c82ecf","08/06/2022, 16:32:57",0.0752560838134821,"31","M","right",0,0,0,0,TRUE,"E_M_M_Ivri.jpg P_P_M_peretz.jpg"
1701,"E_M_M_Ivri.jpg","P_P_F_michaeliM.jpg","FALSE","pictures/stimuli/E","pictures/stimuli/P","M","F","4","5ba8d21cd08ab20001c82ecf","08/06/2022, 16:32:57",-0.818409911471615,"31","M","right",0,1,0,0,TRUE,"E_M_M_Ivri.jpg P_P_F_michaeliM.jpg"
1845,"E_C_F_shaniCo.jpg","P_P_F_shaked.jpg","FALSE","pictures/stimuli/E","pictures/stimuli/P","F","F","3","5ba8d21cd08ab20001c82ecf","08/06/2022, 16:32:57",-1.71207590675671,"31","M","right",1,1,0,0,TRUE,"E_C_F_shaniCo.jpg P_P_F_shaked.jpg"
1796,"E_H_F_yanai.jpg","P_P_M_peretz.jpg","FALSE","pictures/stimuli/E","pictures/stimuli/P","F","M","5","5ba8d21cd08ab20001c82ecf","08/06/2022, 16:32:57",0.0752560838134821,"31","M","right",0,0,0,0,TRUE,"E_H_F_yanai.jpg P_P_M_peretz.jpg"
1847,"P_P_M_benet.jpg","P_P_M_liberman.jpg","TRUE","pictures/stimuli/P","pictures/stimuli/P","M","M","4","5ba8d21cd08ab20001c82ecf","08/06/2022, 16:32:57",-0.818409911471615,"31","M","right",1,1,0,0,TRUE,"P_P_M_benet.jpg P_P_M_liberman.jpg"
1619,"E_C_M_shaharHasson.jpg","P_N_M_lapid.jpg","FALSE","pictures/stimuli/E","pictures/stimuli/P","M","M","5","5ba8d21cd08ab20001c82ecf","08/06/2022, 16:32:57",0.0752560838134821,"31","M","right",1,1,0,0,TRUE,"E_C_M_shaharHasson.jpg P_N_M_lapid.jpg"
1205,"E_C_M_katorza.jpg","E_C_F_shaniCo.jpg","TRUE","pictures/stimuli/E","pictures/stimuli/E","M","F","6","5ba8d21cd08ab20001c82ecf","08/06/2022, 16:32:57",0.968922079098579,"31","M","right",1,1,0,0,TRUE,"E_C_F_shaniCo.jpg E_C_M_katorza.jpg"
4370,"P_P_F_shaked.jpg","P_P_M_smootrich.jpg","TRUE","pictures/stimuli/P","pictures/stimuli/P","F","M","6","5ba8d21cd08ab20001c82ecf","08/06/2022, 16:32:57",0.968922079098579,"31","M","right",1,1,0,0,TRUE,"P_P_F_shaked.jpg P_P_M_smootrich.jpg"
1146,"P_P_M_liberman.jpg","P_P_M_zamir.jpg","TRUE","pictures/stimuli/P","pictures/stimuli/P","M","M","6","5ba8d21cd08ab20001c82ecf","08/06/2022, 16:32:57",0.968922079098579,"31","M","right",1,0,0,0,TRUE,"P_P_M_liberman.jpg P_P_M_zamir.jpg"
4257,"E_C_F_harLev.jpg","E_M_M_tavori.jpg","TRUE","pictures/stimuli/E","pictures/stimuli/E","F","M","6","5ba8d21cd08ab20001c82ecf","08/06/2022, 16:32:57",0.968922079098579,"31","M","right",1,1,0,0,TRUE,"E_C_F_harLev.jpg E_M_M_tavori.jpg"
2117,"E_C_F_harLev.jpg","E_C_F_shaniCo.jpg","TRUE","pictures/stimuli/E","pictures/stimuli/E","F","F","2","5ba8d21cd08ab20001c82ecf","08/06/2022, 16:32:57",-2.60574190204181,"31","M","right",1,1,0,0,TRUE,"E_C_F_harLev.jpg E_C_F_shaniCo.jpg"
1730,"E_C_F_harLev.jpg","P_P_M_peretz.jpg","FALSE","pictures/stimuli/E","pictures/stimuli/P","F","M","6","5ba8d21cd08ab20001c82ecf","08/06/2022, 16:32:57",0.968922079098579,"31","M","right",1,0,0,0,TRUE,"E_C_F_harLev.jpg P_P_M_peretz.jpg"
1067,"E_C_F_shaniCo.jpg","P_P_M_peretz.jpg","FALSE","pictures/stimuli/E","pictures/stimuli/P","F","M","6","5ba8d21cd08ab20001c82ecf","08/06/2022, 16:32:57",0.968922079098579,"31","M","right",1,0,0,0,TRUE,"E_C_F_shaniCo.jpg P_P_M_peretz.jpg"
1188,"P_P_M_liberman.jpg","P_N_F_yehimovitz.jpg","TRUE","pictures/stimuli/P","pictures/stimuli/P","M","F","6","5ba8d21cd08ab20001c82ecf","08/06/2022, 16:32:57",0.968922079098579,"31","M","right",1,1,0,0,TRUE,"P_N_F_yehimovitz.jpg P_P_M_liberman.jpg"
1499,"E_C_M_katorza.jpg","P_P_M_benet.jpg","FALSE","pictures/stimuli/E","pictures/stimuli/P","M","M","4","5ba8d21cd08ab20001c82ecf","08/06/2022, 16:32:57",-0.818409911471615,"31","M","right",1,1,0,0,TRUE,"E_C_M_katorza.jpg P_P_M_benet.jpg"
1725,"E_C_M_shaharHasson.jpg","P_P_F_michaeliM.jpg","FALSE","pictures/stimuli/E","pictures/stimuli/P","M","F","3","5ba8d21cd08ab20001c82ecf","08/06/2022, 16:32:57",-1.71207590675671,"31","M","right",1,1,0,0,TRUE,"E_C_M_shaharHasson.jpg P_P_F_michaeliM.jpg"
1811,"E_M_M_tavori.jpg","P_P_M_peretz.jpg","FALSE","pictures/stimuli/E","pictures/stimuli/P","M","M","5","5ba8d21cd08ab20001c82ecf","08/06/2022, 16:32:57",0.0752560838134821,"31","M","right",1,0,0,0,TRUE,"E_M_M_tavori.jpg P_P_M_peretz.jpg"
1461,"P_P_F_michaeliM.jpg","P_P_M_smootrich.jpg","TRUE","pictures/stimuli/P","pictures/stimuli/P","F","M","5","5ba8d21cd08ab20001c82ecf","08/06/2022, 16:32:57",0.0752560838134821,"31","M","right",1,1,0,0,TRUE,"P_P_F_michaeliM.jpg P_P_M_smootrich.jpg"
2902,"E_C_F_harLev.jpg","P_P_M_smootrich.jpg","FALSE","pictures/stimuli/E","pictures/stimuli/P","F","M","5","5ba8d21cd08ab20001c82ecf","08/06/2022, 16:32:57",0.0752560838134821,"31","M","right",1,1,0,0,TRUE,"E_C_F_harLev.jpg P_P_M_smootrich.jpg"
2328,"E_C_M_katorza.jpg","P_N_M_lapid.jpg","FALSE","pictures/stimuli/E","pictures/stimuli/P","M","M","5","5ba8d21cd08ab20001c82ecf","08/06/2022, 16:32:57",0.0752560838134821,"31","M","right",1,1,0,0,TRUE,"E_C_M_katorza.jpg P_N_M_lapid.jpg"
1009,"E_C_F_harLev.jpg","P_P_M_zamir.jpg","FALSE","pictures/stimuli/E","pictures/stimuli/P","F","M","6","5ba8d21cd08ab20001c82ecf","08/06/2022, 16:32:57",0.968922079098579,"31","M","right",1,0,0,0,TRUE,"E_C_F_harLev.jpg P_P_M_zamir.jpg"
1139,"E_C_F_harLev.jpg","E_M_M_Ivri.jpg","TRUE","pictures/stimuli/E","pictures/stimuli/E","F","M","6","5ba8d21cd08ab20001c82ecf","08/06/2022, 16:32:57",0.968922079098579,"31","M","right",1,0,0,0,TRUE,"E_C_F_harLev.jpg E_M_M_Ivri.jpg"
1748,"E_M_F_rita.jpg","P_P_M_smootrich.jpg","FALSE","pictures/stimuli/E","pictures/stimuli/P","F","M","6","5ba8d21cd08ab20001c82ecf","08/06/2022, 16:32:57",0.968922079098579,"31","M","right",0,1,0,0,TRUE,"E_M_F_rita.jpg P_P_M_smootrich.jpg"
1482,"E_C_F_shaniCo.jpg","E_M_M_tavori.jpg","TRUE","pictures/stimuli/E","pictures/stimuli/E","F","M","6","5ba8d21cd08ab20001c82ecf","08/06/2022, 16:32:57",0.968922079098579,"31","M","right",1,1,0,0,TRUE,"E_C_F_shaniCo.jpg E_M_M_tavori.jpg"
2254,"E_C_F_harLev.jpg","E_C_F_ornaBanai.jpg","TRUE","pictures/stimuli/E","pictures/stimuli/E","F","F","4","5ba8d21cd08ab20001c82ecf","08/06/2022, 16:32:57",-0.818409911471615,"31","M","right",1,1,0,0,TRUE,"E_C_F_harLev.jpg E_C_F_ornaBanai.jpg"
3157,"E_C_M_alfi.jpg","P_P_M_liberman.jpg","FALSE","pictures/stimuli/E","pictures/stimuli/P","M","M","5","5ba8d21cd08ab20001c82ecf","08/06/2022, 16:32:57",0.0752560838134821,"31","M","right",1,1,0,0,TRUE,"E_C_M_alfi.jpg P_P_M_liberman.jpg"
1629,"E_M_M_Ivri.jpg","P_N_F_yehimovitz.jpg","FALSE","pictures/stimuli/E","pictures/stimuli/P","M","F","6","5ba8d21cd08ab20001c82ecf","08/06/2022, 16:32:57",0.968922079098579,"31","M","right",0,1,0,0,TRUE,"E_M_M_Ivri.jpg P_N_F_yehimovitz.jpg"
1041,"E_M_F_rita.jpg","P_N_M_lapid.jpg","FALSE","pictures/stimuli/E","pictures/stimuli/P","F","M","6","5ba8d21cd08ab20001c82ecf","08/06/2022, 16:32:57",0.968922079098579,"31","M","right",0,1,0,0,TRUE,"E_M_F_rita.jpg P_N_M_lapid.jpg"
1900,"E_C_F_shaniCo.jpg","P_P_F_michaeliM.jpg","FALSE","pictures/stimuli/E","pictures/stimuli/P","F","F","3","5ba8d21cd08ab20001c82ecf","08/06/2022, 16:32:57",-1.71207590675671,"31","M","right",1,1,0,0,TRUE,"E_C_F_shaniCo.jpg P_P_F_michaeliM.jpg"
2190,"E_C_M_katorza.jpg","P_P_M_liberman.jpg","FALSE","pictures/stimuli/E","pictures/stimuli/P","M","M","3","5ba8d21cd08ab20001c82ecf","08/06/2022, 16:32:57",-1.71207590675671,"31","M","right",1,1,0,0,TRUE,"E_C_M_katorza.jpg P_P_M_liberman.jpg"
2062,"P_P_F_shaked.jpg","P_N_F_yehimovitz.jpg","TRUE","pictures/stimuli/P","pictures/stimuli/P","F","F","4","5ba8d21cd08ab20001c82ecf","08/06/2022, 16:32:57",-0.818409911471615,"31","M","right",1,1,0,0,TRUE,"P_N_F_yehimovitz.jpg P_P_F_shaked.jpg"
1298,"E_C_M_katorza.jpg","P_P_F_shaked.jpg","FALSE","pictures/stimuli/E","pictures/stimuli/P","M","F","6","5ba8d21cd08ab20001c82ecf","08/06/2022, 16:32:57",0.968922079098579,"31","M","right",1,1,0,0,TRUE,"E_C_M_katorza.jpg P_P_F_shaked.jpg"
1988,"E_C_F_harLev.jpg","E_C_M_mushonov.jpg","TRUE","pictures/stimuli/E","pictures/stimuli/E","F","M","5","5ba8d21cd08ab20001c82ecf","08/06/2022, 16:32:57",0.0752560838134821,"31","M","right",1,0,0,0,TRUE,"E_C_F_harLev.jpg E_C_M_mushonov.jpg"
1381,"E_M_M_tavori.jpg","P_P_F_shaked.jpg","FALSE","pictures/stimuli/E","pictures/stimuli/P","M","F","6","5ba8d21cd08ab20001c82ecf","08/06/2022, 16:32:57",0.968922079098579,"31","M","right",1,1,0,0,TRUE,"E_M_M_tavori.jpg P_P_F_shaked.jpg"
1179,"E_C_F_ornaBanai.jpg","P_P_M_peretz.jpg","FALSE","pictures/stimuli/E","pictures/stimuli/P","F","M","6","5ba8d21cd08ab20001c82ecf","08/06/2022, 16:32:57",0.968922079098579,"31","M","right",1,0,0,0,TRUE,"E_C_F_ornaBanai.jpg P_P_M_peretz.jpg"
2372,"E_C_F_harLev.jpg","P_N_F_yehimovitz.jpg","FALSE","pictures/stimuli/E","pictures/stimuli/P","F","F","4","5ba8d21cd08ab20001c82ecf","08/06/2022, 16:32:57",-0.818409911471615,"31","M","right",1,1,0,0,TRUE,"E_C_F_harLev.jpg P_N_F_yehimovitz.jpg"
2255,"P_P_F_michaeliM.jpg","P_P_F_shaked.jpg","TRUE","pictures/stimuli/P","pictures/stimuli/P","F","F","3","5ba8d21cd08ab20001c82ecf","08/06/2022, 16:32:57",-1.71207590675671,"31","M","right",1,1,0,0,TRUE,"P_P_F_michaeliM.jpg P_P_F_shaked.jpg"
1588,"P_N_M_lapid.jpg","P_P_M_peretz.jpg","TRUE","pictures/stimuli/P","pictures/stimuli/P","M","M","3","5ba8d21cd08ab20001c82ecf","08/06/2022, 16:32:57",-1.71207590675671,"31","M","right",1,0,0,0,TRUE,"P_N_M_lapid.jpg P_P_M_peretz.jpg"
1170,"P_N_M_lapid.jpg","P_N_F_yehimovitz.jpg","TRUE","pictures/stimuli/P","pictures/stimuli/P","M","F","6","5ba8d21cd08ab20001c82ecf","08/06/2022, 16:32:57",0.968922079098579,"31","M","right",1,1,0,0,TRUE,"P_N_F_yehimovitz.jpg P_N_M_lapid.jpg"
1099,"E_C_M_mushonov.jpg","E_C_F_ornaBanai.jpg","TRUE","pictures/stimuli/E","pictures/stimuli/E","M","F","6","5ba8d21cd08ab20001c82ecf","08/06/2022, 16:32:57",0.968922079098579,"31","M","right",0,1,0,0,TRUE,"E_C_F_ornaBanai.jpg E_C_M_mushonov.jpg"
2029,"E_C_M_alfi.jpg","E_M_F_rita.jpg","TRUE","pictures/stimuli/E","pictures/stimuli/E","M","F","5","5ba8d21cd08ab20001c82ecf","08/06/2022, 16:32:57",0.0752560838134821,"31","M","right",1,0,0,0,TRUE,"E_C_M_alfi.jpg E_M_F_rita.jpg"
3569,"E_C_F_harLev.jpg","P_P_F_michaeliM.jpg","FALSE","pictures/stimuli/E","pictures/stimuli/P","F","F","3","5ba8d21cd08ab20001c82ecf","08/06/2022, 16:32:57",-1.71207590675671,"31","M","right",1,1,0,0,TRUE,"E_C_F_harLev.jpg P_P_F_michaeliM.jpg"
1577,"E_C_F_harLev.jpg","E_C_M_shaharHasson.jpg","TRUE","pictures/stimuli/E","pictures/stimuli/E","F","M","4","5ba8d21cd08ab20001c82ecf","08/06/2022, 16:32:57",-0.818409911471615,"31","M","right",1,1,0,0,TRUE,"E_C_F_harLev.jpg E_C_M_shaharHasson.jpg"
1900,"E_C_M_shaharHasson.jpg","E_C_F_shaniCo.jpg","TRUE","pictures/stimuli/E","pictures/stimuli/E","M","F","4","5ba8d21cd08ab20001c82ecf","08/06/2022, 16:32:57",-0.818409911471615,"31","M","right",1,1,0,0,TRUE,"E_C_F_shaniCo.jpg E_C_M_shaharHasson.jpg"
2219,"E_H_F_yanai.jpg","P_P_M_zamir.jpg","FALSE","pictures/stimuli/E","pictures/stimuli/P","F","M","6","5ba8d21cd08ab20001c82ecf","08/06/2022, 16:32:57",0.968922079098579,"31","M","right",0,0,0,0,TRUE,"E_H_F_yanai.jpg P_P_M_zamir.jpg"
3192,"E_C_F_ornaBanai.jpg","P_P_F_shaked.jpg","FALSE","pictures/stimuli/E","pictures/stimuli/P","F","F","4","5ba8d21cd08ab20001c82ecf","08/06/2022, 16:32:57",-0.818409911471615,"31","M","right",1,1,0,0,TRUE,"E_C_F_ornaBanai.jpg P_P_F_shaked.jpg"
1907,"E_M_M_Ivri.jpg","P_N_M_lapid.jpg","FALSE","pictures/stimuli/E","pictures/stimuli/P","M","M","5","5ba8d21cd08ab20001c82ecf","08/06/2022, 16:32:57",0.0752560838134821,"31","M","right",0,1,0,0,TRUE,"E_M_M_Ivri.jpg P_N_M_lapid.jpg"
1837,"E_M_M_tavori.jpg","P_P_M_benet.jpg","FALSE","pictures/stimuli/E","pictures/stimuli/P","M","M","5","5ba8d21cd08ab20001c82ecf","08/06/2022, 16:32:57",0.0752560838134821,"31","M","right",1,1,0,0,TRUE,"E_M_M_tavori.jpg P_P_M_benet.jpg"
1532,"P_P_F_michaeliM.jpg","P_N_F_yehimovitz.jpg","TRUE","pictures/stimuli/P","pictures/stimuli/P","F","F","4","5ba8d21cd08ab20001c82ecf","08/06/2022, 16:32:57",-0.818409911471615,"31","M","right",1,1,0,0,TRUE,"P_N_F_yehimovitz.jpg P_P_F_michaeliM.jpg"
6546,"E_H_F_yanai.jpg","P_N_M_lapid.jpg","FALSE","pictures/stimuli/E","pictures/stimuli/P","F","M","5","5c3374ba221fad0001cc47aa","06/27/2022, 07:13:32",1.26774413971583,"34","F","right",1,1,0,0,FALSE,"E_H_F_yanai.jpg P_N_M_lapid.jpg"
2320,"E_M_M_Ivri.jpg","P_P_F_shaked.jpg","FALSE","pictures/stimuli/E","pictures/stimuli/P","M","F","3","5c3374ba221fad0001cc47aa","06/27/2022, 07:13:32",-0.585112679868846,"34","F","right",1,1,0,0,FALSE,"E_M_M_Ivri.jpg P_P_F_shaked.jpg"
2985,"E_M_F_rita.jpg","P_P_F_shaked.jpg","FALSE","pictures/stimuli/E","pictures/stimuli/P","F","F","2","5c3374ba221fad0001cc47aa","06/27/2022, 07:13:32",-1.51154108966119,"34","F","right",1,1,0,0,FALSE,"E_M_F_rita.jpg P_P_F_shaked.jpg"
15213,"P_P_M_benet.jpg","P_N_M_lapid.jpg","TRUE","pictures/stimuli/P","pictures/stimuli/P","M","M","4","5c3374ba221fad0001cc47aa","06/27/2022, 07:13:32",0.341315729923493,"34","F","right",1,1,0,0,FALSE,"P_N_M_lapid.jpg P_P_M_benet.jpg"
3100,"E_H_F_yanai.jpg","P_P_M_peretz.jpg","FALSE","pictures/stimuli/E","pictures/stimuli/P","F","M","5","5c3374ba221fad0001cc47aa","06/27/2022, 07:13:32",1.26774413971583,"34","F","right",1,1,0,0,FALSE,"E_H_F_yanai.jpg P_P_M_peretz.jpg"
2173,"E_C_F_ornaBanai.jpg","P_P_F_shaked.jpg","FALSE","pictures/stimuli/E","pictures/stimuli/P","F","F","2","5c3374ba221fad0001cc47aa","06/27/2022, 07:13:32",-1.51154108966119,"34","F","right",1,1,0,0,FALSE,"E_C_F_ornaBanai.jpg P_P_F_shaked.jpg"
2775,"E_C_M_mushonov.jpg","E_M_F_rita.jpg","TRUE","pictures/stimuli/E","pictures/stimuli/E","M","F","4","5c3374ba221fad0001cc47aa","06/27/2022, 07:13:32",0.341315729923493,"34","F","right",1,1,0,0,FALSE,"E_C_M_mushonov.jpg E_M_F_rita.jpg"
4049,"P_P_F_michaeliM.jpg","P_N_F_yehimovitz.jpg","TRUE","pictures/stimuli/P","pictures/stimuli/P","F","F","5","5c3374ba221fad0001cc47aa","06/27/2022, 07:13:32",1.26774413971583,"34","F","right",1,1,0,0,FALSE,"P_N_F_yehimovitz.jpg P_P_F_michaeliM.jpg"
3694,"E_C_F_ornaBanai.jpg","P_P_M_benet.jpg","FALSE","pictures/stimuli/E","pictures/stimuli/P","F","M","6","5c3374ba221fad0001cc47aa","06/27/2022, 07:13:32",2.19417254950817,"34","F","right",1,1,0,0,FALSE,"E_C_F_ornaBanai.jpg P_P_M_benet.jpg"
2838,"P_P_F_shaked.jpg","P_N_F_yehimovitz.jpg","TRUE","pictures/stimuli/P","pictures/stimuli/P","F","F","3","5c3374ba221fad0001cc47aa","06/27/2022, 07:13:32",-0.585112679868846,"34","F","right",1,1,0,0,FALSE,"P_N_F_yehimovitz.jpg P_P_F_shaked.jpg"
1965,"E_C_M_shaharHasson.jpg","P_P_M_benet.jpg","FALSE","pictures/stimuli/E","pictures/stimuli/P","M","M","3","5c3374ba221fad0001cc47aa","06/27/2022, 07:13:32",-0.585112679868846,"34","F","right",1,1,0,0,FALSE,"E_C_M_shaharHasson.jpg P_P_M_benet.jpg"
2587,"E_C_M_shaharHasson.jpg","P_N_M_lapid.jpg","FALSE","pictures/stimuli/E","pictures/stimuli/P","M","M","2","5c3374ba221fad0001cc47aa","06/27/2022, 07:13:32",-1.51154108966119,"34","F","right",1,1,0,0,FALSE,"E_C_M_shaharHasson.jpg P_N_M_lapid.jpg"
3465,"E_M_M_tavori.jpg","P_P_F_michaeliM.jpg","FALSE","pictures/stimuli/E","pictures/stimuli/P","M","F","6","5c3374ba221fad0001cc47aa","06/27/2022, 07:13:32",2.19417254950817,"34","F","right",1,1,0,0,FALSE,"E_M_M_tavori.jpg P_P_F_michaeliM.jpg"
2785,"E_C_M_mushonov.jpg","P_P_F_michaeliM.jpg","FALSE","pictures/stimuli/E","pictures/stimuli/P","M","F","4","5c3374ba221fad0001cc47aa","06/27/2022, 07:13:32",0.341315729923493,"34","F","right",1,1,0,0,FALSE,"E_C_M_mushonov.jpg P_P_F_michaeliM.jpg"
3656,"E_C_M_katorza.jpg","P_N_M_lapid.jpg","FALSE","pictures/stimuli/E","pictures/stimuli/P","M","M","3","5c3374ba221fad0001cc47aa","06/27/2022, 07:13:32",-0.585112679868846,"34","F","right",1,1,0,0,FALSE,"E_C_M_katorza.jpg P_N_M_lapid.jpg"
5095,"E_C_F_shaniCo.jpg","P_N_M_lapid.jpg","FALSE","pictures/stimuli/E","pictures/stimuli/P","F","M","5","5c3374ba221fad0001cc47aa","06/27/2022, 07:13:32",1.26774413971583,"34","F","right",1,1,0,0,FALSE,"E_C_F_shaniCo.jpg P_N_M_lapid.jpg"
4343,"E_C_F_ornaBanai.jpg","P_P_M_zamir.jpg","FALSE","pictures/stimuli/E","pictures/stimuli/P","F","M","5","5c3374ba221fad0001cc47aa","06/27/2022, 07:13:32",1.26774413971583,"34","F","right",1,1,0,0,FALSE,"E_C_F_ornaBanai.jpg P_P_M_zamir.jpg"
3525,"E_C_F_harLev.jpg","E_H_F_yanai.jpg","TRUE","pictures/stimuli/E","pictures/stimuli/E","F","F","2","5c3374ba221fad0001cc47aa","06/27/2022, 07:13:32",-1.51154108966119,"34","F","right",1,1,0,0,FALSE,"E_C_F_harLev.jpg E_H_F_yanai.jpg"
3643,"E_C_M_alfi.jpg","P_P_F_michaeliM.jpg","FALSE","pictures/stimuli/E","pictures/stimuli/P","M","F","3","5c3374ba221fad0001cc47aa","06/27/2022, 07:13:32",-0.585112679868846,"34","F","right",1,1,0,0,FALSE,"E_C_M_alfi.jpg P_P_F_michaeliM.jpg"
2891,"E_C_M_alfi.jpg","E_C_F_harLev.jpg","TRUE","pictures/stimuli/E","pictures/stimuli/E","M","F","4","5c3374ba221fad0001cc47aa","06/27/2022, 07:13:32",0.341315729923493,"34","F","right",1,1,0,0,FALSE,"E_C_F_harLev.jpg E_C_M_alfi.jpg"
4999,"P_N_M_lapid.jpg","P_P_M_peretz.jpg","TRUE","pictures/stimuli/P","pictures/stimuli/P","M","M","3","5c3374ba221fad0001cc47aa","06/27/2022, 07:13:32",-0.585112679868846,"34","F","right",1,1,0,0,FALSE,"P_N_M_lapid.jpg P_P_M_peretz.jpg"
101992,"E_C_F_harLev.jpg","E_M_M_tavori.jpg","TRUE","pictures/stimuli/E","pictures/stimuli/E","F","M","6","5c3374ba221fad0001cc47aa","06/27/2022, 07:13:32",2.19417254950817,"34","F","right",1,1,0,0,TRUE,"E_C_F_harLev.jpg E_M_M_tavori.jpg"
3229,"E_M_F_rita.jpg","E_H_F_yanai.jpg","TRUE","pictures/stimuli/E","pictures/stimuli/E","F","F","3","5c3374ba221fad0001cc47aa","06/27/2022, 07:13:32",-0.585112679868846,"34","F","right",1,1,0,0,FALSE,"E_H_F_yanai.jpg E_M_F_rita.jpg"
2127,"E_C_F_ornaBanai.jpg","E_H_F_yanai.jpg","TRUE","pictures/stimuli/E","pictures/stimuli/E","F","F","3","5c3374ba221fad0001cc47aa","06/27/2022, 07:13:32",-0.585112679868846,"34","F","right",1,1,0,0,FALSE,"E_C_F_ornaBanai.jpg E_H_F_yanai.jpg"
6342,"E_M_M_Ivri.jpg","P_P_M_liberman.jpg","FALSE","pictures/stimuli/E","pictures/stimuli/P","M","M","4","5c3374ba221fad0001cc47aa","06/27/2022, 07:13:32",0.341315729923493,"34","F","right",1,1,0,0,FALSE,"E_M_M_Ivri.jpg P_P_M_liberman.jpg"
3844,"P_P_M_benet.jpg","P_P_M_peretz.jpg","TRUE","pictures/stimuli/P","pictures/stimuli/P","M","M","3","5c3374ba221fad0001cc47aa","06/27/2022, 07:13:32",-0.585112679868846,"34","F","right",1,1,0,0,FALSE,"P_P_M_benet.jpg P_P_M_peretz.jpg"
2723,"P_P_M_liberman.jpg","P_P_M_zamir.jpg","TRUE","pictures/stimuli/P","pictures/stimuli/P","M","M","3","5c3374ba221fad0001cc47aa","06/27/2022, 07:13:32",-0.585112679868846,"34","F","right",1,1,0,0,FALSE,"P_P_M_liberman.jpg P_P_M_zamir.jpg"
3584,"E_C_M_katorza.jpg","E_C_F_shaniCo.jpg","TRUE","pictures/stimuli/E","pictures/stimuli/E","M","F","5","5c3374ba221fad0001cc47aa","06/27/2022, 07:13:32",1.26774413971583,"34","F","right",1,1,0,0,FALSE,"E_C_F_shaniCo.jpg E_C_M_katorza.jpg"
1945,"E_C_M_mushonov.jpg","P_P_M_benet.jpg","FALSE","pictures/stimuli/E","pictures/stimuli/P","M","M","3","5c3374ba221fad0001cc47aa","06/27/2022, 07:13:32",-0.585112679868846,"34","F","right",1,1,0,0,FALSE,"E_C_M_mushonov.jpg P_P_M_benet.jpg"
2529,"E_C_F_ornaBanai.jpg","E_M_F_rita.jpg","TRUE","pictures/stimuli/E","pictures/stimuli/E","F","F","1","5c3374ba221fad0001cc47aa","06/27/2022, 07:13:32",-2.43796949945353,"34","F","right",1,1,0,0,FALSE,"E_C_F_ornaBanai.jpg E_M_F_rita.jpg"
3855,"E_C_M_katorza.jpg","E_M_M_tavori.jpg","TRUE","pictures/stimuli/E","pictures/stimuli/E","M","M","3","5c3374ba221fad0001cc47aa","06/27/2022, 07:13:32",-0.585112679868846,"34","F","right",1,1,0,0,FALSE,"E_C_M_katorza.jpg E_M_M_tavori.jpg"
1838,"E_C_F_shaniCo.jpg","P_P_M_peretz.jpg","FALSE","pictures/stimuli/E","pictures/stimuli/P","F","M","5","5c3374ba221fad0001cc47aa","06/27/2022, 07:13:32",1.26774413971583,"34","F","right",1,1,0,0,FALSE,"E_C_F_shaniCo.jpg P_P_M_peretz.jpg"
3866,"E_C_M_alfi.jpg","P_P_F_shaked.jpg","FALSE","pictures/stimuli/E","pictures/stimuli/P","M","F","3","5c3374ba221fad0001cc47aa","06/27/2022, 07:13:32",-0.585112679868846,"34","F","right",1,1,0,0,FALSE,"E_C_M_alfi.jpg P_P_F_shaked.jpg"
2900,"E_C_F_harLev.jpg","E_C_M_shaharHasson.jpg","TRUE","pictures/stimuli/E","pictures/stimuli/E","F","M","4","5c3374ba221fad0001cc47aa","06/27/2022, 07:13:32",0.341315729923493,"34","F","right",1,1,0,0,FALSE,"E_C_F_harLev.jpg E_C_M_shaharHasson.jpg"
2456,"E_C_F_shaniCo.jpg","E_M_M_tavori.jpg","TRUE","pictures/stimuli/E","pictures/stimuli/E","F","M","2","5c3374ba221fad0001cc47aa","06/27/2022, 07:13:32",-1.51154108966119,"34","F","right",1,1,0,0,FALSE,"E_C_F_shaniCo.jpg E_M_M_tavori.jpg"
2501,"E_M_M_Ivri.jpg","P_N_F_yehimovitz.jpg","FALSE","pictures/stimuli/E","pictures/stimuli/P","M","F","4","5c3374ba221fad0001cc47aa","06/27/2022, 07:13:32",0.341315729923493,"34","F","right",1,1,0,0,FALSE,"E_M_M_Ivri.jpg P_N_F_yehimovitz.jpg"
3027,"E_M_F_rita.jpg","P_N_M_lapid.jpg","FALSE","pictures/stimuli/E","pictures/stimuli/P","F","M","5","5c3374ba221fad0001cc47aa","06/27/2022, 07:13:32",1.26774413971583,"34","F","right",1,1,0,0,FALSE,"E_M_F_rita.jpg P_N_M_lapid.jpg"
2282,"E_C_M_alfi.jpg","E_M_F_rita.jpg","TRUE","pictures/stimuli/E","pictures/stimuli/E","M","F","4","5c3374ba221fad0001cc47aa","06/27/2022, 07:13:32",0.341315729923493,"34","F","right",1,1,0,0,FALSE,"E_C_M_alfi.jpg E_M_F_rita.jpg"
2134,"E_C_M_mushonov.jpg","P_N_M_lapid.jpg","FALSE","pictures/stimuli/E","pictures/stimuli/P","M","M","3","5c3374ba221fad0001cc47aa","06/27/2022, 07:13:32",-0.585112679868846,"34","F","right",1,1,0,0,FALSE,"E_C_M_mushonov.jpg P_N_M_lapid.jpg"
2545,"E_C_F_shaniCo.jpg","P_P_F_shaked.jpg","FALSE","pictures/stimuli/E","pictures/stimuli/P","F","F","3","5c3374ba221fad0001cc47aa","06/27/2022, 07:13:32",-0.585112679868846,"34","F","right",1,1,0,0,FALSE,"E_C_F_shaniCo.jpg P_P_F_shaked.jpg"
1978,"P_P_M_peretz.jpg","P_P_F_shaked.jpg","TRUE","pictures/stimuli/P","pictures/stimuli/P","M","F","5","5c3374ba221fad0001cc47aa","06/27/2022, 07:13:32",1.26774413971583,"34","F","right",1,1,0,0,FALSE,"P_P_F_shaked.jpg P_P_M_peretz.jpg"
4151,"E_C_M_mushonov.jpg","E_C_F_ornaBanai.jpg","TRUE","pictures/stimuli/E","pictures/stimuli/E","M","F","4","5c3374ba221fad0001cc47aa","06/27/2022, 07:13:32",0.341315729923493,"34","F","right",1,1,0,0,FALSE,"E_C_F_ornaBanai.jpg E_C_M_mushonov.jpg"
1609,"P_P_M_benet.jpg","P_P_F_shaked.jpg","TRUE","pictures/stimuli/P","pictures/stimuli/P","M","F","4","5c3374ba221fad0001cc47aa","06/27/2022, 07:13:32",0.341315729923493,"34","F","right",1,1,0,0,FALSE,"P_P_F_shaked.jpg P_P_M_benet.jpg"
2618,"E_C_M_katorza.jpg","P_P_M_benet.jpg","FALSE","pictures/stimuli/E","pictures/stimuli/P","M","M","2","5c3374ba221fad0001cc47aa","06/27/2022, 07:13:32",-1.51154108966119,"34","F","right",1,1,0,0,FALSE,"E_C_M_katorza.jpg P_P_M_benet.jpg"
1809,"E_C_F_harLev.jpg","E_M_M_Ivri.jpg","TRUE","pictures/stimuli/E","pictures/stimuli/E","F","M","4","5c3374ba221fad0001cc47aa","06/27/2022, 07:13:32",0.341315729923493,"34","F","right",1,1,0,0,FALSE,"E_C_F_harLev.jpg E_M_M_Ivri.jpg"
2833,"E_C_M_katorza.jpg","E_C_F_ornaBanai.jpg","TRUE","pictures/stimuli/E","pictures/stimuli/E","M","F","3","5c3374ba221fad0001cc47aa","06/27/2022, 07:13:32",-0.585112679868846,"34","F","right",1,1,0,0,FALSE,"E_C_F_ornaBanai.jpg E_C_M_katorza.jpg"
4608,"P_P_M_liberman.jpg","P_N_F_yehimovitz.jpg","TRUE","pictures/stimuli/P","pictures/stimuli/P","M","F","5","5c3374ba221fad0001cc47aa","06/27/2022, 07:13:32",1.26774413971583,"34","F","right",1,1,0,0,FALSE,"P_N_F_yehimovitz.jpg P_P_M_liberman.jpg"
2437,"P_N_F_yehimovitz.jpg","P_P_M_zamir.jpg","TRUE","pictures/stimuli/P","pictures/stimuli/P","F","M","4","5c3374ba221fad0001cc47aa","06/27/2022, 07:13:32",0.341315729923493,"34","F","right",1,1,0,0,FALSE,"P_N_F_yehimovitz.jpg P_P_M_zamir.jpg"
4301,"E_M_M_tavori.jpg","P_P_M_liberman.jpg","FALSE","pictures/stimuli/E","pictures/stimuli/P","M","M","5","5c3374ba221fad0001cc47aa","06/27/2022, 07:13:32",1.26774413971583,"34","F","right",1,1,0,0,FALSE,"E_M_M_tavori.jpg P_P_M_liberman.jpg"
2099,"E_C_M_katorza.jpg","P_P_M_peretz.jpg","FALSE","pictures/stimuli/E","pictures/stimuli/P","M","M","4","5c3374ba221fad0001cc47aa","06/27/2022, 07:13:32",0.341315729923493,"34","F","right",1,1,0,0,FALSE,"E_C_M_katorza.jpg P_P_M_peretz.jpg"
4064,"E_C_F_harLev.jpg","P_P_F_shaked.jpg","FALSE","pictures/stimuli/E","pictures/stimuli/P","F","F","2","5c3374ba221fad0001cc47aa","06/27/2022, 07:13:32",-1.51154108966119,"34","F","right",1,1,0,0,FALSE,"E_C_F_harLev.jpg P_P_F_shaked.jpg"
2292,"E_C_F_harLev.jpg","E_M_F_rita.jpg","TRUE","pictures/stimuli/E","pictures/stimuli/E","F","F","3","5c3374ba221fad0001cc47aa","06/27/2022, 07:13:32",-0.585112679868846,"34","F","right",1,1,0,0,FALSE,"E_C_F_harLev.jpg E_M_F_rita.jpg"
3071,"E_M_M_Ivri.jpg","E_M_M_tavori.jpg","TRUE","pictures/stimuli/E","pictures/stimuli/E","M","M","4","5c3374ba221fad0001cc47aa","06/27/2022, 07:13:32",0.341315729923493,"34","F","right",1,1,0,0,FALSE,"E_M_M_Ivri.jpg E_M_M_tavori.jpg"
2148,"E_C_M_shaharHasson.jpg","P_P_F_michaeliM.jpg","FALSE","pictures/stimuli/E","pictures/stimuli/P","M","F","4","5c3374ba221fad0001cc47aa","06/27/2022, 07:13:32",0.341315729923493,"34","F","right",1,1,0,0,FALSE,"E_C_M_shaharHasson.jpg P_P_F_michaeliM.jpg"
1682,"E_C_M_mushonov.jpg","P_P_M_zamir.jpg","FALSE","pictures/stimuli/E","pictures/stimuli/P","M","M","3","5c3374ba221fad0001cc47aa","06/27/2022, 07:13:32",-0.585112679868846,"34","F","right",1,1,0,0,FALSE,"E_C_M_mushonov.jpg P_P_M_zamir.jpg"
2114,"E_C_M_alfi.jpg","P_P_M_smootrich.jpg","FALSE","pictures/stimuli/E","pictures/stimuli/P","M","M","4","5c3374ba221fad0001cc47aa","06/27/2022, 07:13:32",0.341315729923493,"34","F","right",1,1,0,0,FALSE,"E_C_M_alfi.jpg P_P_M_smootrich.jpg"
2357,"E_C_M_shaharHasson.jpg","P_P_F_shaked.jpg","FALSE","pictures/stimuli/E","pictures/stimuli/P","M","F","3","5c3374ba221fad0001cc47aa","06/27/2022, 07:13:32",-0.585112679868846,"34","F","right",1,1,0,0,FALSE,"E_C_M_shaharHasson.jpg P_P_F_shaked.jpg"
4944,"E_H_F_yanai.jpg","P_P_F_shaked.jpg","FALSE","pictures/stimuli/E","pictures/stimuli/P","F","F","3","5c3374ba221fad0001cc47aa","06/27/2022, 07:13:32",-0.585112679868846,"34","F","right",1,1,0,0,FALSE,"E_H_F_yanai.jpg P_P_F_shaked.jpg"
12300,"E_M_F_rita.jpg","P_N_F_yehimovitz.jpg","FALSE","pictures/stimuli/E","pictures/stimuli/P","F","F","3","5c3374ba221fad0001cc47aa","06/27/2022, 07:13:32",-0.585112679868846,"34","F","right",1,1,0,0,FALSE,"E_M_F_rita.jpg P_N_F_yehimovitz.jpg"
2456,"E_M_M_tavori.jpg","P_P_M_zamir.jpg","FALSE","pictures/stimuli/E","pictures/stimuli/P","M","M","3","5c3374ba221fad0001cc47aa","06/27/2022, 07:13:32",-0.585112679868846,"34","F","right",1,1,0,0,FALSE,"E_M_M_tavori.jpg P_P_M_zamir.jpg"
1842,"E_C_M_shaharHasson.jpg","P_P_M_liberman.jpg","FALSE","pictures/stimuli/E","pictures/stimuli/P","M","M","4","5c3374ba221fad0001cc47aa","06/27/2022, 07:13:32",0.341315729923493,"34","F","right",1,1,0,0,FALSE,"E_C_M_shaharHasson.jpg P_P_M_liberman.jpg"
2102,"E_M_M_Ivri.jpg","P_P_M_smootrich.jpg","FALSE","pictures/stimuli/E","pictures/stimuli/P","M","M","4","5c3374ba221fad0001cc47aa","06/27/2022, 07:13:32",0.341315729923493,"34","F","right",1,1,0,0,FALSE,"E_M_M_Ivri.jpg P_P_M_smootrich.jpg"
3205,"E_C_F_ornaBanai.jpg","P_P_M_smootrich.jpg","FALSE","pictures/stimuli/E","pictures/stimuli/P","F","M","6","5c3374ba221fad0001cc47aa","06/27/2022, 07:13:32",2.19417254950817,"34","F","right",1,1,0,0,FALSE,"E_C_F_ornaBanai.jpg P_P_M_smootrich.jpg"
2995,"E_C_M_shaharHasson.jpg","E_C_F_ornaBanai.jpg","TRUE","pictures/stimuli/E","pictures/stimuli/E","M","F","3","5c3374ba221fad0001cc47aa","06/27/2022, 07:13:32",-0.585112679868846,"34","F","right",1,1,0,0,FALSE,"E_C_F_ornaBanai.jpg E_C_M_shaharHasson.jpg"
2872,"E_C_M_katorza.jpg","P_P_M_liberman.jpg","FALSE","pictures/stimuli/E","pictures/stimuli/P","M","M","4","5c3374ba221fad0001cc47aa","06/27/2022, 07:13:32",0.341315729923493,"34","F","right",1,1,0,0,FALSE,"E_C_M_katorza.jpg P_P_M_liberman.jpg"
4451,"P_P_M_benet.jpg","P_P_M_smootrich.jpg","TRUE","pictures/stimuli/P","pictures/stimuli/P","M","M","3","5c3374ba221fad0001cc47aa","06/27/2022, 07:13:32",-0.585112679868846,"34","F","right",1,1,0,0,FALSE,"P_P_M_benet.jpg P_P_M_smootrich.jpg"
5140,"P_P_M_peretz.jpg","P_P_M_smootrich.jpg","TRUE","pictures/stimuli/P","pictures/stimuli/P","M","M","4","5c3374ba221fad0001cc47aa","06/27/2022, 07:13:32",0.341315729923493,"34","F","right",1,1,0,0,FALSE,"P_P_M_peretz.jpg P_P_M_smootrich.jpg"
5717,"P_N_M_lapid.jpg","P_P_M_liberman.jpg","TRUE","pictures/stimuli/P","pictures/stimuli/P","M","M","4","5c3374ba221fad0001cc47aa","06/27/2022, 07:13:32",0.341315729923493,"34","F","right",1,1,0,0,FALSE,"P_N_M_lapid.jpg P_P_M_liberman.jpg"
2735,"E_C_M_katorza.jpg","P_P_M_zamir.jpg","FALSE","pictures/stimuli/E","pictures/stimuli/P","M","M","4","5c3374ba221fad0001cc47aa","06/27/2022, 07:13:32",0.341315729923493,"34","F","right",1,1,0,0,FALSE,"E_C_M_katorza.jpg P_P_M_zamir.jpg"
2570,"P_N_M_lapid.jpg","P_P_M_smootrich.jpg","TRUE","pictures/stimuli/P","pictures/stimuli/P","M","M","4","5c3374ba221fad0001cc47aa","06/27/2022, 07:13:32",0.341315729923493,"34","F","right",1,1,0,0,FALSE,"P_N_M_lapid.jpg P_P_M_smootrich.jpg"
3119,"E_C_M_katorza.jpg","E_C_M_mushonov.jpg","TRUE","pictures/stimuli/E","pictures/stimuli/E","M","M","4","5c3374ba221fad0001cc47aa","06/27/2022, 07:13:32",0.341315729923493,"34","F","right",1,1,0,0,FALSE,"E_C_M_katorza.jpg E_C_M_mushonov.jpg"
3259,"E_C_F_harLev.jpg","P_P_M_zamir.jpg","FALSE","pictures/stimuli/E","pictures/stimuli/P","F","M","5","5c3374ba221fad0001cc47aa","06/27/2022, 07:13:32",1.26774413971583,"34","F","right",1,1,0,0,FALSE,"E_C_F_harLev.jpg P_P_M_zamir.jpg"
3281,"E_C_F_ornaBanai.jpg","E_M_M_tavori.jpg","TRUE","pictures/stimuli/E","pictures/stimuli/E","F","M","5","5c3374ba221fad0001cc47aa","06/27/2022, 07:13:32",1.26774413971583,"34","F","right",1,1,0,0,FALSE,"E_C_F_ornaBanai.jpg E_M_M_tavori.jpg"
92250,"P_N_M_lapid.jpg","P_P_F_shaked.jpg","TRUE","pictures/stimuli/P","pictures/stimuli/P","M","F","4","5c3374ba221fad0001cc47aa","06/27/2022, 07:13:32",0.341315729923493,"34","F","right",1,1,0,0,TRUE,"P_N_M_lapid.jpg P_P_F_shaked.jpg"
3873,"E_C_F_harLev.jpg","P_P_M_peretz.jpg","FALSE","pictures/stimuli/E","pictures/stimuli/P","F","M","5","5c3374ba221fad0001cc47aa","06/27/2022, 07:13:32",1.26774413971583,"34","F","right",1,1,0,0,FALSE,"E_C_F_harLev.jpg P_P_M_peretz.jpg"
3517,"E_M_F_rita.jpg","P_P_M_zamir.jpg","FALSE","pictures/stimuli/E","pictures/stimuli/P","F","M","5","5c3374ba221fad0001cc47aa","06/27/2022, 07:13:32",1.26774413971583,"34","F","right",1,1,0,0,FALSE,"E_M_F_rita.jpg P_P_M_zamir.jpg"
2674,"P_P_M_liberman.jpg","P_P_M_peretz.jpg","TRUE","pictures/stimuli/P","pictures/stimuli/P","M","M","4","5c3374ba221fad0001cc47aa","06/27/2022, 07:13:32",0.341315729923493,"34","F","right",1,1,0,0,FALSE,"P_P_M_liberman.jpg P_P_M_peretz.jpg"
5508,"E_C_M_alfi.jpg","P_N_M_lapid.jpg","FALSE","pictures/stimuli/E","pictures/stimuli/P","M","M","4","5c3374ba221fad0001cc47aa","06/27/2022, 07:13:32",0.341315729923493,"34","F","right",1,1,0,0,FALSE,"E_C_M_alfi.jpg P_N_M_lapid.jpg"
2689,"E_C_M_shaharHasson.jpg","P_P_M_zamir.jpg","FALSE","pictures/stimuli/E","pictures/stimuli/P","M","M","3","5c3374ba221fad0001cc47aa","06/27/2022, 07:13:32",-0.585112679868846,"34","F","right",1,1,0,0,FALSE,"E_C_M_shaharHasson.jpg P_P_M_zamir.jpg"
2122,"E_C_F_harLev.jpg","P_P_M_liberman.jpg","FALSE","pictures/stimuli/E","pictures/stimuli/P","F","M","4","5c3374ba221fad0001cc47aa","06/27/2022, 07:13:32",0.341315729923493,"34","F","right",1,1,0,0,FALSE,"E_C_F_harLev.jpg P_P_M_liberman.jpg"
2624,"E_C_F_shaniCo.jpg","P_N_F_yehimovitz.jpg","FALSE","pictures/stimuli/E","pictures/stimuli/P","F","F","2","5c3374ba221fad0001cc47aa","06/27/2022, 07:13:32",-1.51154108966119,"34","F","right",1,1,0,0,FALSE,"E_C_F_shaniCo.jpg P_N_F_yehimovitz.jpg"
2318,"E_M_M_Ivri.jpg","E_C_F_ornaBanai.jpg","TRUE","pictures/stimuli/E","pictures/stimuli/E","M","F","2","5c3374ba221fad0001cc47aa","06/27/2022, 07:13:32",-1.51154108966119,"34","F","right",1,1,0,0,FALSE,"E_C_F_ornaBanai.jpg E_M_M_Ivri.jpg"
2047,"E_C_M_mushonov.jpg","E_C_F_shaniCo.jpg","TRUE","pictures/stimuli/E","pictures/stimuli/E","M","F","4","5c3374ba221fad0001cc47aa","06/27/2022, 07:13:32",0.341315729923493,"34","F","right",1,1,0,0,FALSE,"E_C_F_shaniCo.jpg E_C_M_mushonov.jpg"
2017,"P_N_M_lapid.jpg","P_N_F_yehimovitz.jpg","TRUE","pictures/stimuli/P","pictures/stimuli/P","M","F","4","5c3374ba221fad0001cc47aa","06/27/2022, 07:13:32",0.341315729923493,"34","F","right",1,1,0,0,FALSE,"P_N_F_yehimovitz.jpg P_N_M_lapid.jpg"
1719,"E_C_F_harLev.jpg","P_N_F_yehimovitz.jpg","FALSE","pictures/stimuli/E","pictures/stimuli/P","F","F","2","5c3374ba221fad0001cc47aa","06/27/2022, 07:13:32",-1.51154108966119,"34","F","right",1,1,0,0,FALSE,"E_C_F_harLev.jpg P_N_F_yehimovitz.jpg"
2370,"P_N_M_lapid.jpg","P_P_F_michaeliM.jpg","TRUE","pictures/stimuli/P","pictures/stimuli/P","M","F","4","5c3374ba221fad0001cc47aa","06/27/2022, 07:13:32",0.341315729923493,"34","F","right",1,1,0,0,FALSE,"P_N_M_lapid.jpg P_P_F_michaeliM.jpg"
1929,"E_C_F_shaniCo.jpg","P_P_M_zamir.jpg","FALSE","pictures/stimuli/E","pictures/stimuli/P","F","M","4","5c3374ba221fad0001cc47aa","06/27/2022, 07:13:32",0.341315729923493,"34","F","right",1,1,0,0,FALSE,"E_C_F_shaniCo.jpg P_P_M_zamir.jpg"
4612,"P_P_M_benet.jpg","P_N_F_yehimovitz.jpg","TRUE","pictures/stimuli/P","pictures/stimuli/P","M","F","5","5c3374ba221fad0001cc47aa","06/27/2022, 07:13:32",1.26774413971583,"34","F","right",1,1,0,0,FALSE,"P_N_F_yehimovitz.jpg P_P_M_benet.jpg"
2557,"P_P_M_benet.jpg","P_P_F_michaeliM.jpg","TRUE","pictures/stimuli/P","pictures/stimuli/P","M","F","5","5c3374ba221fad0001cc47aa","06/27/2022, 07:13:32",1.26774413971583,"34","F","right",1,1,0,0,FALSE,"P_P_F_michaeliM.jpg P_P_M_benet.jpg"
4059,"E_C_M_mushonov.jpg","P_P_M_peretz.jpg","FALSE","pictures/stimuli/E","pictures/stimuli/P","M","M","4","5c3374ba221fad0001cc47aa","06/27/2022, 07:13:32",0.341315729923493,"34","F","right",1,1,0,0,FALSE,"E_C_M_mushonov.jpg P_P_M_peretz.jpg"
2117,"E_M_M_Ivri.jpg","P_N_M_lapid.jpg","FALSE","pictures/stimuli/E","pictures/stimuli/P","M","M","3","5c3374ba221fad0001cc47aa","06/27/2022, 07:13:32",-0.585112679868846,"34","F","right",1,1,0,0,FALSE,"E_M_M_Ivri.jpg P_N_M_lapid.jpg"
2277,"E_C_M_alfi.jpg","E_C_M_katorza.jpg","TRUE","pictures/stimuli/E","pictures/stimuli/E","M","M","3","5c3374ba221fad0001cc47aa","06/27/2022, 07:13:32",-0.585112679868846,"34","F","right",1,1,0,0,FALSE,"E_C_M_alfi.jpg E_C_M_katorza.jpg"
2735,"E_H_F_yanai.jpg","P_P_M_benet.jpg","FALSE","pictures/stimuli/E","pictures/stimuli/P","F","M","4","5c3374ba221fad0001cc47aa","06/27/2022, 07:13:32",0.341315729923493,"34","F","right",1,1,0,0,FALSE,"E_H_F_yanai.jpg P_P_M_benet.jpg"
2004,"E_C_F_ornaBanai.jpg","P_P_F_michaeliM.jpg","FALSE","pictures/stimuli/E","pictures/stimuli/P","F","F","1","5c3374ba221fad0001cc47aa","06/27/2022, 07:13:32",-2.43796949945353,"34","F","right",1,1,0,0,FALSE,"E_C_F_ornaBanai.jpg P_P_F_michaeliM.jpg"
5460,"E_C_F_ornaBanai.jpg","P_P_M_peretz.jpg","FALSE","pictures/stimuli/E","pictures/stimuli/P","F","M","3","5c3374ba221fad0001cc47aa","06/27/2022, 07:13:32",-0.585112679868846,"34","F","right",1,1,0,0,FALSE,"E_C_F_ornaBanai.jpg P_P_M_peretz.jpg"
2067,"E_C_M_shaharHasson.jpg","E_M_M_tavori.jpg","TRUE","pictures/stimuli/E","pictures/stimuli/E","M","M","2","5c3374ba221fad0001cc47aa","06/27/2022, 07:13:32",-1.51154108966119,"34","F","right",1,1,0,0,FALSE,"E_C_M_shaharHasson.jpg E_M_M_tavori.jpg"
2333,"E_C_M_katorza.jpg","P_P_F_shaked.jpg","FALSE","pictures/stimuli/E","pictures/stimuli/P","M","F","4","5c3374ba221fad0001cc47aa","06/27/2022, 07:13:32",0.341315729923493,"34","F","right",1,1,0,0,FALSE,"E_C_M_katorza.jpg P_P_F_shaked.jpg"
5044,"E_M_F_rita.jpg","P_P_M_smootrich.jpg","FALSE","pictures/stimuli/E","pictures/stimuli/P","F","M","5","5c3374ba221fad0001cc47aa","06/27/2022, 07:13:32",1.26774413971583,"34","F","right",1,1,0,0,FALSE,"E_M_F_rita.jpg P_P_M_smootrich.jpg"
4504,"E_M_M_tavori.jpg","P_N_M_lapid.jpg","FALSE","pictures/stimuli/E","pictures/stimuli/P","M","M","4","5c3374ba221fad0001cc47aa","06/27/2022, 07:13:32",0.341315729923493,"34","F","right",1,1,0,0,FALSE,"E_M_M_tavori.jpg P_N_M_lapid.jpg"
3906,"E_M_M_Ivri.jpg","E_C_F_shaniCo.jpg","TRUE","pictures/stimuli/E","pictures/stimuli/E","M","F","4","5c3374ba221fad0001cc47aa","06/27/2022, 07:13:32",0.341315729923493,"34","F","right",1,1,0,0,FALSE,"E_C_F_shaniCo.jpg E_M_M_Ivri.jpg"
4233,"E_C_F_harLev.jpg","P_P_M_smootrich.jpg","FALSE","pictures/stimuli/E","pictures/stimuli/P","F","M","5","5c3374ba221fad0001cc47aa","06/27/2022, 07:13:32",1.26774413971583,"34","F","right",1,1,0,0,FALSE,"E_C_F_harLev.jpg P_P_M_smootrich.jpg"
5886,"E_C_M_mushonov.jpg","E_H_F_yanai.jpg","TRUE","pictures/stimuli/E","pictures/stimuli/E","M","F","2","5c3374ba221fad0001cc47aa","06/27/2022, 07:13:32",-1.51154108966119,"34","F","right",1,1,0,0,FALSE,"E_C_M_mushonov.jpg E_H_F_yanai.jpg"
2793,"E_C_M_alfi.jpg","P_P_M_peretz.jpg","FALSE","pictures/stimuli/E","pictures/stimuli/P","M","M","3","5c3374ba221fad0001cc47aa","06/27/2022, 07:13:32",-0.585112679868846,"34","F","right",1,1,0,0,FALSE,"E_C_M_alfi.jpg P_P_M_peretz.jpg"
2314,"P_P_F_michaeliM.jpg","P_P_F_shaked.jpg","TRUE","pictures/stimuli/P","pictures/stimuli/P","F","F","1","5c3374ba221fad0001cc47aa","06/27/2022, 07:13:32",-2.43796949945353,"34","F","right",1,1,0,0,FALSE,"P_P_F_michaeliM.jpg P_P_F_shaked.jpg"
2961,"E_C_M_mushonov.jpg","P_N_F_yehimovitz.jpg","FALSE","pictures/stimuli/E","pictures/stimuli/P","M","F","3","5c3374ba221fad0001cc47aa","06/27/2022, 07:13:32",-0.585112679868846,"34","F","right",1,1,0,0,FALSE,"E_C_M_mushonov.jpg P_N_F_yehimovitz.jpg"
1744,"E_C_M_shaharHasson.jpg","E_M_F_rita.jpg","TRUE","pictures/stimuli/E","pictures/stimuli/E","M","F","2","5c3374ba221fad0001cc47aa","06/27/2022, 07:13:32",-1.51154108966119,"34","F","right",1,1,0,0,FALSE,"E_C_M_shaharHasson.jpg E_M_F_rita.jpg"
1638,"E_C_M_katorza.jpg","P_N_F_yehimovitz.jpg","FALSE","pictures/stimuli/E","pictures/stimuli/P","M","F","4","5c3374ba221fad0001cc47aa","06/27/2022, 07:13:32",0.341315729923493,"34","F","right",1,1,0,0,FALSE,"E_C_M_katorza.jpg P_N_F_yehimovitz.jpg"
2660,"E_C_M_katorza.jpg","E_M_M_Ivri.jpg","TRUE","pictures/stimuli/E","pictures/stimuli/E","M","M","3","5c3374ba221fad0001cc47aa","06/27/2022, 07:13:32",-0.585112679868846,"34","F","right",1,1,0,0,FALSE,"E_C_M_katorza.jpg E_M_M_Ivri.jpg"
1273,"E_C_M_mushonov.jpg","P_P_F_shaked.jpg","FALSE","pictures/stimuli/E","pictures/stimuli/P","M","F","4","5c3374ba221fad0001cc47aa","06/27/2022, 07:13:32",0.341315729923493,"34","F","right",1,1,0,0,FALSE,"E_C_M_mushonov.jpg P_P_F_shaked.jpg"
2476,"E_M_M_tavori.jpg","P_P_M_peretz.jpg","FALSE","pictures/stimuli/E","pictures/stimuli/P","M","M","2","5c3374ba221fad0001cc47aa","06/27/2022, 07:13:32",-1.51154108966119,"34","F","right",1,1,0,0,FALSE,"E_M_M_tavori.jpg P_P_M_peretz.jpg"
3662,"E_C_M_mushonov.jpg","P_P_M_liberman.jpg","FALSE","pictures/stimuli/E","pictures/stimuli/P","M","M","3","5c3374ba221fad0001cc47aa","06/27/2022, 07:13:32",-0.585112679868846,"34","F","right",1,1,0,0,FALSE,"E_C_M_mushonov.jpg P_P_M_liberman.jpg"
5802,"E_M_M_Ivri.jpg","P_P_M_benet.jpg","FALSE","pictures/stimuli/E","pictures/stimuli/P","M","M","4","5c3374ba221fad0001cc47aa","06/27/2022, 07:13:32",0.341315729923493,"34","F","right",1,1,0,0,FALSE,"E_M_M_Ivri.jpg P_P_M_benet.jpg"
2218,"E_C_M_alfi.jpg","P_P_M_liberman.jpg","FALSE","pictures/stimuli/E","pictures/stimuli/P","M","M","3","5c3374ba221fad0001cc47aa","06/27/2022, 07:13:32",-0.585112679868846,"34","F","right",1,1,0,0,FALSE,"E_C_M_alfi.jpg P_P_M_liberman.jpg"
3488,"E_C_M_alfi.jpg","E_M_M_tavori.jpg","TRUE","pictures/stimuli/E","pictures/stimuli/E","M","M","1","5c3374ba221fad0001cc47aa","06/27/2022, 07:13:32",-2.43796949945353,"34","F","right",1,1,0,0,FALSE,"E_C_M_alfi.jpg E_M_M_tavori.jpg"
3102,"P_P_F_shaked.jpg","P_P_M_zamir.jpg","TRUE","pictures/stimuli/P","pictures/stimuli/P","F","M","5","5c3374ba221fad0001cc47aa","06/27/2022, 07:13:32",1.26774413971583,"34","F","right",1,1,0,0,FALSE,"P_P_F_shaked.jpg P_P_M_zamir.jpg"
3289,"P_P_M_liberman.jpg","P_P_M_smootrich.jpg","TRUE","pictures/stimuli/P","pictures/stimuli/P","M","M","4","5c3374ba221fad0001cc47aa","06/27/2022, 07:13:32",0.341315729923493,"34","F","right",1,1,0,0,FALSE,"P_P_M_liberman.jpg P_P_M_smootrich.jpg"
2666,"E_H_F_yanai.jpg","P_P_F_michaeliM.jpg","FALSE","pictures/stimuli/E","pictures/stimuli/P","F","F","4","5c3374ba221fad0001cc47aa","06/27/2022, 07:13:32",0.341315729923493,"34","F","right",1,1,0,0,FALSE,"E_H_F_yanai.jpg P_P_F_michaeliM.jpg"
3566,"E_C_M_alfi.jpg","E_C_M_mushonov.jpg","TRUE","pictures/stimuli/E","pictures/stimuli/E","M","M","4","5c3374ba221fad0001cc47aa","06/27/2022, 07:13:32",0.341315729923493,"34","F","right",1,1,0,0,FALSE,"E_C_M_alfi.jpg E_C_M_mushonov.jpg"
1669,"E_M_F_rita.jpg","E_C_F_shaniCo.jpg","TRUE","pictures/stimuli/E","pictures/stimuli/E","F","F","2","5c3374ba221fad0001cc47aa","06/27/2022, 07:13:32",-1.51154108966119,"34","F","right",1,1,0,0,FALSE,"E_C_F_shaniCo.jpg E_M_F_rita.jpg"
1787,"E_C_M_katorza.jpg","E_M_F_rita.jpg","TRUE","pictures/stimuli/E","pictures/stimuli/E","M","F","2","5c3374ba221fad0001cc47aa","06/27/2022, 07:13:32",-1.51154108966119,"34","F","right",1,1,0,0,FALSE,"E_C_M_katorza.jpg E_M_F_rita.jpg"
3385,"E_C_M_alfi.jpg","E_M_M_Ivri.jpg","TRUE","pictures/stimuli/E","pictures/stimuli/E","M","M","3","5c3374ba221fad0001cc47aa","06/27/2022, 07:13:32",-0.585112679868846,"34","F","right",1,1,0,0,FALSE,"E_C_M_alfi.jpg E_M_M_Ivri.jpg"
3666,"E_C_M_alfi.jpg","E_C_F_ornaBanai.jpg","TRUE","pictures/stimuli/E","pictures/stimuli/E","M","F","3","5c3374ba221fad0001cc47aa","06/27/2022, 07:13:32",-0.585112679868846,"34","F","right",1,1,0,0,FALSE,"E_C_F_ornaBanai.jpg E_C_M_alfi.jpg"
2232,"E_C_F_harLev.jpg","E_C_F_ornaBanai.jpg","TRUE","pictures/stimuli/E","pictures/stimuli/E","F","F","2","5c3374ba221fad0001cc47aa","06/27/2022, 07:13:32",-1.51154108966119,"34","F","right",1,1,0,0,FALSE,"E_C_F_harLev.jpg E_C_F_ornaBanai.jpg"
4113,"P_P_M_smootrich.jpg","P_P_M_zamir.jpg","TRUE","pictures/stimuli/P","pictures/stimuli/P","M","M","2","5c3374ba221fad0001cc47aa","06/27/2022, 07:13:32",-1.51154108966119,"34","F","right",1,1,0,0,FALSE,"P_P_M_smootrich.jpg P_P_M_zamir.jpg"
22810,"E_C_F_harLev.jpg","E_C_F_shaniCo.jpg","TRUE","pictures/stimuli/E","pictures/stimuli/E","F","F","2","5c3374ba221fad0001cc47aa","06/27/2022, 07:13:32",-1.51154108966119,"34","F","right",1,1,0,0,FALSE,"E_C_F_harLev.jpg E_C_F_shaniCo.jpg"
1754,"E_C_F_shaniCo.jpg","P_P_M_smootrich.jpg","FALSE","pictures/stimuli/E","pictures/stimuli/P","F","M","4","5c3374ba221fad0001cc47aa","06/27/2022, 07:13:32",0.341315729923493,"34","F","right",1,1,0,0,FALSE,"E_C_F_shaniCo.jpg P_P_M_smootrich.jpg"
2332,"E_M_M_tavori.jpg","P_N_F_yehimovitz.jpg","FALSE","pictures/stimuli/E","pictures/stimuli/P","M","F","5","5c3374ba221fad0001cc47aa","06/27/2022, 07:13:32",1.26774413971583,"34","F","right",1,1,0,0,FALSE,"E_M_M_tavori.jpg P_N_F_yehimovitz.jpg"
1968,"P_P_M_benet.jpg","P_P_M_zamir.jpg","TRUE","pictures/stimuli/P","pictures/stimuli/P","M","M","3","5c3374ba221fad0001cc47aa","06/27/2022, 07:13:32",-0.585112679868846,"34","F","right",1,1,0,0,FALSE,"P_P_M_benet.jpg P_P_M_zamir.jpg"
3894,"E_C_M_shaharHasson.jpg","P_P_M_smootrich.jpg","FALSE","pictures/stimuli/E","pictures/stimuli/P","M","M","4","5c3374ba221fad0001cc47aa","06/27/2022, 07:13:32",0.341315729923493,"34","F","right",1,1,0,0,FALSE,"E_C_M_shaharHasson.jpg P_P_M_smootrich.jpg"
1524,"E_M_M_Ivri.jpg","E_C_M_mushonov.jpg","TRUE","pictures/stimuli/E","pictures/stimuli/E","M","M","3","5c3374ba221fad0001cc47aa","06/27/2022, 07:13:32",-0.585112679868846,"34","F","right",1,1,0,0,FALSE,"E_C_M_mushonov.jpg E_M_M_Ivri.jpg"
2922,"E_M_F_rita.jpg","P_P_M_peretz.jpg","FALSE","pictures/stimuli/E","pictures/stimuli/P","F","M","3","5c3374ba221fad0001cc47aa","06/27/2022, 07:13:32",-0.585112679868846,"34","F","right",1,1,0,0,FALSE,"E_M_F_rita.jpg P_P_M_peretz.jpg"
2288,"E_C_F_harLev.jpg","E_C_M_mushonov.jpg","TRUE","pictures/stimuli/E","pictures/stimuli/E","F","M","4","5c3374ba221fad0001cc47aa","06/27/2022, 07:13:32",0.341315729923493,"34","F","right",1,1,0,0,FALSE,"E_C_F_harLev.jpg E_C_M_mushonov.jpg"
6342,"E_C_F_shaniCo.jpg","E_H_F_yanai.jpg","TRUE","pictures/stimuli/E","pictures/stimuli/E","F","F","3","5c3374ba221fad0001cc47aa","06/27/2022, 07:13:32",-0.585112679868846,"34","F","right",1,1,0,0,FALSE,"E_C_F_shaniCo.jpg E_H_F_yanai.jpg"
2206,"E_M_F_rita.jpg","P_P_M_benet.jpg","FALSE","pictures/stimuli/E","pictures/stimuli/P","F","M","5","5c3374ba221fad0001cc47aa","06/27/2022, 07:13:32",1.26774413971583,"34","F","right",1,1,0,0,FALSE,"E_M_F_rita.jpg P_P_M_benet.jpg"
3552,"E_M_F_rita.jpg","E_M_M_tavori.jpg","TRUE","pictures/stimuli/E","pictures/stimuli/E","F","M","4","5c3374ba221fad0001cc47aa","06/27/2022, 07:13:32",0.341315729923493,"34","F","right",1,1,0,0,FALSE,"E_M_F_rita.jpg E_M_M_tavori.jpg"
3183,"E_M_M_Ivri.jpg","P_P_M_zamir.jpg","FALSE","pictures/stimuli/E","pictures/stimuli/P","M","M","2","5c3374ba221fad0001cc47aa","06/27/2022, 07:13:32",-1.51154108966119,"34","F","right",1,1,0,0,FALSE,"E_M_M_Ivri.jpg P_P_M_zamir.jpg"
2787,"E_C_M_shaharHasson.jpg","P_N_F_yehimovitz.jpg","FALSE","pictures/stimuli/E","pictures/stimuli/P","M","F","4","5c3374ba221fad0001cc47aa","06/27/2022, 07:13:32",0.341315729923493,"34","F","right",1,1,0,0,FALSE,"E_C_M_shaharHasson.jpg P_N_F_yehimovitz.jpg"
2825,"E_M_M_Ivri.jpg","E_H_F_yanai.jpg","TRUE","pictures/stimuli/E","pictures/stimuli/E","M","F","3","5c3374ba221fad0001cc47aa","06/27/2022, 07:13:32",-0.585112679868846,"34","F","right",1,1,0,0,FALSE,"E_H_F_yanai.jpg E_M_M_Ivri.jpg"
5414,"E_C_F_ornaBanai.jpg","P_N_F_yehimovitz.jpg","FALSE","pictures/stimuli/E","pictures/stimuli/P","F","F","3","5c3374ba221fad0001cc47aa","06/27/2022, 07:13:32",-0.585112679868846,"34","F","right",1,1,0,0,FALSE,"E_C_F_ornaBanai.jpg P_N_F_yehimovitz.jpg"
2299,"E_M_M_tavori.jpg","P_P_F_shaked.jpg","FALSE","pictures/stimuli/E","pictures/stimuli/P","M","F","4","5c3374ba221fad0001cc47aa","06/27/2022, 07:13:32",0.341315729923493,"34","F","right",1,1,0,0,FALSE,"E_M_M_tavori.jpg P_P_F_shaked.jpg"
1292,"P_P_F_shaked.jpg","P_P_M_smootrich.jpg","TRUE","pictures/stimuli/P","pictures/stimuli/P","F","M","4","5c3374ba221fad0001cc47aa","06/27/2022, 07:13:32",0.341315729923493,"34","F","right",1,1,0,0,FALSE,"P_P_F_shaked.jpg P_P_M_smootrich.jpg"
3046,"E_C_F_shaniCo.jpg","P_P_M_benet.jpg","FALSE","pictures/stimuli/E","pictures/stimuli/P","F","M","5","5c3374ba221fad0001cc47aa","06/27/2022, 07:13:32",1.26774413971583,"34","F","right",1,1,0,0,FALSE,"E_C_F_shaniCo.jpg P_P_M_benet.jpg"
2456,"P_P_F_michaeliM.jpg","P_P_M_smootrich.jpg","TRUE","pictures/stimuli/P","pictures/stimuli/P","F","M","3","5c3374ba221fad0001cc47aa","06/27/2022, 07:13:32",-0.585112679868846,"34","F","right",1,1,0,0,FALSE,"P_P_F_michaeliM.jpg P_P_M_smootrich.jpg"
4744,"E_C_M_alfi.jpg","P_P_M_benet.jpg","FALSE","pictures/stimuli/E","pictures/stimuli/P","M","M","4","5c3374ba221fad0001cc47aa","06/27/2022, 07:13:32",0.341315729923493,"34","F","right",1,1,0,0,FALSE,"E_C_M_alfi.jpg P_P_M_benet.jpg"
2169,"E_C_M_mushonov.jpg","E_M_M_tavori.jpg","TRUE","pictures/stimuli/E","pictures/stimuli/E","M","M","4","5c3374ba221fad0001cc47aa","06/27/2022, 07:13:32",0.341315729923493,"34","F","right",1,1,0,0,FALSE,"E_C_M_mushonov.jpg E_M_M_tavori.jpg"
1462,"E_M_M_tavori.jpg","P_P_M_benet.jpg","FALSE","pictures/stimuli/E","pictures/stimuli/P","M","M","4","5c3374ba221fad0001cc47aa","06/27/2022, 07:13:32",0.341315729923493,"34","F","right",1,1,0,0,FALSE,"E_M_M_tavori.jpg P_P_M_benet.jpg"
2165,"E_M_M_tavori.jpg","P_P_M_smootrich.jpg","FALSE","pictures/stimuli/E","pictures/stimuli/P","M","M","5","5c3374ba221fad0001cc47aa","06/27/2022, 07:13:32",1.26774413971583,"34","F","right",1,1,0,0,FALSE,"E_M_M_tavori.jpg P_P_M_smootrich.jpg"
2844,"E_C_M_alfi.jpg","E_H_F_yanai.jpg","TRUE","pictures/stimuli/E","pictures/stimuli/E","M","F","5","5c3374ba221fad0001cc47aa","06/27/2022, 07:13:32",1.26774413971583,"34","F","right",1,1,0,0,FALSE,"E_C_M_alfi.jpg E_H_F_yanai.jpg"
1962,"E_M_M_Ivri.jpg","P_P_F_michaeliM.jpg","FALSE","pictures/stimuli/E","pictures/stimuli/P","M","F","3","5c3374ba221fad0001cc47aa","06/27/2022, 07:13:32",-0.585112679868846,"34","F","right",1,1,0,0,FALSE,"E_M_M_Ivri.jpg P_P_F_michaeliM.jpg"
1682,"E_H_F_yanai.jpg","P_P_M_liberman.jpg","FALSE","pictures/stimuli/E","pictures/stimuli/P","F","M","4","5c3374ba221fad0001cc47aa","06/27/2022, 07:13:32",0.341315729923493,"34","F","right",1,1,0,0,FALSE,"E_H_F_yanai.jpg P_P_M_liberman.jpg"
1744,"E_M_F_rita.jpg","P_P_M_liberman.jpg","FALSE","pictures/stimuli/E","pictures/stimuli/P","F","M","2","5c3374ba221fad0001cc47aa","06/27/2022, 07:13:32",-1.51154108966119,"34","F","right",1,1,0,0,FALSE,"E_M_F_rita.jpg P_P_M_liberman.jpg"
3053,"E_C_M_katorza.jpg","E_C_M_shaharHasson.jpg","TRUE","pictures/stimuli/E","pictures/stimuli/E","M","M","2","5c3374ba221fad0001cc47aa","06/27/2022, 07:13:32",-1.51154108966119,"34","F","right",1,1,0,0,FALSE,"E_C_M_katorza.jpg E_C_M_shaharHasson.jpg"
1663,"E_C_M_katorza.jpg","P_P_F_michaeliM.jpg","FALSE","pictures/stimuli/E","pictures/stimuli/P","M","F","3","5c3374ba221fad0001cc47aa","06/27/2022, 07:13:32",-0.585112679868846,"34","F","right",1,1,0,0,FALSE,"E_C_M_katorza.jpg P_P_F_michaeliM.jpg"
3143,"E_C_M_katorza.jpg","E_C_F_harLev.jpg","TRUE","pictures/stimuli/E","pictures/stimuli/E","M","F","3","5c3374ba221fad0001cc47aa","06/27/2022, 07:13:32",-0.585112679868846,"34","F","right",1,1,0,0,FALSE,"E_C_F_harLev.jpg E_C_M_katorza.jpg"
2224,"E_C_M_shaharHasson.jpg","E_C_M_mushonov.jpg","TRUE","pictures/stimuli/E","pictures/stimuli/E","M","M","4","5c3374ba221fad0001cc47aa","06/27/2022, 07:13:32",0.341315729923493,"34","F","right",1,1,0,0,FALSE,"E_C_M_mushonov.jpg E_C_M_shaharHasson.jpg"
1707,"E_M_M_Ivri.jpg","E_M_F_rita.jpg","TRUE","pictures/stimuli/E","pictures/stimuli/E","M","F","3","5c3374ba221fad0001cc47aa","06/27/2022, 07:13:32",-0.585112679868846,"34","F","right",1,1,0,0,FALSE,"E_M_F_rita.jpg E_M_M_Ivri.jpg"
27218,"P_P_M_benet.jpg","P_P_M_liberman.jpg","TRUE","pictures/stimuli/P","pictures/stimuli/P","M","M","4","5c3374ba221fad0001cc47aa","06/27/2022, 07:13:32",0.341315729923493,"34","F","right",1,1,0,0,FALSE,"P_P_M_benet.jpg P_P_M_liberman.jpg"
3143,"E_C_M_shaharHasson.jpg","P_P_M_peretz.jpg","FALSE","pictures/stimuli/E","pictures/stimuli/P","M","M","4","5c3374ba221fad0001cc47aa","06/27/2022, 07:13:32",0.341315729923493,"34","F","right",1,1,0,0,FALSE,"E_C_M_shaharHasson.jpg P_P_M_peretz.jpg"
2515,"E_C_M_mushonov.jpg","P_P_M_smootrich.jpg","FALSE","pictures/stimuli/E","pictures/stimuli/P","M","M","5","5c3374ba221fad0001cc47aa","06/27/2022, 07:13:32",1.26774413971583,"34","F","right",1,1,0,0,FALSE,"E_C_M_mushonov.jpg P_P_M_smootrich.jpg"
4624,"E_C_M_shaharHasson.jpg","E_C_F_shaniCo.jpg","TRUE","pictures/stimuli/E","pictures/stimuli/E","M","F","3","5c3374ba221fad0001cc47aa","06/27/2022, 07:13:32",-0.585112679868846,"34","F","right",1,1,0,0,FALSE,"E_C_F_shaniCo.jpg E_C_M_shaharHasson.jpg"
4934,"P_P_M_peretz.jpg","P_P_M_zamir.jpg","TRUE","pictures/stimuli/P","pictures/stimuli/P","M","M","4","5c3374ba221fad0001cc47aa","06/27/2022, 07:13:32",0.341315729923493,"34","F","right",1,1,0,0,FALSE,"P_P_M_peretz.jpg P_P_M_zamir.jpg"
2551,"E_C_F_ornaBanai.jpg","E_C_F_shaniCo.jpg","TRUE","pictures/stimuli/E","pictures/stimuli/E","F","F","3","5c3374ba221fad0001cc47aa","06/27/2022, 07:13:32",-0.585112679868846,"34","F","right",1,1,0,0,FALSE,"E_C_F_ornaBanai.jpg E_C_F_shaniCo.jpg"
1901,"E_C_F_ornaBanai.jpg","P_N_M_lapid.jpg","FALSE","pictures/stimuli/E","pictures/stimuli/P","F","M","4","5c3374ba221fad0001cc47aa","06/27/2022, 07:13:32",0.341315729923493,"34","F","right",1,1,0,0,FALSE,"E_C_F_ornaBanai.jpg P_N_M_lapid.jpg"
5803,"E_C_M_katorza.jpg","E_H_F_yanai.jpg","TRUE","pictures/stimuli/E","pictures/stimuli/E","M","F","5","5c3374ba221fad0001cc47aa","06/27/2022, 07:13:32",1.26774413971583,"34","F","right",1,1,0,0,FALSE,"E_C_M_katorza.jpg E_H_F_yanai.jpg"
2011,"E_C_F_harLev.jpg","P_P_F_michaeliM.jpg","FALSE","pictures/stimuli/E","pictures/stimuli/P","F","F","2","5c3374ba221fad0001cc47aa","06/27/2022, 07:13:32",-1.51154108966119,"34","F","right",1,1,0,0,FALSE,"E_C_F_harLev.jpg P_P_F_michaeliM.jpg"
3400,"P_P_F_michaeliM.jpg","P_P_M_zamir.jpg","TRUE","pictures/stimuli/P","pictures/stimuli/P","F","M","3","5c3374ba221fad0001cc47aa","06/27/2022, 07:13:32",-0.585112679868846,"34","F","right",1,1,0,0,FALSE,"P_P_F_michaeliM.jpg P_P_M_zamir.jpg"
2141,"E_H_F_yanai.jpg","P_P_M_zamir.jpg","FALSE","pictures/stimuli/E","pictures/stimuli/P","F","M","3","5c3374ba221fad0001cc47aa","06/27/2022, 07:13:32",-0.585112679868846,"34","F","right",1,1,0,0,FALSE,"E_H_F_yanai.jpg P_P_M_zamir.jpg"
2114,"P_P_F_michaeliM.jpg","P_P_M_peretz.jpg","TRUE","pictures/stimuli/P","pictures/stimuli/P","F","M","4","5c3374ba221fad0001cc47aa","06/27/2022, 07:13:32",0.341315729923493,"34","F","right",1,1,0,0,FALSE,"P_P_F_michaeliM.jpg P_P_M_peretz.jpg"
4323,"P_P_M_liberman.jpg","P_P_F_shaked.jpg","TRUE","pictures/stimuli/P","pictures/stimuli/P","M","F","5","5c3374ba221fad0001cc47aa","06/27/2022, 07:13:32",1.26774413971583,"34","F","right",1,1,0,0,FALSE,"P_P_F_shaked.jpg P_P_M_liberman.jpg"
2317,"E_C_M_shaharHasson.jpg","E_M_M_Ivri.jpg","TRUE","pictures/stimuli/E","pictures/stimuli/E","M","M","3","5c3374ba221fad0001cc47aa","06/27/2022, 07:13:32",-0.585112679868846,"34","F","right",1,1,0,0,FALSE,"E_C_M_shaharHasson.jpg E_M_M_Ivri.jpg"
2581,"P_P_M_smootrich.jpg","P_N_F_yehimovitz.jpg","TRUE","pictures/stimuli/P","pictures/stimuli/P","M","F","5","5c3374ba221fad0001cc47aa","06/27/2022, 07:13:32",1.26774413971583,"34","F","right",1,1,0,0,FALSE,"P_N_F_yehimovitz.jpg P_P_M_smootrich.jpg"
2454,"E_M_F_rita.jpg","P_P_F_michaeliM.jpg","FALSE","pictures/stimuli/E","pictures/stimuli/P","F","F","2","5c3374ba221fad0001cc47aa","06/27/2022, 07:13:32",-1.51154108966119,"34","F","right",1,1,0,0,FALSE,"E_M_F_rita.jpg P_P_F_michaeliM.jpg"
2645,"E_C_M_alfi.jpg","E_C_M_shaharHasson.jpg","TRUE","pictures/stimuli/E","pictures/stimuli/E","M","M","3","5c3374ba221fad0001cc47aa","06/27/2022, 07:13:32",-0.585112679868846,"34","F","right",1,1,0,0,FALSE,"E_C_M_alfi.jpg E_C_M_shaharHasson.jpg"
1675,"E_C_M_alfi.jpg","E_C_F_shaniCo.jpg","TRUE","pictures/stimuli/E","pictures/stimuli/E","M","F","4","5c3374ba221fad0001cc47aa","06/27/2022, 07:13:32",0.341315729923493,"34","F","right",1,1,0,0,FALSE,"E_C_F_shaniCo.jpg E_C_M_alfi.jpg"
3193,"E_M_M_tavori.jpg","E_H_F_yanai.jpg","TRUE","pictures/stimuli/E","pictures/stimuli/E","M","F","6","5c3374ba221fad0001cc47aa","06/27/2022, 07:13:32",2.19417254950817,"34","F","right",1,1,0,0,FALSE,"E_H_F_yanai.jpg E_M_M_tavori.jpg"
2192,"E_C_M_katorza.jpg","P_P_M_smootrich.jpg","FALSE","pictures/stimuli/E","pictures/stimuli/P","M","M","4","5c3374ba221fad0001cc47aa","06/27/2022, 07:13:32",0.341315729923493,"34","F","right",1,1,0,0,FALSE,"E_C_M_katorza.jpg P_P_M_smootrich.jpg"
2288,"E_C_M_alfi.jpg","P_N_F_yehimovitz.jpg","FALSE","pictures/stimuli/E","pictures/stimuli/P","M","F","5","5c3374ba221fad0001cc47aa","06/27/2022, 07:13:32",1.26774413971583,"34","F","right",1,1,0,0,FALSE,"E_C_M_alfi.jpg P_N_F_yehimovitz.jpg"
3101,"P_P_M_liberman.jpg","P_P_F_michaeliM.jpg","TRUE","pictures/stimuli/P","pictures/stimuli/P","M","F","4","5c3374ba221fad0001cc47aa","06/27/2022, 07:13:32",0.341315729923493,"34","F","right",1,1,0,0,FALSE,"P_P_F_michaeliM.jpg P_P_M_liberman.jpg"
2764,"E_H_F_yanai.jpg","P_N_F_yehimovitz.jpg","FALSE","pictures/stimuli/E","pictures/stimuli/P","F","F","3","5c3374ba221fad0001cc47aa","06/27/2022, 07:13:32",-0.585112679868846,"34","F","right",1,1,0,0,FALSE,"E_H_F_yanai.jpg P_N_F_yehimovitz.jpg"
14117,"E_C_M_shaharHasson.jpg","E_H_F_yanai.jpg","TRUE","pictures/stimuli/E","pictures/stimuli/E","M","F","4","5c3374ba221fad0001cc47aa","06/27/2022, 07:13:32",0.341315729923493,"34","F","right",1,1,0,0,FALSE,"E_C_M_shaharHasson.jpg E_H_F_yanai.jpg"
1552,"E_C_F_harLev.jpg","P_P_M_benet.jpg","FALSE","pictures/stimuli/E","pictures/stimuli/P","F","M","5","5c3374ba221fad0001cc47aa","06/27/2022, 07:13:32",1.26774413971583,"34","F","right",1,1,0,0,FALSE,"E_C_F_harLev.jpg P_P_M_benet.jpg"
1976,"E_C_F_harLev.jpg","P_N_M_lapid.jpg","FALSE","pictures/stimuli/E","pictures/stimuli/P","F","M","5","5c3374ba221fad0001cc47aa","06/27/2022, 07:13:32",1.26774413971583,"34","F","right",1,1,0,0,FALSE,"E_C_F_harLev.jpg P_N_M_lapid.jpg"
2239,"P_N_M_lapid.jpg","P_P_M_zamir.jpg","TRUE","pictures/stimuli/P","pictures/stimuli/P","M","M","3","5c3374ba221fad0001cc47aa","06/27/2022, 07:13:32",-0.585112679868846,"34","F","right",1,1,0,0,FALSE,"P_N_M_lapid.jpg P_P_M_zamir.jpg"
1909,"E_C_F_shaniCo.jpg","P_P_F_michaeliM.jpg","FALSE","pictures/stimuli/E","pictures/stimuli/P","F","F","3","5c3374ba221fad0001cc47aa","06/27/2022, 07:13:32",-0.585112679868846,"34","F","right",1,1,0,0,FALSE,"E_C_F_shaniCo.jpg P_P_F_michaeliM.jpg"
5839,"P_P_M_peretz.jpg","P_N_F_yehimovitz.jpg","TRUE","pictures/stimuli/P","pictures/stimuli/P","M","F","4","5c3374ba221fad0001cc47aa","06/27/2022, 07:13:32",0.341315729923493,"34","F","right",1,1,0,0,FALSE,"P_N_F_yehimovitz.jpg P_P_M_peretz.jpg"
5509,"E_M_M_Ivri.jpg","P_P_M_peretz.jpg","FALSE","pictures/stimuli/E","pictures/stimuli/P","M","M","4","5c3374ba221fad0001cc47aa","06/27/2022, 07:13:32",0.341315729923493,"34","F","right",1,1,0,0,FALSE,"E_M_M_Ivri.jpg P_P_M_peretz.jpg"
2186,"E_C_F_shaniCo.jpg","P_P_M_liberman.jpg","FALSE","pictures/stimuli/E","pictures/stimuli/P","F","M","5","5c3374ba221fad0001cc47aa","06/27/2022, 07:13:32",1.26774413971583,"34","F","right",1,1,0,0,FALSE,"E_C_F_shaniCo.jpg P_P_M_liberman.jpg"
1869,"E_C_M_alfi.jpg","P_P_M_zamir.jpg","FALSE","pictures/stimuli/E","pictures/stimuli/P","M","M","3","5c3374ba221fad0001cc47aa","06/27/2022, 07:13:32",-0.585112679868846,"34","F","right",1,1,0,0,FALSE,"E_C_M_alfi.jpg P_P_M_zamir.jpg"
2350,"E_H_F_yanai.jpg","P_P_M_smootrich.jpg","FALSE","pictures/stimuli/E","pictures/stimuli/P","F","M","6","5c3374ba221fad0001cc47aa","06/27/2022, 07:13:32",2.19417254950817,"34","F","right",1,1,0,0,FALSE,"E_H_F_yanai.jpg P_P_M_smootrich.jpg"
2283,"E_C_F_ornaBanai.jpg","P_P_M_liberman.jpg","FALSE","pictures/stimuli/E","pictures/stimuli/P","F","M","5","5c3374ba221fad0001cc47aa","06/27/2022, 07:13:32",1.26774413971583,"34","F","right",1,1,0,0,FALSE,"E_C_F_ornaBanai.jpg P_P_M_liberman.jpg"
11111,"E_C_F_harLev.jpg","E_H_F_yanai.jpg","TRUE","pictures/stimuli/E","pictures/stimuli/E","F","F","6","5c460444c173f7000187ad06","08/06/2022, 16:49:10",0.409467243930676,"20","M","right",1,1,0,0,FALSE,"E_C_F_harLev.jpg E_H_F_yanai.jpg"
6146,"E_C_M_shaharHasson.jpg","E_M_M_Ivri.jpg","TRUE","pictures/stimuli/E","pictures/stimuli/E","M","M","3","5c460444c173f7000187ad06","08/06/2022, 16:49:10",-2.58279338479349,"20","M","right",1,1,0,0,FALSE,"E_C_M_shaharHasson.jpg E_M_M_Ivri.jpg"
4975,"E_C_M_shaharHasson.jpg","P_N_F_yehimovitz.jpg","FALSE","pictures/stimuli/E","pictures/stimuli/P","M","F","6","5c460444c173f7000187ad06","08/06/2022, 16:49:10",0.409467243930676,"20","M","right",1,1,0,0,FALSE,"E_C_M_shaharHasson.jpg P_N_F_yehimovitz.jpg"
3106,"E_M_F_rita.jpg","P_N_F_yehimovitz.jpg","FALSE","pictures/stimuli/E","pictures/stimuli/P","F","F","6","5c460444c173f7000187ad06","08/06/2022, 16:49:10",0.409467243930676,"20","M","right",1,1,0,0,FALSE,"E_M_F_rita.jpg P_N_F_yehimovitz.jpg"
2872,"P_P_M_liberman.jpg","P_P_M_zamir.jpg","TRUE","pictures/stimuli/P","pictures/stimuli/P","M","M","6","5c460444c173f7000187ad06","08/06/2022, 16:49:10",0.409467243930676,"20","M","right",1,1,0,0,FALSE,"P_P_M_liberman.jpg P_P_M_zamir.jpg"
4709,"E_C_M_mushonov.jpg","P_P_M_liberman.jpg","FALSE","pictures/stimuli/E","pictures/stimuli/P","M","M","6","5c460444c173f7000187ad06","08/06/2022, 16:49:10",0.409467243930676,"20","M","right",1,1,0,0,FALSE,"E_C_M_mushonov.jpg P_P_M_liberman.jpg"
4397,"E_M_F_rita.jpg","P_P_F_shaked.jpg","FALSE","pictures/stimuli/E","pictures/stimuli/P","F","F","6","5c460444c173f7000187ad06","08/06/2022, 16:49:10",0.409467243930676,"20","M","right",1,1,0,0,FALSE,"E_M_F_rita.jpg P_P_F_shaked.jpg"
2103,"E_C_F_harLev.jpg","P_P_M_benet.jpg","FALSE","pictures/stimuli/E","pictures/stimuli/P","F","M","6","5c460444c173f7000187ad06","08/06/2022, 16:49:10",0.409467243930676,"20","M","right",1,1,0,0,FALSE,"E_C_F_harLev.jpg P_P_M_benet.jpg"
2643,"E_M_M_Ivri.jpg","P_P_F_michaeliM.jpg","FALSE","pictures/stimuli/E","pictures/stimuli/P","M","F","6","5c460444c173f7000187ad06","08/06/2022, 16:49:10",0.409467243930676,"20","M","right",1,1,0,0,FALSE,"E_M_M_Ivri.jpg P_P_F_michaeliM.jpg"
2499,"P_P_F_michaeliM.jpg","P_P_M_zamir.jpg","TRUE","pictures/stimuli/P","pictures/stimuli/P","F","M","6","5c460444c173f7000187ad06","08/06/2022, 16:49:10",0.409467243930676,"20","M","right",1,1,0,0,FALSE,"P_P_F_michaeliM.jpg P_P_M_zamir.jpg"
3708,"E_C_F_shaniCo.jpg","P_P_M_benet.jpg","FALSE","pictures/stimuli/E","pictures/stimuli/P","F","M","6","5c460444c173f7000187ad06","08/06/2022, 16:49:10",0.409467243930676,"20","M","right",1,1,0,0,FALSE,"E_C_F_shaniCo.jpg P_P_M_benet.jpg"
4994,"P_P_M_smootrich.jpg","P_P_M_zamir.jpg","TRUE","pictures/stimuli/P","pictures/stimuli/P","M","M","2","5c460444c173f7000187ad06","08/06/2022, 16:49:10",-3.58021359436822,"20","M","right",1,1,0,0,FALSE,"P_P_M_smootrich.jpg P_P_M_zamir.jpg"
2306,"E_C_F_shaniCo.jpg","P_P_M_peretz.jpg","FALSE","pictures/stimuli/E","pictures/stimuli/P","F","M","6","5c460444c173f7000187ad06","08/06/2022, 16:49:10",0.409467243930676,"20","M","right",1,1,0,0,FALSE,"E_C_F_shaniCo.jpg P_P_M_peretz.jpg"
5363,"E_C_F_ornaBanai.jpg","E_M_F_rita.jpg","TRUE","pictures/stimuli/E","pictures/stimuli/E","F","F","2","5c460444c173f7000187ad06","08/06/2022, 16:49:10",-3.58021359436822,"20","M","right",1,1,0,0,FALSE,"E_C_F_ornaBanai.jpg E_M_F_rita.jpg"
1993,"E_C_M_shaharHasson.jpg","P_P_F_shaked.jpg","FALSE","pictures/stimuli/E","pictures/stimuli/P","M","F","6","5c460444c173f7000187ad06","08/06/2022, 16:49:10",0.409467243930676,"20","M","right",1,1,0,0,FALSE,"E_C_M_shaharHasson.jpg P_P_F_shaked.jpg"
2856,"E_M_M_Ivri.jpg","P_P_M_zamir.jpg","FALSE","pictures/stimuli/E","pictures/stimuli/P","M","M","4","5c460444c173f7000187ad06","08/06/2022, 16:49:10",-1.58537317521877,"20","M","right",1,1,0,0,FALSE,"E_M_M_Ivri.jpg P_P_M_zamir.jpg"
1667,"P_N_F_yehimovitz.jpg","P_P_M_zamir.jpg","TRUE","pictures/stimuli/P","pictures/stimuli/P","F","M","6","5c460444c173f7000187ad06","08/06/2022, 16:49:10",0.409467243930676,"20","M","right",1,1,0,0,FALSE,"P_N_F_yehimovitz.jpg P_P_M_zamir.jpg"
2809,"E_C_M_alfi.jpg","E_H_F_yanai.jpg","TRUE","pictures/stimuli/E","pictures/stimuli/E","M","F","6","5c460444c173f7000187ad06","08/06/2022, 16:49:10",0.409467243930676,"20","M","right",1,1,0,0,FALSE,"E_C_M_alfi.jpg E_H_F_yanai.jpg"
3427,"P_P_M_smootrich.jpg","P_N_F_yehimovitz.jpg","TRUE","pictures/stimuli/P","pictures/stimuli/P","M","F","6","5c460444c173f7000187ad06","08/06/2022, 16:49:10",0.409467243930676,"20","M","right",1,1,0,0,FALSE,"P_N_F_yehimovitz.jpg P_P_M_smootrich.jpg"
2911,"E_C_M_alfi.jpg","P_P_F_michaeliM.jpg","FALSE","pictures/stimuli/E","pictures/stimuli/P","M","F","6","5c460444c173f7000187ad06","08/06/2022, 16:49:10",0.409467243930676,"20","M","right",1,1,0,0,FALSE,"E_C_M_alfi.jpg P_P_F_michaeliM.jpg"
2739,"P_P_F_shaked.jpg","P_N_F_yehimovitz.jpg","TRUE","pictures/stimuli/P","pictures/stimuli/P","F","F","6","5c460444c173f7000187ad06","08/06/2022, 16:49:10",0.409467243930676,"20","M","right",1,1,0,0,FALSE,"P_N_F_yehimovitz.jpg P_P_F_shaked.jpg"
2762,"E_C_F_shaniCo.jpg","P_P_F_shaked.jpg","FALSE","pictures/stimuli/E","pictures/stimuli/P","F","F","6","5c460444c173f7000187ad06","08/06/2022, 16:49:10",0.409467243930676,"20","M","right",1,1,0,0,FALSE,"E_C_F_shaniCo.jpg P_P_F_shaked.jpg"
2452,"E_C_F_shaniCo.jpg","P_N_M_lapid.jpg","FALSE","pictures/stimuli/E","pictures/stimuli/P","F","M","6","5c460444c173f7000187ad06","08/06/2022, 16:49:10",0.409467243930676,"20","M","right",1,1,0,0,FALSE,"E_C_F_shaniCo.jpg P_N_M_lapid.jpg"
4269,"E_C_M_mushonov.jpg","E_M_M_tavori.jpg","TRUE","pictures/stimuli/E","pictures/stimuli/E","M","M","2","5c460444c173f7000187ad06","08/06/2022, 16:49:10",-3.58021359436822,"20","M","right",1,1,0,0,FALSE,"E_C_M_mushonov.jpg E_M_M_tavori.jpg"
4901,"E_C_M_shaharHasson.jpg","P_N_M_lapid.jpg","FALSE","pictures/stimuli/E","pictures/stimuli/P","M","M","6","5c460444c173f7000187ad06","08/06/2022, 16:49:10",0.409467243930676,"20","M","right",1,1,0,0,FALSE,"E_C_M_shaharHasson.jpg P_N_M_lapid.jpg"
2342,"E_M_M_tavori.jpg","P_P_F_shaked.jpg","FALSE","pictures/stimuli/E","pictures/stimuli/P","M","F","6","5c460444c173f7000187ad06","08/06/2022, 16:49:10",0.409467243930676,"20","M","right",1,1,0,0,FALSE,"E_M_M_tavori.jpg P_P_F_shaked.jpg"
15691,"E_C_M_alfi.jpg","E_C_M_katorza.jpg","TRUE","pictures/stimuli/E","pictures/stimuli/E","M","M","6","5c460444c173f7000187ad06","08/06/2022, 16:49:10",0.409467243930676,"20","M","right",1,1,0,0,FALSE,"E_C_M_alfi.jpg E_C_M_katorza.jpg"
1585,"E_C_F_harLev.jpg","P_P_M_smootrich.jpg","FALSE","pictures/stimuli/E","pictures/stimuli/P","F","M","6","5c460444c173f7000187ad06","08/06/2022, 16:49:10",0.409467243930676,"20","M","right",1,1,0,0,FALSE,"E_C_F_harLev.jpg P_P_M_smootrich.jpg"
2505,"E_C_M_katorza.jpg","E_C_F_harLev.jpg","TRUE","pictures/stimuli/E","pictures/stimuli/E","M","F","6","5c460444c173f7000187ad06","08/06/2022, 16:49:10",0.409467243930676,"20","M","right",1,1,0,0,FALSE,"E_C_F_harLev.jpg E_C_M_katorza.jpg"
2226,"E_C_F_ornaBanai.jpg","P_P_M_zamir.jpg","FALSE","pictures/stimuli/E","pictures/stimuli/P","F","M","6","5c460444c173f7000187ad06","08/06/2022, 16:49:10",0.409467243930676,"20","M","right",1,1,0,0,FALSE,"E_C_F_ornaBanai.jpg P_P_M_zamir.jpg"
3559,"E_M_F_rita.jpg","E_H_F_yanai.jpg","TRUE","pictures/stimuli/E","pictures/stimuli/E","F","F","5","5c460444c173f7000187ad06","08/06/2022, 16:49:10",-0.587952965644048,"20","M","right",1,1,0,0,FALSE,"E_H_F_yanai.jpg E_M_F_rita.jpg"
