"RT","img_1","img_2","isSameProffesion","img1proffesion","img2proffesion","img1Gender","img2Gender","keyPressed","participant","time","normlised_keyPress","age","gender","handedness","isFamiliar_img1","isFamiliar_img2","vividness_img1","vividness_img2","reject_trial","pair"
2561,"E_C_M_mushonov.jpg","E_C_F_shaniCo.jpg","TRUE","pictures/stimuli/E","pictures/stimuli/E","M","F","6","5a21800f8c1e5c0001715a21800f8c1e5c0001713d893d89","06/19/2022, 14:38:50",0.852575208372396,"23","Male","right",0,0,0,0,FALSE,"E_C_F_shaniCo.jpg E_C_M_mushonov.jpg"
3234,"E_C_M_katorza.jpg","E_H_F_yanai.jpg","TRUE","pictures/stimuli/E","pictures/stimuli/E","M","F","6","5a21800f8c1e5c0001715a21800f8c1e5c0001713d893d89","06/19/2022, 14:38:50",0.852575208372396,"23","Male","right",0,0,0,0,FALSE,"E_C_M_katorza.jpg E_H_F_yanai.jpg"
3528,"E_C_F_ornaBanai.jpg","P_N_M_lapid.jpg","FALSE","pictures/stimuli/E","pictures/stimuli/P","F","M","5","5a21800f8c1e5c0001715a21800f8c1e5c0001713d893d89","06/19/2022, 14:38:50",0.106080786295183,"23","Male","right",0,0,0,0,FALSE,"E_C_F_ornaBanai.jpg P_N_M_lapid.jpg"
1889,"P_P_M_peretz.jpg","P_P_F_shaked.jpg","TRUE","pictures/stimuli/P","pictures/stimuli/P","M","F","6","5a21800f8c1e5c0001715a21800f8c1e5c0001713d893d89","06/19/2022, 14:38:50",0.852575208372396,"23","Male","right",0,0,0,0,FALSE,"P_P_F_shaked.jpg P_P_M_peretz.jpg"
2941,"E_M_M_Ivri.jpg","P_N_M_lapid.jpg","FALSE","pictures/stimuli/E","pictures/stimuli/P","M","M","5","5a21800f8c1e5c0001715a21800f8c1e5c0001713d893d89","06/19/2022, 14:38:50",0.106080786295183,"23","Male","right",0,0,0,0,FALSE,"E_M_M_Ivri.jpg P_N_M_lapid.jpg"
4097,"E_M_M_Ivri.jpg","E_M_F_rita.jpg","TRUE","pictures/stimuli/E","pictures/stimuli/E","M","F","5","5a21800f8c1e5c0001715a21800f8c1e5c0001713d893d89","06/19/2022, 14:38:50",0.106080786295183,"23","Male","right",0,0,0,0,FALSE,"E_M_F_rita.jpg E_M_M_Ivri.jpg"
2011,"P_N_M_lapid.jpg","P_P_M_liberman.jpg","TRUE","pictures/stimuli/P","pictures/stimuli/P","M","M","6","5a21800f8c1e5c0001715a21800f8c1e5c0001713d893d89","06/19/2022, 14:38:50",0.852575208372396,"23","Male","right",0,0,0,0,FALSE,"P_N_M_lapid.jpg P_P_M_liberman.jpg"
3074,"P_P_M_benet.jpg","P_N_F_yehimovitz.jpg","TRUE","pictures/stimuli/P","pictures/stimuli/P","M","F","6","5a21800f8c1e5c0001715a21800f8c1e5c0001713d893d89","06/19/2022, 14:38:50",0.852575208372396,"23","Male","right",0,0,0,0,FALSE,"P_N_F_yehimovitz.jpg P_P_M_benet.jpg"
4318,"E_C_F_ornaBanai.jpg","P_P_F_shaked.jpg","FALSE","pictures/stimuli/E","pictures/stimuli/P","F","F","5","5a21800f8c1e5c0001715a21800f8c1e5c0001713d893d89","06/19/2022, 14:38:50",0.106080786295183,"23","Male","right",0,0,0,0,FALSE,"E_C_F_ornaBanai.jpg P_P_F_shaked.jpg"
1644,"E_M_M_Ivri.jpg","P_P_M_peretz.jpg","FALSE","pictures/stimuli/E","pictures/stimuli/P","M","M","6","5a21800f8c1e5c0001715a21800f8c1e5c0001713d893d89","06/19/2022, 14:38:50",0.852575208372396,"23","Male","right",0,0,0,0,FALSE,"E_M_M_Ivri.jpg P_P_M_peretz.jpg"
2884,"E_C_M_alfi.jpg","P_P_M_peretz.jpg","FALSE","pictures/stimuli/E","pictures/stimuli/P","M","M","5","5a21800f8c1e5c0001715a21800f8c1e5c0001713d893d89","06/19/2022, 14:38:50",0.106080786295183,"23","Male","right",0,0,0,0,FALSE,"E_C_M_alfi.jpg P_P_M_peretz.jpg"
2351,"E_H_F_yanai.jpg","P_P_M_peretz.jpg","FALSE","pictures/stimuli/E","pictures/stimuli/P","F","M","4","5a21800f8c1e5c0001715a21800f8c1e5c0001713d893d89","06/19/2022, 14:38:50",-0.640413635782031,"23","Male","right",0,0,0,0,FALSE,"E_H_F_yanai.jpg P_P_M_peretz.jpg"
2100,"E_C_F_shaniCo.jpg","P_P_M_smootrich.jpg","FALSE","pictures/stimuli/E","pictures/stimuli/P","F","M","6","5a21800f8c1e5c0001715a21800f8c1e5c0001713d893d89","06/19/2022, 14:38:50",0.852575208372396,"23","Male","right",0,0,0,0,FALSE,"E_C_F_shaniCo.jpg P_P_M_smootrich.jpg"
1722,"E_C_M_shaharHasson.jpg","E_H_F_yanai.jpg","TRUE","pictures/stimuli/E","pictures/stimuli/E","M","F","6","5a21800f8c1e5c0001715a21800f8c1e5c0001713d893d89","06/19/2022, 14:38:50",0.852575208372396,"23","Male","right",0,0,0,0,FALSE,"E_C_M_shaharHasson.jpg E_H_F_yanai.jpg"
2153,"E_C_M_alfi.jpg","P_P_M_liberman.jpg","FALSE","pictures/stimuli/E","pictures/stimuli/P","M","M","5","5a21800f8c1e5c0001715a21800f8c1e5c0001713d893d89","06/19/2022, 14:38:50",0.106080786295183,"23","Male","right",0,0,0,0,FALSE,"E_C_M_alfi.jpg P_P_M_liberman.jpg"
2387,"E_C_M_mushonov.jpg","E_M_M_tavori.jpg","TRUE","pictures/stimuli/E","pictures/stimuli/E","M","M","3","5a21800f8c1e5c0001715a21800f8c1e5c0001713d893d89","06/19/2022, 14:38:50",-1.38690805785924,"23","Male","right",0,0,0,0,FALSE,"E_C_M_mushonov.jpg E_M_M_tavori.jpg"
2702,"E_C_M_shaharHasson.jpg","E_C_M_mushonov.jpg","TRUE","pictures/stimuli/E","pictures/stimuli/E","M","M","4","5a21800f8c1e5c0001715a21800f8c1e5c0001713d893d89","06/19/2022, 14:38:50",-0.640413635782031,"23","Male","right",0,0,0,0,FALSE,"E_C_M_mushonov.jpg E_C_M_shaharHasson.jpg"
3547,"E_C_M_shaharHasson.jpg","P_P_M_zamir.jpg","FALSE","pictures/stimuli/E","pictures/stimuli/P","M","M","5","5a21800f8c1e5c0001715a21800f8c1e5c0001713d893d89","06/19/2022, 14:38:50",0.106080786295183,"23","Male","right",0,0,0,0,FALSE,"E_C_M_shaharHasson.jpg P_P_M_zamir.jpg"
1759,"E_M_M_Ivri.jpg","P_N_F_yehimovitz.jpg","FALSE","pictures/stimuli/E","pictures/stimuli/P","M","F","6","5a21800f8c1e5c0001715a21800f8c1e5c0001713d893d89","06/19/2022, 14:38:50",0.852575208372396,"23","Male","right",0,0,0,0,FALSE,"E_M_M_Ivri.jpg P_N_F_yehimovitz.jpg"
1282,"E_M_M_Ivri.jpg","E_H_F_yanai.jpg","TRUE","pictures/stimuli/E","pictures/stimuli/E","M","F","6","5a21800f8c1e5c0001715a21800f8c1e5c0001713d893d89","06/19/2022, 14:38:50",0.852575208372396,"23","Male","right",0,0,0,0,FALSE,"E_H_F_yanai.jpg E_M_M_Ivri.jpg"
3306,"E_M_M_tavori.jpg","P_P_M_zamir.jpg","FALSE","pictures/stimuli/E","pictures/stimuli/P","M","M","6","5a21800f8c1e5c0001715a21800f8c1e5c0001713d893d89","06/19/2022, 14:38:50",0.852575208372396,"23","Male","right",0,0,0,0,FALSE,"E_M_M_tavori.jpg P_P_M_zamir.jpg"
2748,"E_M_F_rita.jpg","P_N_F_yehimovitz.jpg","FALSE","pictures/stimuli/E","pictures/stimuli/P","F","F","5","5a21800f8c1e5c0001715a21800f8c1e5c0001713d893d89","06/19/2022, 14:38:50",0.106080786295183,"23","Male","right",0,0,0,0,FALSE,"E_M_F_rita.jpg P_N_F_yehimovitz.jpg"
1516,"E_M_M_tavori.jpg","P_P_F_shaked.jpg","FALSE","pictures/stimuli/E","pictures/stimuli/P","M","F","6","5a21800f8c1e5c0001715a21800f8c1e5c0001713d893d89","06/19/2022, 14:38:50",0.852575208372396,"23","Male","right",0,0,0,0,FALSE,"E_M_M_tavori.jpg P_P_F_shaked.jpg"
3395,"E_C_M_mushonov.jpg","P_P_M_benet.jpg","FALSE","pictures/stimuli/E","pictures/stimuli/P","M","M","5","5a21800f8c1e5c0001715a21800f8c1e5c0001713d893d89","06/19/2022, 14:38:50",0.106080786295183,"23","Male","right",0,0,0,0,FALSE,"E_C_M_mushonov.jpg P_P_M_benet.jpg"
2646,"E_M_M_tavori.jpg","P_P_M_peretz.jpg","FALSE","pictures/stimuli/E","pictures/stimuli/P","M","M","5","5a21800f8c1e5c0001715a21800f8c1e5c0001713d893d89","06/19/2022, 14:38:50",0.106080786295183,"23","Male","right",0,0,0,0,FALSE,"E_M_M_tavori.jpg P_P_M_peretz.jpg"
3012,"E_C_M_katorza.jpg","P_P_M_smootrich.jpg","FALSE","pictures/stimuli/E","pictures/stimuli/P","M","M","5","5a21800f8c1e5c0001715a21800f8c1e5c0001713d893d89","06/19/2022, 14:38:50",0.106080786295183,"23","Male","right",0,0,0,0,FALSE,"E_C_M_katorza.jpg P_P_M_smootrich.jpg"
1645,"E_M_M_Ivri.jpg","P_P_F_shaked.jpg","FALSE","pictures/stimuli/E","pictures/stimuli/P","M","F","6","5a21800f8c1e5c0001715a21800f8c1e5c0001713d893d89","06/19/2022, 14:38:50",0.852575208372396,"23","Male","right",0,0,0,0,FALSE,"E_M_M_Ivri.jpg P_P_F_shaked.jpg"
2216,"E_C_M_alfi.jpg","E_C_M_mushonov.jpg","TRUE","pictures/stimuli/E","pictures/stimuli/E","M","M","6","5a21800f8c1e5c0001715a21800f8c1e5c0001713d893d89","06/19/2022, 14:38:50",0.852575208372396,"23","Male","right",0,0,0,0,FALSE,"E_C_M_alfi.jpg E_C_M_mushonov.jpg"
1361,"E_C_M_katorza.jpg","P_N_M_lapid.jpg","FALSE","pictures/stimuli/E","pictures/stimuli/P","M","M","5","5a21800f8c1e5c0001715a21800f8c1e5c0001713d893d89","06/19/2022, 14:38:50",0.106080786295183,"23","Male","right",0,0,0,0,FALSE,"E_C_M_katorza.jpg P_N_M_lapid.jpg"
1982,"E_M_F_rita.jpg","E_H_F_yanai.jpg","TRUE","pictures/stimuli/E","pictures/stimuli/E","F","F","5","5a21800f8c1e5c0001715a21800f8c1e5c0001713d893d89","06/19/2022, 14:38:50",0.106080786295183,"23","Male","right",0,0,0,0,FALSE,"E_H_F_yanai.jpg E_M_F_rita.jpg"
1910,"E_M_M_tavori.jpg","P_P_M_liberman.jpg","FALSE","pictures/stimuli/E","pictures/stimuli/P","M","M","5","5a21800f8c1e5c0001715a21800f8c1e5c0001713d893d89","06/19/2022, 14:38:50",0.106080786295183,"23","Male","right",0,0,0,0,FALSE,"E_M_M_tavori.jpg P_P_M_liberman.jpg"
1666,"E_C_F_harLev.jpg","P_P_M_liberman.jpg","FALSE","pictures/stimuli/E","pictures/stimuli/P","F","M","5","5a21800f8c1e5c0001715a21800f8c1e5c0001713d893d89","06/19/2022, 14:38:50",0.106080786295183,"23","Male","right",0,0,0,0,FALSE,"E_C_F_harLev.jpg P_P_M_liberman.jpg"
1414,"E_C_M_shaharHasson.jpg","P_N_F_yehimovitz.jpg","FALSE","pictures/stimuli/E","pictures/stimuli/P","M","F","6","5a21800f8c1e5c0001715a21800f8c1e5c0001713d893d89","06/19/2022, 14:38:50",0.852575208372396,"23","Male","right",0,0,0,0,FALSE,"E_C_M_shaharHasson.jpg P_N_F_yehimovitz.jpg"
1179,"E_C_F_harLev.jpg","E_M_M_Ivri.jpg","TRUE","pictures/stimuli/E","pictures/stimuli/E","F","M","6","5a21800f8c1e5c0001715a21800f8c1e5c0001713d893d89","06/19/2022, 14:38:50",0.852575208372396,"23","Male","right",0,0,0,0,FALSE,"E_C_F_harLev.jpg E_M_M_Ivri.jpg"
1419,"E_C_F_ornaBanai.jpg","E_M_M_tavori.jpg","TRUE","pictures/stimuli/E","pictures/stimuli/E","F","M","6","5a21800f8c1e5c0001715a21800f8c1e5c0001713d893d89","06/19/2022, 14:38:50",0.852575208372396,"23","Male","right",0,0,0,0,FALSE,"E_C_F_ornaBanai.jpg E_M_M_tavori.jpg"
2415,"E_C_F_ornaBanai.jpg","P_P_F_michaeliM.jpg","FALSE","pictures/stimuli/E","pictures/stimuli/P","F","F","5","5a21800f8c1e5c0001715a21800f8c1e5c0001713d893d89","06/19/2022, 14:38:50",0.106080786295183,"23","Male","right",0,0,0,0,FALSE,"E_C_F_ornaBanai.jpg P_P_F_michaeliM.jpg"
3559,"E_C_F_ornaBanai.jpg","P_P_M_zamir.jpg","FALSE","pictures/stimuli/E","pictures/stimuli/P","F","M","6","5a21800f8c1e5c0001715a21800f8c1e5c0001713d893d89","06/19/2022, 14:38:50",0.852575208372396,"23","Male","right",0,0,0,0,FALSE,"E_C_F_ornaBanai.jpg P_P_M_zamir.jpg"
4029,"E_C_F_harLev.jpg","P_P_F_shaked.jpg","FALSE","pictures/stimuli/E","pictures/stimuli/P","F","F","3","5a21800f8c1e5c0001715a21800f8c1e5c0001713d893d89","06/19/2022, 14:38:50",-1.38690805785924,"23","Male","right",0,0,0,0,FALSE,"E_C_F_harLev.jpg P_P_F_shaked.jpg"
2079,"E_C_M_mushonov.jpg","P_P_M_peretz.jpg","FALSE","pictures/stimuli/E","pictures/stimuli/P","M","M","5","5a21800f8c1e5c0001715a21800f8c1e5c0001713d893d89","06/19/2022, 14:38:50",0.106080786295183,"23","Male","right",0,0,0,0,FALSE,"E_C_M_mushonov.jpg P_P_M_peretz.jpg"
1598,"E_C_M_katorza.jpg","P_P_M_zamir.jpg","FALSE","pictures/stimuli/E","pictures/stimuli/P","M","M","4","5a21800f8c1e5c0001715a21800f8c1e5c0001713d893d89","06/19/2022, 14:38:50",-0.640413635782031,"23","Male","right",0,0,0,0,FALSE,"E_C_M_katorza.jpg P_P_M_zamir.jpg"
2753,"E_C_M_shaharHasson.jpg","E_C_F_shaniCo.jpg","TRUE","pictures/stimuli/E","pictures/stimuli/E","M","F","5","5a21800f8c1e5c0001715a21800f8c1e5c0001713d893d89","06/19/2022, 14:38:50",0.106080786295183,"23","Male","right",0,0,0,0,FALSE,"E_C_F_shaniCo.jpg E_C_M_shaharHasson.jpg"
1344,"E_C_F_harLev.jpg","P_P_M_benet.jpg","FALSE","pictures/stimuli/E","pictures/stimuli/P","F","M","6","5a21800f8c1e5c0001715a21800f8c1e5c0001713d893d89","06/19/2022, 14:38:50",0.852575208372396,"23","Male","right",0,0,0,0,FALSE,"E_C_F_harLev.jpg P_P_M_benet.jpg"
2045,"E_C_M_katorza.jpg","P_P_M_benet.jpg","FALSE","pictures/stimuli/E","pictures/stimuli/P","M","M","4","5a21800f8c1e5c0001715a21800f8c1e5c0001713d893d89","06/19/2022, 14:38:50",-0.640413635782031,"23","Male","right",0,0,0,0,FALSE,"E_C_M_katorza.jpg P_P_M_benet.jpg"
1959,"E_C_M_katorza.jpg","P_P_F_michaeliM.jpg","FALSE","pictures/stimuli/E","pictures/stimuli/P","M","F","6","5a21800f8c1e5c0001715a21800f8c1e5c0001713d893d89","06/19/2022, 14:38:50",0.852575208372396,"23","Male","right",0,0,0,0,FALSE,"E_C_M_katorza.jpg P_P_F_michaeliM.jpg"
3739,"E_C_M_shaharHasson.jpg","E_C_F_ornaBanai.jpg","TRUE","pictures/stimuli/E","pictures/stimuli/E","M","F","3","5a21800f8c1e5c0001715a21800f8c1e5c0001713d893d89","06/19/2022, 14:38:50",-1.38690805785924,"23","Male","right",0,0,0,0,FALSE,"E_C_F_ornaBanai.jpg E_C_M_shaharHasson.jpg"
3168,"E_M_M_Ivri.jpg","E_C_M_mushonov.jpg","TRUE","pictures/stimuli/E","pictures/stimuli/E","M","M","4","5a21800f8c1e5c0001715a21800f8c1e5c0001713d893d89","06/19/2022, 14:38:50",-0.640413635782031,"23","Male","right",0,0,0,0,FALSE,"E_C_M_mushonov.jpg E_M_M_Ivri.jpg"
1538,"E_C_M_mushonov.jpg","P_N_F_yehimovitz.jpg","FALSE","pictures/stimuli/E","pictures/stimuli/P","M","F","6","5a21800f8c1e5c0001715a21800f8c1e5c0001713d893d89","06/19/2022, 14:38:50",0.852575208372396,"23","Male","right",0,0,0,0,FALSE,"E_C_M_mushonov.jpg P_N_F_yehimovitz.jpg"
1986,"E_C_M_shaharHasson.jpg","E_M_F_rita.jpg","TRUE","pictures/stimuli/E","pictures/stimuli/E","M","F","5","5a21800f8c1e5c0001715a21800f8c1e5c0001713d893d89","06/19/2022, 14:38:50",0.106080786295183,"23","Male","right",0,0,0,0,FALSE,"E_C_M_shaharHasson.jpg E_M_F_rita.jpg"
1612,"E_C_M_alfi.jpg","E_H_F_yanai.jpg","TRUE","pictures/stimuli/E","pictures/stimuli/E","M","F","6","5a21800f8c1e5c0001715a21800f8c1e5c0001713d893d89","06/19/2022, 14:38:50",0.852575208372396,"23","Male","right",0,0,0,0,FALSE,"E_C_M_alfi.jpg E_H_F_yanai.jpg"
4146,"E_C_M_shaharHasson.jpg","P_P_M_smootrich.jpg","FALSE","pictures/stimuli/E","pictures/stimuli/P","M","M","4","5a21800f8c1e5c0001715a21800f8c1e5c0001713d893d89","06/19/2022, 14:38:50",-0.640413635782031,"23","Male","right",0,0,0,0,FALSE,"E_C_M_shaharHasson.jpg P_P_M_smootrich.jpg"
1683,"E_C_M_alfi.jpg","E_M_F_rita.jpg","TRUE","pictures/stimuli/E","pictures/stimuli/E","M","F","6","5a21800f8c1e5c0001715a21800f8c1e5c0001713d893d89","06/19/2022, 14:38:50",0.852575208372396,"23","Male","right",0,0,0,0,FALSE,"E_C_M_alfi.jpg E_M_F_rita.jpg"
4254,"E_C_F_harLev.jpg","E_C_F_shaniCo.jpg","TRUE","pictures/stimuli/E","pictures/stimuli/E","F","F","1","5a21800f8c1e5c0001715a21800f8c1e5c0001713d893d89","06/19/2022, 14:38:50",-2.87989690201367,"23","Male","right",0,0,0,0,FALSE,"E_C_F_harLev.jpg E_C_F_shaniCo.jpg"
2596,"E_H_F_yanai.jpg","P_P_F_shaked.jpg","FALSE","pictures/stimuli/E","pictures/stimuli/P","F","F","3","5a21800f8c1e5c0001715a21800f8c1e5c0001713d893d89","06/19/2022, 14:38:50",-1.38690805785924,"23","Male","right",0,0,0,0,FALSE,"E_H_F_yanai.jpg P_P_F_shaked.jpg"
3141,"E_C_F_shaniCo.jpg","E_H_F_yanai.jpg","TRUE","pictures/stimuli/E","pictures/stimuli/E","F","F","3","5a21800f8c1e5c0001715a21800f8c1e5c0001713d893d89","06/19/2022, 14:38:50",-1.38690805785924,"23","Male","right",0,0,0,0,FALSE,"E_C_F_shaniCo.jpg E_H_F_yanai.jpg"
2091,"P_P_F_michaeliM.jpg","P_P_M_smootrich.jpg","TRUE","pictures/stimuli/P","pictures/stimuli/P","F","M","6","5a21800f8c1e5c0001715a21800f8c1e5c0001713d893d89","06/19/2022, 14:38:50",0.852575208372396,"23","Male","right",0,0,0,0,FALSE,"P_P_F_michaeliM.jpg P_P_M_smootrich.jpg"
1454,"P_P_F_michaeliM.jpg","P_P_M_peretz.jpg","TRUE","pictures/stimuli/P","pictures/stimuli/P","F","M","6","5a21800f8c1e5c0001715a21800f8c1e5c0001713d893d89","06/19/2022, 14:38:50",0.852575208372396,"23","Male","right",0,0,0,0,FALSE,"P_P_F_michaeliM.jpg P_P_M_peretz.jpg"
1606,"P_N_F_yehimovitz.jpg","P_P_M_zamir.jpg","TRUE","pictures/stimuli/P","pictures/stimuli/P","F","M","6","5a21800f8c1e5c0001715a21800f8c1e5c0001713d893d89","06/19/2022, 14:38:50",0.852575208372396,"23","Male","right",0,0,0,0,FALSE,"P_N_F_yehimovitz.jpg P_P_M_zamir.jpg"
2335,"P_P_M_smootrich.jpg","P_P_M_zamir.jpg","TRUE","pictures/stimuli/P","pictures/stimuli/P","M","M","1","5a21800f8c1e5c0001715a21800f8c1e5c0001713d893d89","06/19/2022, 14:38:50",-2.87989690201367,"23","Male","right",0,0,0,0,FALSE,"P_P_M_smootrich.jpg P_P_M_zamir.jpg"
2342,"E_C_M_katorza.jpg","E_M_F_rita.jpg","TRUE","pictures/stimuli/E","pictures/stimuli/E","M","F","6","5a21800f8c1e5c0001715a21800f8c1e5c0001713d893d89","06/19/2022, 14:38:50",0.852575208372396,"23","Male","right",0,0,0,0,FALSE,"E_C_M_katorza.jpg E_M_F_rita.jpg"
2319,"E_C_M_mushonov.jpg","P_N_M_lapid.jpg","FALSE","pictures/stimuli/E","pictures/stimuli/P","M","M","4","5a21800f8c1e5c0001715a21800f8c1e5c0001713d893d89","06/19/2022, 14:38:50",-0.640413635782031,"23","Male","right",0,0,0,0,FALSE,"E_C_M_mushonov.jpg P_N_M_lapid.jpg"
1733,"E_C_F_harLev.jpg","E_M_M_tavori.jpg","TRUE","pictures/stimuli/E","pictures/stimuli/E","F","M","6","5a21800f8c1e5c0001715a21800f8c1e5c0001713d893d89","06/19/2022, 14:38:50",0.852575208372396,"23","Male","right",0,0,0,0,FALSE,"E_C_F_harLev.jpg E_M_M_tavori.jpg"
1821,"E_M_F_rita.jpg","P_P_M_peretz.jpg","FALSE","pictures/stimuli/E","pictures/stimuli/P","F","M","6","5a21800f8c1e5c0001715a21800f8c1e5c0001713d893d89","06/19/2022, 14:38:50",0.852575208372396,"23","Male","right",0,0,0,0,FALSE,"E_M_F_rita.jpg P_P_M_peretz.jpg"
2237,"E_C_F_ornaBanai.jpg","E_M_F_rita.jpg","TRUE","pictures/stimuli/E","pictures/stimuli/E","F","F","2","5a21800f8c1e5c0001715a21800f8c1e5c0001713d893d89","06/19/2022, 14:38:50",-2.13340247993646,"23","Male","right",0,0,0,0,FALSE,"E_C_F_ornaBanai.jpg E_M_F_rita.jpg"
3678,"E_H_F_yanai.jpg","P_P_F_michaeliM.jpg","FALSE","pictures/stimuli/E","pictures/stimuli/P","F","F","3","5a21800f8c1e5c0001715a21800f8c1e5c0001713d893d89","06/19/2022, 14:38:50",-1.38690805785924,"23","Male","right",0,0,0,0,FALSE,"E_H_F_yanai.jpg P_P_F_michaeliM.jpg"
1851,"E_M_M_tavori.jpg","P_P_M_smootrich.jpg","FALSE","pictures/stimuli/E","pictures/stimuli/P","M","M","5","5a21800f8c1e5c0001715a21800f8c1e5c0001713d893d89","06/19/2022, 14:38:50",0.106080786295183,"23","Male","right",0,0,0,0,FALSE,"E_M_M_tavori.jpg P_P_M_smootrich.jpg"
3409,"E_C_M_katorza.jpg","E_M_M_tavori.jpg","TRUE","pictures/stimuli/E","pictures/stimuli/E","M","M","6","5a21800f8c1e5c0001715a21800f8c1e5c0001713d893d89","06/19/2022, 14:38:50",0.852575208372396,"23","Male","right",0,0,0,0,FALSE,"E_C_M_katorza.jpg E_M_M_tavori.jpg"
1732,"P_P_M_benet.jpg","P_P_F_michaeliM.jpg","TRUE","pictures/stimuli/P","pictures/stimuli/P","M","F","6","5a21800f8c1e5c0001715a21800f8c1e5c0001713d893d89","06/19/2022, 14:38:50",0.852575208372396,"23","Male","right",0,0,0,0,FALSE,"P_P_F_michaeliM.jpg P_P_M_benet.jpg"
1598,"E_C_F_harLev.jpg","E_C_M_mushonov.jpg","TRUE","pictures/stimuli/E","pictures/stimuli/E","F","M","6","5a21800f8c1e5c0001715a21800f8c1e5c0001713d893d89","06/19/2022, 14:38:50",0.852575208372396,"23","Male","right",0,0,0,0,FALSE,"E_C_F_harLev.jpg E_C_M_mushonov.jpg"
1271,"P_P_M_liberman.jpg","P_N_F_yehimovitz.jpg","TRUE","pictures/stimuli/P","pictures/stimuli/P","M","F","6","5a21800f8c1e5c0001715a21800f8c1e5c0001713d893d89","06/19/2022, 14:38:50",0.852575208372396,"23","Male","right",0,0,0,0,FALSE,"P_N_F_yehimovitz.jpg P_P_M_liberman.jpg"
1758,"E_M_F_rita.jpg","P_P_M_liberman.jpg","FALSE","pictures/stimuli/E","pictures/stimuli/P","F","M","6","5a21800f8c1e5c0001715a21800f8c1e5c0001713d893d89","06/19/2022, 14:38:50",0.852575208372396,"23","Male","right",0,0,0,0,FALSE,"E_M_F_rita.jpg P_P_M_liberman.jpg"
1713,"P_N_M_lapid.jpg","P_N_F_yehimovitz.jpg","TRUE","pictures/stimuli/P","pictures/stimuli/P","M","F","6","5a21800f8c1e5c0001715a21800f8c1e5c0001713d893d89","06/19/2022, 14:38:50",0.852575208372396,"23","Male","right",0,0,0,0,FALSE,"P_N_F_yehimovitz.jpg P_N_M_lapid.jpg"
2449,"P_P_F_shaked.jpg","P_P_M_smootrich.jpg","TRUE","pictures/stimuli/P","pictures/stimuli/P","F","M","6","5a21800f8c1e5c0001715a21800f8c1e5c0001713d893d89","06/19/2022, 14:38:50",0.852575208372396,"23","Male","right",0,0,0,0,FALSE,"P_P_F_shaked.jpg P_P_M_smootrich.jpg"
2261,"P_P_M_benet.jpg","P_P_M_smootrich.jpg","TRUE","pictures/stimuli/P","pictures/stimuli/P","M","M","5","5a21800f8c1e5c0001715a21800f8c1e5c0001713d893d89","06/19/2022, 14:38:50",0.106080786295183,"23","Male","right",0,0,0,0,FALSE,"P_P_M_benet.jpg P_P_M_smootrich.jpg"
3263,"E_C_M_alfi.jpg","E_M_M_Ivri.jpg","TRUE","pictures/stimuli/E","pictures/stimuli/E","M","M","2","5a21800f8c1e5c0001715a21800f8c1e5c0001713d893d89","06/19/2022, 14:38:50",-2.13340247993646,"23","Male","right",0,0,0,0,FALSE,"E_C_M_alfi.jpg E_M_M_Ivri.jpg"
2031,"P_N_M_lapid.jpg","P_P_M_zamir.jpg","TRUE","pictures/stimuli/P","pictures/stimuli/P","M","M","5","5a21800f8c1e5c0001715a21800f8c1e5c0001713d893d89","06/19/2022, 14:38:50",0.106080786295183,"23","Male","right",0,0,0,0,FALSE,"P_N_M_lapid.jpg P_P_M_zamir.jpg"
2353,"E_C_F_ornaBanai.jpg","P_N_F_yehimovitz.jpg","FALSE","pictures/stimuli/E","pictures/stimuli/P","F","F","3","5a21800f8c1e5c0001715a21800f8c1e5c0001713d893d89","06/19/2022, 14:38:50",-1.38690805785924,"23","Male","right",0,0,0,0,FALSE,"E_C_F_ornaBanai.jpg P_N_F_yehimovitz.jpg"
1856,"P_P_F_michaeliM.jpg","P_P_F_shaked.jpg","TRUE","pictures/stimuli/P","pictures/stimuli/P","F","F","2","5a21800f8c1e5c0001715a21800f8c1e5c0001713d893d89","06/19/2022, 14:38:50",-2.13340247993646,"23","Male","right",0,0,0,0,FALSE,"P_P_F_michaeliM.jpg P_P_F_shaked.jpg"
3408,"E_C_F_ornaBanai.jpg","E_C_F_shaniCo.jpg","TRUE","pictures/stimuli/E","pictures/stimuli/E","F","F","3","5a21800f8c1e5c0001715a21800f8c1e5c0001713d893d89","06/19/2022, 14:38:50",-1.38690805785924,"23","Male","right",0,0,0,0,FALSE,"E_C_F_ornaBanai.jpg E_C_F_shaniCo.jpg"
2160,"E_M_M_tavori.jpg","P_P_M_benet.jpg","FALSE","pictures/stimuli/E","pictures/stimuli/P","M","M","3","5a21800f8c1e5c0001715a21800f8c1e5c0001713d893d89","06/19/2022, 14:38:50",-1.38690805785924,"23","Male","right",0,0,0,0,FALSE,"E_M_M_tavori.jpg P_P_M_benet.jpg"
1690,"E_M_F_rita.jpg","P_P_M_benet.jpg","FALSE","pictures/stimuli/E","pictures/stimuli/P","F","M","6","5a21800f8c1e5c0001715a21800f8c1e5c0001713d893d89","06/19/2022, 14:38:50",0.852575208372396,"23","Male","right",0,0,0,0,FALSE,"E_M_F_rita.jpg P_P_M_benet.jpg"
2111,"E_C_F_ornaBanai.jpg","P_P_M_benet.jpg","FALSE","pictures/stimuli/E","pictures/stimuli/P","F","M","6","5a21800f8c1e5c0001715a21800f8c1e5c0001713d893d89","06/19/2022, 14:38:50",0.852575208372396,"23","Male","right",0,0,0,0,FALSE,"E_C_F_ornaBanai.jpg P_P_M_benet.jpg"
3719,"E_M_M_Ivri.jpg","P_P_M_zamir.jpg","FALSE","pictures/stimuli/E","pictures/stimuli/P","M","M","3","5a21800f8c1e5c0001715a21800f8c1e5c0001713d893d89","06/19/2022, 14:38:50",-1.38690805785924,"23","Male","right",0,0,0,0,FALSE,"E_M_M_Ivri.jpg P_P_M_zamir.jpg"
1713,"E_C_M_mushonov.jpg","P_P_M_liberman.jpg","FALSE","pictures/stimuli/E","pictures/stimuli/P","M","M","6","5a21800f8c1e5c0001715a21800f8c1e5c0001713d893d89","06/19/2022, 14:38:50",0.852575208372396,"23","Male","right",0,0,0,0,FALSE,"E_C_M_mushonov.jpg P_P_M_liberman.jpg"
1584,"E_C_F_harLev.jpg","E_C_F_ornaBanai.jpg","TRUE","pictures/stimuli/E","pictures/stimuli/E","F","F","2","5a21800f8c1e5c0001715a21800f8c1e5c0001713d893d89","06/19/2022, 14:38:50",-2.13340247993646,"23","Male","right",0,0,0,0,FALSE,"E_C_F_harLev.jpg E_C_F_ornaBanai.jpg"
3508,"E_C_M_shaharHasson.jpg","P_P_F_shaked.jpg","FALSE","pictures/stimuli/E","pictures/stimuli/P","M","F","5","5a21800f8c1e5c0001715a21800f8c1e5c0001713d893d89","06/19/2022, 14:38:50",0.106080786295183,"23","Male","right",0,0,0,0,FALSE,"E_C_M_shaharHasson.jpg P_P_F_shaked.jpg"
1766,"P_N_M_lapid.jpg","P_P_F_michaeliM.jpg","TRUE","pictures/stimuli/P","pictures/stimuli/P","M","F","6","5a21800f8c1e5c0001715a21800f8c1e5c0001713d893d89","06/19/2022, 14:38:50",0.852575208372396,"23","Male","right",0,0,0,0,FALSE,"P_N_M_lapid.jpg P_P_F_michaeliM.jpg"
2447,"P_P_M_peretz.jpg","P_P_M_zamir.jpg","TRUE","pictures/stimuli/P","pictures/stimuli/P","M","M","4","5a21800f8c1e5c0001715a21800f8c1e5c0001713d893d89","06/19/2022, 14:38:50",-0.640413635782031,"23","Male","right",0,0,0,0,FALSE,"P_P_M_peretz.jpg P_P_M_zamir.jpg"
2131,"E_C_M_alfi.jpg","E_C_M_shaharHasson.jpg","TRUE","pictures/stimuli/E","pictures/stimuli/E","M","M","4","5a21800f8c1e5c0001715a21800f8c1e5c0001713d893d89","06/19/2022, 14:38:50",-0.640413635782031,"23","Male","right",0,0,0,0,FALSE,"E_C_M_alfi.jpg E_C_M_shaharHasson.jpg"
1605,"E_C_M_shaharHasson.jpg","P_P_M_benet.jpg","FALSE","pictures/stimuli/E","pictures/stimuli/P","M","M","6","5a21800f8c1e5c0001715a21800f8c1e5c0001713d893d89","06/19/2022, 14:38:50",0.852575208372396,"23","Male","right",0,0,0,0,FALSE,"E_C_M_shaharHasson.jpg P_P_M_benet.jpg"
3185,"E_C_F_harLev.jpg","P_P_M_smootrich.jpg","FALSE","pictures/stimuli/E","pictures/stimuli/P","F","M","5","5a21800f8c1e5c0001715a21800f8c1e5c0001713d893d89","06/19/2022, 14:38:50",0.106080786295183,"23","Male","right",0,0,0,0,FALSE,"E_C_F_harLev.jpg P_P_M_smootrich.jpg"
1793,"E_C_M_katorza.jpg","E_C_F_shaniCo.jpg","TRUE","pictures/stimuli/E","pictures/stimuli/E","M","F","6","5a21800f8c1e5c0001715a21800f8c1e5c0001713d893d89","06/19/2022, 14:38:50",0.852575208372396,"23","Male","right",0,0,0,0,FALSE,"E_C_F_shaniCo.jpg E_C_M_katorza.jpg"
2360,"E_C_M_katorza.jpg","E_C_F_ornaBanai.jpg","TRUE","pictures/stimuli/E","pictures/stimuli/E","M","F","6","5a21800f8c1e5c0001715a21800f8c1e5c0001713d893d89","06/19/2022, 14:38:50",0.852575208372396,"23","Male","right",0,0,0,0,FALSE,"E_C_F_ornaBanai.jpg E_C_M_katorza.jpg"
2861,"E_C_M_katorza.jpg","P_P_M_peretz.jpg","FALSE","pictures/stimuli/E","pictures/stimuli/P","M","M","4","5a21800f8c1e5c0001715a21800f8c1e5c0001713d893d89","06/19/2022, 14:38:50",-0.640413635782031,"23","Male","right",0,0,0,0,FALSE,"E_C_M_katorza.jpg P_P_M_peretz.jpg"
1960,"E_C_F_harLev.jpg","E_H_F_yanai.jpg","TRUE","pictures/stimuli/E","pictures/stimuli/E","F","F","4","5a21800f8c1e5c0001715a21800f8c1e5c0001713d893d89","06/19/2022, 14:38:50",-0.640413635782031,"23","Male","right",0,0,0,0,FALSE,"E_C_F_harLev.jpg E_H_F_yanai.jpg"
2916,"E_M_M_Ivri.jpg","E_C_F_shaniCo.jpg","TRUE","pictures/stimuli/E","pictures/stimuli/E","M","F","5","5a21800f8c1e5c0001715a21800f8c1e5c0001713d893d89","06/19/2022, 14:38:50",0.106080786295183,"23","Male","right",0,0,0,0,FALSE,"E_C_F_shaniCo.jpg E_M_M_Ivri.jpg"
1745,"E_C_M_katorza.jpg","E_C_M_shaharHasson.jpg","TRUE","pictures/stimuli/E","pictures/stimuli/E","M","M","4","5a21800f8c1e5c0001715a21800f8c1e5c0001713d893d89","06/19/2022, 14:38:50",-0.640413635782031,"23","Male","right",0,0,0,0,FALSE,"E_C_M_katorza.jpg E_C_M_shaharHasson.jpg"
1728,"E_C_M_mushonov.jpg","E_H_F_yanai.jpg","TRUE","pictures/stimuli/E","pictures/stimuli/E","M","F","6","5a21800f8c1e5c0001715a21800f8c1e5c0001713d893d89","06/19/2022, 14:38:50",0.852575208372396,"23","Male","right",0,0,0,0,FALSE,"E_C_M_mushonov.jpg E_H_F_yanai.jpg"
3227,"E_M_M_Ivri.jpg","E_M_M_tavori.jpg","TRUE","pictures/stimuli/E","pictures/stimuli/E","M","M","4","5a21800f8c1e5c0001715a21800f8c1e5c0001713d893d89","06/19/2022, 14:38:50",-0.640413635782031,"23","Male","right",0,0,0,0,FALSE,"E_M_M_Ivri.jpg E_M_M_tavori.jpg"
3047,"P_P_F_shaked.jpg","P_N_F_yehimovitz.jpg","TRUE","pictures/stimuli/P","pictures/stimuli/P","F","F","4","5a21800f8c1e5c0001715a21800f8c1e5c0001713d893d89","06/19/2022, 14:38:50",-0.640413635782031,"23","Male","right",0,0,0,0,FALSE,"P_N_F_yehimovitz.jpg P_P_F_shaked.jpg"
1951,"E_C_F_harLev.jpg","P_P_F_michaeliM.jpg","FALSE","pictures/stimuli/E","pictures/stimuli/P","F","F","3","5a21800f8c1e5c0001715a21800f8c1e5c0001713d893d89","06/19/2022, 14:38:50",-1.38690805785924,"23","Male","right",0,0,0,0,FALSE,"E_C_F_harLev.jpg P_P_F_michaeliM.jpg"
1979,"E_C_M_shaharHasson.jpg","E_M_M_Ivri.jpg","TRUE","pictures/stimuli/E","pictures/stimuli/E","M","M","2","5a21800f8c1e5c0001715a21800f8c1e5c0001713d893d89","06/19/2022, 14:38:50",-2.13340247993646,"23","Male","right",0,0,0,0,FALSE,"E_C_M_shaharHasson.jpg E_M_M_Ivri.jpg"
3692,"P_P_F_michaeliM.jpg","P_N_F_yehimovitz.jpg","TRUE","pictures/stimuli/P","pictures/stimuli/P","F","F","4","5a21800f8c1e5c0001715a21800f8c1e5c0001713d893d89","06/19/2022, 14:38:50",-0.640413635782031,"23","Male","right",0,0,0,0,FALSE,"P_N_F_yehimovitz.jpg P_P_F_michaeliM.jpg"
2648,"E_C_M_alfi.jpg","P_P_M_zamir.jpg","FALSE","pictures/stimuli/E","pictures/stimuli/P","M","M","3","5a21800f8c1e5c0001715a21800f8c1e5c0001713d893d89","06/19/2022, 14:38:50",-1.38690805785924,"23","Male","right",0,0,0,0,FALSE,"E_C_M_alfi.jpg P_P_M_zamir.jpg"
1582,"P_P_M_liberman.jpg","P_P_F_shaked.jpg","TRUE","pictures/stimuli/P","pictures/stimuli/P","M","F","6","5a21800f8c1e5c0001715a21800f8c1e5c0001713d893d89","06/19/2022, 14:38:50",0.852575208372396,"23","Male","right",0,0,0,0,FALSE,"P_P_F_shaked.jpg P_P_M_liberman.jpg"
1630,"E_C_F_ornaBanai.jpg","P_P_M_peretz.jpg","FALSE","pictures/stimuli/E","pictures/stimuli/P","F","M","6","5a21800f8c1e5c0001715a21800f8c1e5c0001713d893d89","06/19/2022, 14:38:50",0.852575208372396,"23","Male","right",0,0,0,0,FALSE,"E_C_F_ornaBanai.jpg P_P_M_peretz.jpg"
3098,"E_C_M_alfi.jpg","P_N_M_lapid.jpg","FALSE","pictures/stimuli/E","pictures/stimuli/P","M","M","3","5a21800f8c1e5c0001715a21800f8c1e5c0001713d893d89","06/19/2022, 14:38:50",-1.38690805785924,"23","Male","right",0,0,0,0,FALSE,"E_C_M_alfi.jpg P_N_M_lapid.jpg"
2953,"E_C_F_harLev.jpg","E_C_M_shaharHasson.jpg","TRUE","pictures/stimuli/E","pictures/stimuli/E","F","M","6","5a21800f8c1e5c0001715a21800f8c1e5c0001713d893d89","06/19/2022, 14:38:50",0.852575208372396,"23","Male","right",0,0,0,0,FALSE,"E_C_F_harLev.jpg E_C_M_shaharHasson.jpg"
2155,"P_P_M_liberman.jpg","P_P_M_peretz.jpg","TRUE","pictures/stimuli/P","pictures/stimuli/P","M","M","2","5a21800f8c1e5c0001715a21800f8c1e5c0001713d893d89","06/19/2022, 14:38:50",-2.13340247993646,"23","Male","right",0,0,0,0,FALSE,"P_P_M_liberman.jpg P_P_M_peretz.jpg"
3040,"E_C_M_mushonov.jpg","E_M_F_rita.jpg","TRUE","pictures/stimuli/E","pictures/stimuli/E","M","F","4","5a21800f8c1e5c0001715a21800f8c1e5c0001713d893d89","06/19/2022, 14:38:50",-0.640413635782031,"23","Male","right",0,0,0,0,FALSE,"E_C_M_mushonov.jpg E_M_F_rita.jpg"
1559,"P_N_M_lapid.jpg","P_P_F_shaked.jpg","TRUE","pictures/stimuli/P","pictures/stimuli/P","M","F","6","5a21800f8c1e5c0001715a21800f8c1e5c0001713d893d89","06/19/2022, 14:38:50",0.852575208372396,"23","Male","right",0,0,0,0,FALSE,"P_N_M_lapid.jpg P_P_F_shaked.jpg"
1726,"E_M_M_tavori.jpg","P_P_F_michaeliM.jpg","FALSE","pictures/stimuli/E","pictures/stimuli/P","M","F","6","5a21800f8c1e5c0001715a21800f8c1e5c0001713d893d89","06/19/2022, 14:38:50",0.852575208372396,"23","Male","right",0,0,0,0,FALSE,"E_M_M_tavori.jpg P_P_F_michaeliM.jpg"
1858,"E_C_F_ornaBanai.jpg","P_P_M_smootrich.jpg","FALSE","pictures/stimuli/E","pictures/stimuli/P","F","M","6","5a21800f8c1e5c0001715a21800f8c1e5c0001713d893d89","06/19/2022, 14:38:50",0.852575208372396,"23","Male","right",0,0,0,0,FALSE,"E_C_F_ornaBanai.jpg P_P_M_smootrich.jpg"
3832,"E_C_M_alfi.jpg","E_C_F_ornaBanai.jpg","TRUE","pictures/stimuli/E","pictures/stimuli/E","M","F","3","5a21800f8c1e5c0001715a21800f8c1e5c0001713d893d89","06/19/2022, 14:38:50",-1.38690805785924,"23","Male","right",0,0,0,0,FALSE,"E_C_F_ornaBanai.jpg E_C_M_alfi.jpg"
1917,"E_M_F_rita.jpg","E_C_F_shaniCo.jpg","TRUE","pictures/stimuli/E","pictures/stimuli/E","F","F","3","5a21800f8c1e5c0001715a21800f8c1e5c0001713d893d89","06/19/2022, 14:38:50",-1.38690805785924,"23","Male","right",0,0,0,0,FALSE,"E_C_F_shaniCo.jpg E_M_F_rita.jpg"
3527,"E_C_M_katorza.jpg","E_M_M_Ivri.jpg","TRUE","pictures/stimuli/E","pictures/stimuli/E","M","M","5","5a21800f8c1e5c0001715a21800f8c1e5c0001713d893d89","06/19/2022, 14:38:50",0.106080786295183,"23","Male","right",0,0,0,0,FALSE,"E_C_M_katorza.jpg E_M_M_Ivri.jpg"
1567,"P_P_M_benet.jpg","P_P_F_shaked.jpg","TRUE","pictures/stimuli/P","pictures/stimuli/P","M","F","6","5a21800f8c1e5c0001715a21800f8c1e5c0001713d893d89","06/19/2022, 14:38:50",0.852575208372396,"23","Male","right",0,0,0,0,FALSE,"P_P_F_shaked.jpg P_P_M_benet.jpg"
3898,"E_C_M_mushonov.jpg","P_P_M_smootrich.jpg","FALSE","pictures/stimuli/E","pictures/stimuli/P","M","M","5","5a21800f8c1e5c0001715a21800f8c1e5c0001713d893d89","06/19/2022, 14:38:50",0.106080786295183,"23","Male","right",0,0,0,0,FALSE,"E_C_M_mushonov.jpg P_P_M_smootrich.jpg"
3629,"P_P_M_benet.jpg","P_N_M_lapid.jpg","TRUE","pictures/stimuli/P","pictures/stimuli/P","M","M","6","5a21800f8c1e5c0001715a21800f8c1e5c0001713d893d89","06/19/2022, 14:38:50",0.852575208372396,"23","Male","right",0,0,0,0,FALSE,"P_N_M_lapid.jpg P_P_M_benet.jpg"
2856,"P_P_M_smootrich.jpg","P_N_F_yehimovitz.jpg","TRUE","pictures/stimuli/P","pictures/stimuli/P","M","F","6","5a21800f8c1e5c0001715a21800f8c1e5c0001713d893d89","06/19/2022, 14:38:50",0.852575208372396,"23","Male","right",0,0,0,0,FALSE,"P_N_F_yehimovitz.jpg P_P_M_smootrich.jpg"
2405,"E_C_M_mushonov.jpg","P_P_M_zamir.jpg","FALSE","pictures/stimuli/E","pictures/stimuli/P","M","M","6","5a21800f8c1e5c0001715a21800f8c1e5c0001713d893d89","06/19/2022, 14:38:50",0.852575208372396,"23","Male","right",0,0,0,0,FALSE,"E_C_M_mushonov.jpg P_P_M_zamir.jpg"
1956,"E_H_F_yanai.jpg","P_N_F_yehimovitz.jpg","FALSE","pictures/stimuli/E","pictures/stimuli/P","F","F","4","5a21800f8c1e5c0001715a21800f8c1e5c0001713d893d89","06/19/2022, 14:38:50",-0.640413635782031,"23","Male","right",0,0,0,0,FALSE,"E_H_F_yanai.jpg P_N_F_yehimovitz.jpg"
1931,"E_C_F_shaniCo.jpg","P_P_F_michaeliM.jpg","FALSE","pictures/stimuli/E","pictures/stimuli/P","F","F","2","5a21800f8c1e5c0001715a21800f8c1e5c0001713d893d89","06/19/2022, 14:38:50",-2.13340247993646,"23","Male","right",0,0,0,0,FALSE,"E_C_F_shaniCo.jpg P_P_F_michaeliM.jpg"
2165,"E_C_M_shaharHasson.jpg","P_P_F_michaeliM.jpg","FALSE","pictures/stimuli/E","pictures/stimuli/P","M","F","3","5a21800f8c1e5c0001715a21800f8c1e5c0001713d893d89","06/19/2022, 14:38:50",-1.38690805785924,"23","Male","right",0,0,0,0,FALSE,"E_C_M_shaharHasson.jpg P_P_F_michaeliM.jpg"
3487,"E_C_M_alfi.jpg","P_P_M_benet.jpg","FALSE","pictures/stimuli/E","pictures/stimuli/P","M","M","6","5a21800f8c1e5c0001715a21800f8c1e5c0001713d893d89","06/19/2022, 14:38:50",0.852575208372396,"23","Male","right",0,0,0,0,FALSE,"E_C_M_alfi.jpg P_P_M_benet.jpg"
2010,"E_C_F_shaniCo.jpg","P_N_M_lapid.jpg","FALSE","pictures/stimuli/E","pictures/stimuli/P","F","M","6","5a21800f8c1e5c0001715a21800f8c1e5c0001713d893d89","06/19/2022, 14:38:50",0.852575208372396,"23","Male","right",0,0,0,0,FALSE,"E_C_F_shaniCo.jpg P_N_M_lapid.jpg"
1634,"E_C_M_mushonov.jpg","P_P_F_shaked.jpg","FALSE","pictures/stimuli/E","pictures/stimuli/P","M","F","6","5a21800f8c1e5c0001715a21800f8c1e5c0001713d893d89","06/19/2022, 14:38:50",0.852575208372396,"23","Male","right",0,0,0,0,FALSE,"E_C_M_mushonov.jpg P_P_F_shaked.jpg"
1748,"P_P_M_liberman.jpg","P_P_M_smootrich.jpg","TRUE","pictures/stimuli/P","pictures/stimuli/P","M","M","5","5a21800f8c1e5c0001715a21800f8c1e5c0001713d893d89","06/19/2022, 14:38:50",0.106080786295183,"23","Male","right",0,0,0,0,FALSE,"P_P_M_liberman.jpg P_P_M_smootrich.jpg"
2638,"E_M_M_Ivri.jpg","P_P_M_smootrich.jpg","FALSE","pictures/stimuli/E","pictures/stimuli/P","M","M","5","5a21800f8c1e5c0001715a21800f8c1e5c0001713d893d89","06/19/2022, 14:38:50",0.106080786295183,"23","Male","right",0,0,0,0,FALSE,"E_M_M_Ivri.jpg P_P_M_smootrich.jpg"
2393,"E_C_M_shaharHasson.jpg","P_P_M_liberman.jpg","FALSE","pictures/stimuli/E","pictures/stimuli/P","M","M","6","5a21800f8c1e5c0001715a21800f8c1e5c0001713d893d89","06/19/2022, 14:38:50",0.852575208372396,"23","Male","right",0,0,0,0,FALSE,"E_C_M_shaharHasson.jpg P_P_M_liberman.jpg"
2026,"E_M_F_rita.jpg","P_P_F_shaked.jpg","FALSE","pictures/stimuli/E","pictures/stimuli/P","F","F","2","5a21800f8c1e5c0001715a21800f8c1e5c0001713d893d89","06/19/2022, 14:38:50",-2.13340247993646,"23","Male","right",0,0,0,0,FALSE,"E_M_F_rita.jpg P_P_F_shaked.jpg"
1892,"E_M_M_Ivri.jpg","P_P_M_liberman.jpg","FALSE","pictures/stimuli/E","pictures/stimuli/P","M","M","5","5a21800f8c1e5c0001715a21800f8c1e5c0001713d893d89","06/19/2022, 14:38:50",0.106080786295183,"23","Male","right",0,0,0,0,FALSE,"E_M_M_Ivri.jpg P_P_M_liberman.jpg"
2806,"E_C_M_alfi.jpg","E_C_M_katorza.jpg","TRUE","pictures/stimuli/E","pictures/stimuli/E","M","M","4","5a21800f8c1e5c0001715a21800f8c1e5c0001713d893d89","06/19/2022, 14:38:50",-0.640413635782031,"23","Male","right",0,0,0,0,FALSE,"E_C_M_alfi.jpg E_C_M_katorza.jpg"
1943,"E_M_M_tavori.jpg","P_N_M_lapid.jpg","FALSE","pictures/stimuli/E","pictures/stimuli/P","M","M","6","5a21800f8c1e5c0001715a21800f8c1e5c0001713d893d89","06/19/2022, 14:38:50",0.852575208372396,"23","Male","right",0,0,0,0,FALSE,"E_M_M_tavori.jpg P_N_M_lapid.jpg"
3245,"E_M_F_rita.jpg","P_P_M_smootrich.jpg","FALSE","pictures/stimuli/E","pictures/stimuli/P","F","M","6","5a21800f8c1e5c0001715a21800f8c1e5c0001713d893d89","06/19/2022, 14:38:50",0.852575208372396,"23","Male","right",0,0,0,0,FALSE,"E_M_F_rita.jpg P_P_M_smootrich.jpg"
3510,"E_C_M_alfi.jpg","E_M_M_tavori.jpg","TRUE","pictures/stimuli/E","pictures/stimuli/E","M","M","5","5a21800f8c1e5c0001715a21800f8c1e5c0001713d893d89","06/19/2022, 14:38:50",0.106080786295183,"23","Male","right",0,0,0,0,FALSE,"E_C_M_alfi.jpg E_M_M_tavori.jpg"
2063,"E_C_M_alfi.jpg","P_P_M_smootrich.jpg","FALSE","pictures/stimuli/E","pictures/stimuli/P","M","M","3","5a21800f8c1e5c0001715a21800f8c1e5c0001713d893d89","06/19/2022, 14:38:50",-1.38690805785924,"23","Male","right",0,0,0,0,FALSE,"E_C_M_alfi.jpg P_P_M_smootrich.jpg"
1913,"E_C_F_shaniCo.jpg","P_N_F_yehimovitz.jpg","FALSE","pictures/stimuli/E","pictures/stimuli/P","F","F","3","5a21800f8c1e5c0001715a21800f8c1e5c0001713d893d89","06/19/2022, 14:38:50",-1.38690805785924,"23","Male","right",0,0,0,0,FALSE,"E_C_F_shaniCo.jpg P_N_F_yehimovitz.jpg"
1997,"E_C_F_shaniCo.jpg","P_P_M_zamir.jpg","FALSE","pictures/stimuli/E","pictures/stimuli/P","F","M","6","5a21800f8c1e5c0001715a21800f8c1e5c0001713d893d89","06/19/2022, 14:38:50",0.852575208372396,"23","Male","right",0,0,0,0,FALSE,"E_C_F_shaniCo.jpg P_P_M_zamir.jpg"
2264,"E_H_F_yanai.jpg","P_N_M_lapid.jpg","FALSE","pictures/stimuli/E","pictures/stimuli/P","F","M","6","5a21800f8c1e5c0001715a21800f8c1e5c0001713d893d89","06/19/2022, 14:38:50",0.852575208372396,"23","Male","right",0,0,0,0,FALSE,"E_H_F_yanai.jpg P_N_M_lapid.jpg"
2318,"E_M_M_Ivri.jpg","E_C_F_ornaBanai.jpg","TRUE","pictures/stimuli/E","pictures/stimuli/E","M","F","5","5a21800f8c1e5c0001715a21800f8c1e5c0001713d893d89","06/19/2022, 14:38:50",0.106080786295183,"23","Male","right",0,0,0,0,FALSE,"E_C_F_ornaBanai.jpg E_M_M_Ivri.jpg"
3334,"E_C_F_shaniCo.jpg","P_P_M_benet.jpg","FALSE","pictures/stimuli/E","pictures/stimuli/P","F","M","6","5a21800f8c1e5c0001715a21800f8c1e5c0001713d893d89","06/19/2022, 14:38:50",0.852575208372396,"23","Male","right",0,0,0,0,FALSE,"E_C_F_shaniCo.jpg P_P_M_benet.jpg"
4427,"E_C_F_harLev.jpg","P_N_F_yehimovitz.jpg","FALSE","pictures/stimuli/E","pictures/stimuli/P","F","F","4","5a21800f8c1e5c0001715a21800f8c1e5c0001713d893d89","06/19/2022, 14:38:50",-0.640413635782031,"23","Male","right",0,0,0,0,FALSE,"E_C_F_harLev.jpg P_N_F_yehimovitz.jpg"
6403,"P_N_M_lapid.jpg","P_P_M_peretz.jpg","TRUE","pictures/stimuli/P","pictures/stimuli/P","M","M","2","5a21800f8c1e5c0001715a21800f8c1e5c0001713d893d89","06/19/2022, 14:38:50",-2.13340247993646,"23","Male","right",0,0,0,0,FALSE,"P_N_M_lapid.jpg P_P_M_peretz.jpg"
4371,"E_C_M_katorza.jpg","P_P_M_liberman.jpg","FALSE","pictures/stimuli/E","pictures/stimuli/P","M","M","4","5a21800f8c1e5c0001715a21800f8c1e5c0001713d893d89","06/19/2022, 14:38:50",-0.640413635782031,"23","Male","right",0,0,0,0,FALSE,"E_C_M_katorza.jpg P_P_M_liberman.jpg"
2395,"E_C_M_alfi.jpg","P_P_F_shaked.jpg","FALSE","pictures/stimuli/E","pictures/stimuli/P","M","F","6","5a21800f8c1e5c0001715a21800f8c1e5c0001713d893d89","06/19/2022, 14:38:50",0.852575208372396,"23","Male","right",0,0,0,0,FALSE,"E_C_M_alfi.jpg P_P_F_shaked.jpg"
1531,"E_C_M_mushonov.jpg","P_P_F_michaeliM.jpg","FALSE","pictures/stimuli/E","pictures/stimuli/P","M","F","6","5a21800f8c1e5c0001715a21800f8c1e5c0001713d893d89","06/19/2022, 14:38:50",0.852575208372396,"23","Male","right",0,0,0,0,FALSE,"E_C_M_mushonov.jpg P_P_F_michaeliM.jpg"
1654,"P_N_M_lapid.jpg","P_P_M_smootrich.jpg","TRUE","pictures/stimuli/P","pictures/stimuli/P","M","M","3","5a21800f8c1e5c0001715a21800f8c1e5c0001713d893d89","06/19/2022, 14:38:50",-1.38690805785924,"23","Male","right",0,0,0,0,FALSE,"P_N_M_lapid.jpg P_P_M_smootrich.jpg"
2770,"E_C_M_mushonov.jpg","E_C_F_ornaBanai.jpg","TRUE","pictures/stimuli/E","pictures/stimuli/E","M","F","6","5a21800f8c1e5c0001715a21800f8c1e5c0001713d893d89","06/19/2022, 14:38:50",0.852575208372396,"23","Male","right",0,0,0,0,FALSE,"E_C_F_ornaBanai.jpg E_C_M_mushonov.jpg"
1561,"E_C_F_shaniCo.jpg","E_M_M_tavori.jpg","TRUE","pictures/stimuli/E","pictures/stimuli/E","F","M","6","5a21800f8c1e5c0001715a21800f8c1e5c0001713d893d89","06/19/2022, 14:38:50",0.852575208372396,"23","Male","right",0,0,0,0,FALSE,"E_C_F_shaniCo.jpg E_M_M_tavori.jpg"
2706,"E_M_M_Ivri.jpg","P_P_F_michaeliM.jpg","FALSE","pictures/stimuli/E","pictures/stimuli/P","M","F","4","5a21800f8c1e5c0001715a21800f8c1e5c0001713d893d89","06/19/2022, 14:38:50",-0.640413635782031,"23","Male","right",0,0,0,0,FALSE,"E_M_M_Ivri.jpg P_P_F_michaeliM.jpg"
2386,"E_C_M_alfi.jpg","E_C_F_harLev.jpg","TRUE","pictures/stimuli/E","pictures/stimuli/E","M","F","5","5a21800f8c1e5c0001715a21800f8c1e5c0001713d893d89","06/19/2022, 14:38:50",0.106080786295183,"23","Male","right",0,0,0,0,FALSE,"E_C_F_harLev.jpg E_C_M_alfi.jpg"
1376,"E_M_F_rita.jpg","P_N_M_lapid.jpg","FALSE","pictures/stimuli/E","pictures/stimuli/P","F","M","6","5a21800f8c1e5c0001715a21800f8c1e5c0001713d893d89","06/19/2022, 14:38:50",0.852575208372396,"23","Male","right",0,0,0,0,FALSE,"E_M_F_rita.jpg P_N_M_lapid.jpg"
2245,"E_C_F_shaniCo.jpg","P_P_F_shaked.jpg","FALSE","pictures/stimuli/E","pictures/stimuli/P","F","F","2","5a21800f8c1e5c0001715a21800f8c1e5c0001713d893d89","06/19/2022, 14:38:50",-2.13340247993646,"23","Male","right",0,0,0,0,FALSE,"E_C_F_shaniCo.jpg P_P_F_shaked.jpg"
1658,"P_P_M_liberman.jpg","P_P_F_michaeliM.jpg","TRUE","pictures/stimuli/P","pictures/stimuli/P","M","F","6","5a21800f8c1e5c0001715a21800f8c1e5c0001713d893d89","06/19/2022, 14:38:50",0.852575208372396,"23","Male","right",0,0,0,0,FALSE,"P_P_F_michaeliM.jpg P_P_M_liberman.jpg"
1574,"E_C_F_ornaBanai.jpg","P_P_M_liberman.jpg","FALSE","pictures/stimuli/E","pictures/stimuli/P","F","M","6","5a21800f8c1e5c0001715a21800f8c1e5c0001713d893d89","06/19/2022, 14:38:50",0.852575208372396,"23","Male","right",0,0,0,0,FALSE,"E_C_F_ornaBanai.jpg P_P_M_liberman.jpg"
1903,"E_H_F_yanai.jpg","P_P_M_liberman.jpg","FALSE","pictures/stimuli/E","pictures/stimuli/P","F","M","6","5a21800f8c1e5c0001715a21800f8c1e5c0001713d893d89","06/19/2022, 14:38:50",0.852575208372396,"23","Male","right",0,0,0,0,FALSE,"E_H_F_yanai.jpg P_P_M_liberman.jpg"
2339,"P_P_F_michaeliM.jpg","P_P_M_zamir.jpg","TRUE","pictures/stimuli/P","pictures/stimuli/P","F","M","6","5a21800f8c1e5c0001715a21800f8c1e5c0001713d893d89","06/19/2022, 14:38:50",0.852575208372396,"23","Male","right",0,0,0,0,FALSE,"P_P_F_michaeliM.jpg P_P_M_zamir.jpg"
2383,"E_M_M_tavori.jpg","P_N_F_yehimovitz.jpg","FALSE","pictures/stimuli/E","pictures/stimuli/P","M","F","6","5a21800f8c1e5c0001715a21800f8c1e5c0001713d893d89","06/19/2022, 14:38:50",0.852575208372396,"23","Male","right",0,0,0,0,FALSE,"E_M_M_tavori.jpg P_N_F_yehimovitz.jpg"
2038,"E_C_M_shaharHasson.jpg","P_N_M_lapid.jpg","FALSE","pictures/stimuli/E","pictures/stimuli/P","M","M","5","5a21800f8c1e5c0001715a21800f8c1e5c0001713d893d89","06/19/2022, 14:38:50",0.106080786295183,"23","Male","right",0,0,0,0,FALSE,"E_C_M_shaharHasson.jpg P_N_M_lapid.jpg"
2099,"E_C_F_harLev.jpg","P_N_M_lapid.jpg","FALSE","pictures/stimuli/E","pictures/stimuli/P","F","M","6","5a21800f8c1e5c0001715a21800f8c1e5c0001713d893d89","06/19/2022, 14:38:50",0.852575208372396,"23","Male","right",0,0,0,0,FALSE,"E_C_F_harLev.jpg P_N_M_lapid.jpg"
1705,"E_C_F_shaniCo.jpg","P_P_M_liberman.jpg","FALSE","pictures/stimuli/E","pictures/stimuli/P","F","M","6","5a21800f8c1e5c0001715a21800f8c1e5c0001713d893d89","06/19/2022, 14:38:50",0.852575208372396,"23","Male","right",0,0,0,0,FALSE,"E_C_F_shaniCo.jpg P_P_M_liberman.jpg"
1497,"P_P_M_benet.jpg","P_P_M_liberman.jpg","TRUE","pictures/stimuli/P","pictures/stimuli/P","M","M","5","5a21800f8c1e5c0001715a21800f8c1e5c0001713d893d89","06/19/2022, 14:38:50",0.106080786295183,"23","Male","right",0,0,0,0,FALSE,"P_P_M_benet.jpg P_P_M_liberman.jpg"
2087,"E_C_F_ornaBanai.jpg","E_H_F_yanai.jpg","TRUE","pictures/stimuli/E","pictures/stimuli/E","F","F","4","5a21800f8c1e5c0001715a21800f8c1e5c0001713d893d89","06/19/2022, 14:38:50",-0.640413635782031,"23","Male","right",0,0,0,0,FALSE,"E_C_F_ornaBanai.jpg E_H_F_yanai.jpg"
3044,"E_C_M_shaharHasson.jpg","P_P_M_peretz.jpg","FALSE","pictures/stimuli/E","pictures/stimuli/P","M","M","5","5a21800f8c1e5c0001715a21800f8c1e5c0001713d893d89","06/19/2022, 14:38:50",0.106080786295183,"23","Male","right",0,0,0,0,FALSE,"E_C_M_shaharHasson.jpg P_P_M_peretz.jpg"
1788,"E_H_F_yanai.jpg","P_P_M_smootrich.jpg","FALSE","pictures/stimuli/E","pictures/stimuli/P","F","M","6","5a21800f8c1e5c0001715a21800f8c1e5c0001713d893d89","06/19/2022, 14:38:50",0.852575208372396,"23","Male","right",0,0,0,0,FALSE,"E_H_F_yanai.jpg P_P_M_smootrich.jpg"
1865,"E_C_M_alfi.jpg","P_N_F_yehimovitz.jpg","FALSE","pictures/stimuli/E","pictures/stimuli/P","M","F","6","5a21800f8c1e5c0001715a21800f8c1e5c0001713d893d89","06/19/2022, 14:38:50",0.852575208372396,"23","Male","right",0,0,0,0,FALSE,"E_C_M_alfi.jpg P_N_F_yehimovitz.jpg"
1434,"E_H_F_yanai.jpg","P_P_M_zamir.jpg","FALSE","pictures/stimuli/E","pictures/stimuli/P","F","M","6","5a21800f8c1e5c0001715a21800f8c1e5c0001713d893d89","06/19/2022, 14:38:50",0.852575208372396,"23","Male","right",0,0,0,0,FALSE,"E_H_F_yanai.jpg P_P_M_zamir.jpg"
2128,"E_H_F_yanai.jpg","P_P_M_benet.jpg","FALSE","pictures/stimuli/E","pictures/stimuli/P","F","M","6","5a21800f8c1e5c0001715a21800f8c1e5c0001713d893d89","06/19/2022, 14:38:50",0.852575208372396,"23","Male","right",0,0,0,0,FALSE,"E_H_F_yanai.jpg P_P_M_benet.jpg"
3021,"E_M_F_rita.jpg","E_M_M_tavori.jpg","TRUE","pictures/stimuli/E","pictures/stimuli/E","F","M","4","5a21800f8c1e5c0001715a21800f8c1e5c0001713d893d89","06/19/2022, 14:38:50",-0.640413635782031,"23","Male","right",0,0,0,0,FALSE,"E_M_F_rita.jpg E_M_M_tavori.jpg"
7751,"E_C_F_harLev.jpg","P_P_M_zamir.jpg","FALSE","pictures/stimuli/E","pictures/stimuli/P","F","M","4","5a21800f8c1e5c0001715a21800f8c1e5c0001713d893d89","06/19/2022, 14:38:50",-0.640413635782031,"23","Male","right",0,0,0,0,FALSE,"E_C_F_harLev.jpg P_P_M_zamir.jpg"
1487,"E_C_M_katorza.jpg","E_C_M_mushonov.jpg","TRUE","pictures/stimuli/E","pictures/stimuli/E","M","M","5","5a21800f8c1e5c0001715a21800f8c1e5c0001713d893d89","06/19/2022, 14:38:50",0.106080786295183,"23","Male","right",0,0,0,0,FALSE,"E_C_M_katorza.jpg E_C_M_mushonov.jpg"
1981,"E_C_M_katorza.jpg","E_C_F_harLev.jpg","TRUE","pictures/stimuli/E","pictures/stimuli/E","M","F","6","5a21800f8c1e5c0001715a21800f8c1e5c0001713d893d89","06/19/2022, 14:38:50",0.852575208372396,"23","Male","right",0,0,0,0,FALSE,"E_C_F_harLev.jpg E_C_M_katorza.jpg"
1538,"E_C_M_katorza.jpg","P_N_F_yehimovitz.jpg","FALSE","pictures/stimuli/E","pictures/stimuli/P","M","F","6","5a21800f8c1e5c0001715a21800f8c1e5c0001713d893d89","06/19/2022, 14:38:50",0.852575208372396,"23","Male","right",0,0,0,0,FALSE,"E_C_M_katorza.jpg P_N_F_yehimovitz.jpg"
2039,"E_M_M_Ivri.jpg","P_P_M_benet.jpg","FALSE","pictures/stimuli/E","pictures/stimuli/P","M","M","6","5a21800f8c1e5c0001715a21800f8c1e5c0001713d893d89","06/19/2022, 14:38:50",0.852575208372396,"23","Male","right",0,0,0,0,FALSE,"E_M_M_Ivri.jpg P_P_M_benet.jpg"
2667,"E_M_F_rita.jpg","P_P_M_zamir.jpg","FALSE","pictures/stimuli/E","pictures/stimuli/P","F","M","6","5a21800f8c1e5c0001715a21800f8c1e5c0001713d893d89","06/19/2022, 14:38:50",0.852575208372396,"23","Male","right",0,0,0,0,FALSE,"E_M_F_rita.jpg P_P_M_zamir.jpg"
1962,"E_M_F_rita.jpg","P_P_F_michaeliM.jpg","FALSE","pictures/stimuli/E","pictures/stimuli/P","F","F","3","5a21800f8c1e5c0001715a21800f8c1e5c0001713d893d89","06/19/2022, 14:38:50",-1.38690805785924,"23","Male","right",0,0,0,0,FALSE,"E_M_F_rita.jpg P_P_F_michaeliM.jpg"
3395,"P_P_M_liberman.jpg","P_P_M_zamir.jpg","TRUE","pictures/stimuli/P","pictures/stimuli/P","M","M","4","5a21800f8c1e5c0001715a21800f8c1e5c0001713d893d89","06/19/2022, 14:38:50",-0.640413635782031,"23","Male","right",0,0,0,0,FALSE,"P_P_M_liberman.jpg P_P_M_zamir.jpg"
5835,"P_P_M_peretz.jpg","P_N_F_yehimovitz.jpg","TRUE","pictures/stimuli/P","pictures/stimuli/P","M","F","3","5a21800f8c1e5c0001715a21800f8c1e5c0001713d893d89","06/19/2022, 14:38:50",-1.38690805785924,"23","Male","right",0,0,0,0,FALSE,"P_N_F_yehimovitz.jpg P_P_M_peretz.jpg"
2662,"E_M_M_tavori.jpg","E_H_F_yanai.jpg","TRUE","pictures/stimuli/E","pictures/stimuli/E","M","F","5","5a21800f8c1e5c0001715a21800f8c1e5c0001713d893d89","06/19/2022, 14:38:50",0.106080786295183,"23","Male","right",0,0,0,0,FALSE,"E_H_F_yanai.jpg E_M_M_tavori.jpg"
4811,"E_C_M_shaharHasson.jpg","E_M_M_tavori.jpg","TRUE","pictures/stimuli/E","pictures/stimuli/E","M","M","1","5a21800f8c1e5c0001715a21800f8c1e5c0001713d893d89","06/19/2022, 14:38:50",-2.87989690201367,"23","Male","right",0,0,0,0,FALSE,"E_C_M_shaharHasson.jpg E_M_M_tavori.jpg"
3408,"E_C_F_shaniCo.jpg","P_P_M_peretz.jpg","FALSE","pictures/stimuli/E","pictures/stimuli/P","F","M","6","5a21800f8c1e5c0001715a21800f8c1e5c0001713d893d89","06/19/2022, 14:38:50",0.852575208372396,"23","Male","right",0,0,0,0,FALSE,"E_C_F_shaniCo.jpg P_P_M_peretz.jpg"
2264,"E_C_M_alfi.jpg","E_C_F_shaniCo.jpg","TRUE","pictures/stimuli/E","pictures/stimuli/E","M","F","4","5a21800f8c1e5c0001715a21800f8c1e5c0001713d893d89","06/19/2022, 14:38:50",-0.640413635782031,"23","Male","right",0,0,0,0,FALSE,"E_C_F_shaniCo.jpg E_C_M_alfi.jpg"
1720,"E_C_F_harLev.jpg","P_P_M_peretz.jpg","FALSE","pictures/stimuli/E","pictures/stimuli/P","F","M","6","5a21800f8c1e5c0001715a21800f8c1e5c0001713d893d89","06/19/2022, 14:38:50",0.852575208372396,"23","Male","right",0,0,0,0,FALSE,"E_C_F_harLev.jpg P_P_M_peretz.jpg"
2549,"P_P_M_benet.jpg","P_P_M_zamir.jpg","TRUE","pictures/stimuli/P","pictures/stimuli/P","M","M","5","5a21800f8c1e5c0001715a21800f8c1e5c0001713d893d89","06/19/2022, 14:38:50",0.106080786295183,"23","Male","right",0,0,0,0,FALSE,"P_P_M_benet.jpg P_P_M_zamir.jpg"
1712,"E_C_F_harLev.jpg","E_M_F_rita.jpg","TRUE","pictures/stimuli/E","pictures/stimuli/E","F","F","3","5a21800f8c1e5c0001715a21800f8c1e5c0001713d893d89","06/19/2022, 14:38:50",-1.38690805785924,"23","Male","right",0,0,0,0,FALSE,"E_C_F_harLev.jpg E_M_F_rita.jpg"
1892,"P_P_M_peretz.jpg","P_P_M_smootrich.jpg","TRUE","pictures/stimuli/P","pictures/stimuli/P","M","M","3","5a21800f8c1e5c0001715a21800f8c1e5c0001713d893d89","06/19/2022, 14:38:50",-1.38690805785924,"23","Male","right",0,0,0,0,FALSE,"P_P_M_peretz.jpg P_P_M_smootrich.jpg"
1494,"P_P_F_shaked.jpg","P_P_M_zamir.jpg","TRUE","pictures/stimuli/P","pictures/stimuli/P","F","M","6","5a21800f8c1e5c0001715a21800f8c1e5c0001713d893d89","06/19/2022, 14:38:50",0.852575208372396,"23","Male","right",0,0,0,0,FALSE,"P_P_F_shaked.jpg P_P_M_zamir.jpg"
1699,"E_C_M_katorza.jpg","P_P_F_shaked.jpg","FALSE","pictures/stimuli/E","pictures/stimuli/P","M","F","6","5a21800f8c1e5c0001715a21800f8c1e5c0001713d893d89","06/19/2022, 14:38:50",0.852575208372396,"23","Male","right",0,0,0,0,FALSE,"E_C_M_katorza.jpg P_P_F_shaked.jpg"
1681,"E_C_M_alfi.jpg","P_P_F_michaeliM.jpg","FALSE","pictures/stimuli/E","pictures/stimuli/P","M","F","5","5a21800f8c1e5c0001715a21800f8c1e5c0001713d893d89","06/19/2022, 14:38:50",0.106080786295183,"23","Male","right",0,0,0,0,FALSE,"E_C_M_alfi.jpg P_P_F_michaeliM.jpg"
1640,"P_P_M_benet.jpg","P_P_M_peretz.jpg","TRUE","pictures/stimuli/P","pictures/stimuli/P","M","M","5","5a21800f8c1e5c0001715a21800f8c1e5c0001713d893d89","06/19/2022, 14:38:50",0.106080786295183,"23","Male","right",0,0,0,0,FALSE,"P_P_M_benet.jpg P_P_M_peretz.jpg"
5028,"E_C_F_harLev.jpg","P_P_M_smootrich.jpg","FALSE","pictures/stimuli/E","pictures/stimuli/P","F","M","5","5b244233a7cee100011d6924","06/19/2022, 14:57:28",0.707585422075363,"27","Male","right",0,0,0,0,FALSE,"E_C_F_harLev.jpg P_P_M_smootrich.jpg"
3832,"P_N_M_lapid.jpg","P_P_M_zamir.jpg","TRUE","pictures/stimuli/P","pictures/stimuli/P","M","M","4","5b244233a7cee100011d6924","06/19/2022, 14:57:28",-0.0351838055175594,"27","Male","right",1,0,0,0,TRUE,"P_N_M_lapid.jpg P_P_M_zamir.jpg"
3373,"E_C_M_katorza.jpg","P_P_M_smootrich.jpg","FALSE","pictures/stimuli/E","pictures/stimuli/P","M","M","4","5b244233a7cee100011d6924","06/19/2022, 14:57:28",-0.0351838055175594,"27","Male","right",0,0,0,0,FALSE,"E_C_M_katorza.jpg P_P_M_smootrich.jpg"
5363,"E_C_F_shaniCo.jpg","P_P_F_shaked.jpg","FALSE","pictures/stimuli/E","pictures/stimuli/P","F","F","4","5b244233a7cee100011d6924","06/19/2022, 14:57:28",-0.0351838055175594,"27","Male","right",0,0,0,0,FALSE,"E_C_F_shaniCo.jpg P_P_F_shaked.jpg"
4153,"E_C_F_harLev.jpg","E_C_F_shaniCo.jpg","TRUE","pictures/stimuli/E","pictures/stimuli/E","F","F","2","5b244233a7cee100011d6924","06/19/2022, 14:57:28",-1.5207222607034,"27","Male","right",0,0,0,0,FALSE,"E_C_F_harLev.jpg E_C_F_shaniCo.jpg"
3935,"E_C_M_mushonov.jpg","P_P_M_liberman.jpg","FALSE","pictures/stimuli/E","pictures/stimuli/P","M","M","3","5b244233a7cee100011d6924","06/19/2022, 14:57:28",-0.777953033110482,"27","Male","right",0,0,0,0,FALSE,"E_C_M_mushonov.jpg P_P_M_liberman.jpg"
4756,"E_C_M_alfi.jpg","P_P_M_benet.jpg","FALSE","pictures/stimuli/E","pictures/stimuli/P","M","M","4","5b244233a7cee100011d6924","06/19/2022, 14:57:28",-0.0351838055175594,"27","Male","right",0,0,0,0,FALSE,"E_C_M_alfi.jpg P_P_M_benet.jpg"
3532,"E_C_F_shaniCo.jpg","P_P_M_peretz.jpg","FALSE","pictures/stimuli/E","pictures/stimuli/P","F","M","6","5b244233a7cee100011d6924","06/19/2022, 14:57:28",1.45035464966829,"27","Male","right",0,0,0,0,FALSE,"E_C_F_shaniCo.jpg P_P_M_peretz.jpg"
3778,"E_M_M_Ivri.jpg","E_C_M_mushonov.jpg","TRUE","pictures/stimuli/E","pictures/stimuli/E","M","M","5","5b244233a7cee100011d6924","06/19/2022, 14:57:28",0.707585422075363,"27","Male","right",0,0,0,0,FALSE,"E_C_M_mushonov.jpg E_M_M_Ivri.jpg"
4072,"E_M_M_Ivri.jpg","P_P_M_benet.jpg","FALSE","pictures/stimuli/E","pictures/stimuli/P","M","M","5","5b244233a7cee100011d6924","06/19/2022, 14:57:28",0.707585422075363,"27","Male","right",0,0,0,0,FALSE,"E_M_M_Ivri.jpg P_P_M_benet.jpg"
5883,"E_C_M_alfi.jpg","E_M_F_rita.jpg","TRUE","pictures/stimuli/E","pictures/stimuli/E","M","F","6","5b244233a7cee100011d6924","06/19/2022, 14:57:28",1.45035464966829,"27","Male","right",0,0,0,0,FALSE,"E_C_M_alfi.jpg E_M_F_rita.jpg"
5159,"E_C_M_katorza.jpg","P_N_F_yehimovitz.jpg","FALSE","pictures/stimuli/E","pictures/stimuli/P","M","F","6","5b244233a7cee100011d6924","06/19/2022, 14:57:28",1.45035464966829,"27","Male","right",0,0,0,0,FALSE,"E_C_M_katorza.jpg P_N_F_yehimovitz.jpg"
3151,"E_M_F_rita.jpg","P_P_F_shaked.jpg","FALSE","pictures/stimuli/E","pictures/stimuli/P","F","F","4","5b244233a7cee100011d6924","06/19/2022, 14:57:28",-0.0351838055175594,"27","Male","right",0,0,0,0,FALSE,"E_M_F_rita.jpg P_P_F_shaked.jpg"
3306,"E_C_M_mushonov.jpg","E_C_F_ornaBanai.jpg","TRUE","pictures/stimuli/E","pictures/stimuli/E","M","F","6","5b244233a7cee100011d6924","06/19/2022, 14:57:28",1.45035464966829,"27","Male","right",0,0,0,0,FALSE,"E_C_F_ornaBanai.jpg E_C_M_mushonov.jpg"
3451,"E_C_M_shaharHasson.jpg","E_M_F_rita.jpg","TRUE","pictures/stimuli/E","pictures/stimuli/E","M","F","6","5b244233a7cee100011d6924","06/19/2022, 14:57:28",1.45035464966829,"27","Male","right",0,0,0,0,FALSE,"E_C_M_shaharHasson.jpg E_M_F_rita.jpg"
4162,"E_C_M_shaharHasson.jpg","P_P_M_zamir.jpg","FALSE","pictures/stimuli/E","pictures/stimuli/P","M","M","4","5b244233a7cee100011d6924","06/19/2022, 14:57:28",-0.0351838055175594,"27","Male","right",0,0,0,0,FALSE,"E_C_M_shaharHasson.jpg P_P_M_zamir.jpg"
3181,"E_C_F_harLev.jpg","E_M_M_Ivri.jpg","TRUE","pictures/stimuli/E","pictures/stimuli/E","F","M","5","5b244233a7cee100011d6924","06/19/2022, 14:57:28",0.707585422075363,"27","Male","right",0,0,0,0,FALSE,"E_C_F_harLev.jpg E_M_M_Ivri.jpg"
3749,"E_C_F_shaniCo.jpg","P_P_M_liberman.jpg","FALSE","pictures/stimuli/E","pictures/stimuli/P","F","M","5","5b244233a7cee100011d6924","06/19/2022, 14:57:28",0.707585422075363,"27","Male","right",0,0,0,0,FALSE,"E_C_F_shaniCo.jpg P_P_M_liberman.jpg"
3351,"E_C_M_katorza.jpg","P_N_M_lapid.jpg","FALSE","pictures/stimuli/E","pictures/stimuli/P","M","M","5","5b244233a7cee100011d6924","06/19/2022, 14:57:28",0.707585422075363,"27","Male","right",0,1,0,0,TRUE,"E_C_M_katorza.jpg P_N_M_lapid.jpg"
3621,"P_N_M_lapid.jpg","P_P_F_michaeliM.jpg","TRUE","pictures/stimuli/P","pictures/stimuli/P","M","F","5","5b244233a7cee100011d6924","06/19/2022, 14:57:28",0.707585422075363,"27","Male","right",1,0,0,0,TRUE,"P_N_M_lapid.jpg P_P_F_michaeliM.jpg"
3075,"P_P_M_peretz.jpg","P_P_M_smootrich.jpg","TRUE","pictures/stimuli/P","pictures/stimuli/P","M","M","5","5b244233a7cee100011d6924","06/19/2022, 14:57:28",0.707585422075363,"27","Male","right",0,0,0,0,FALSE,"P_P_M_peretz.jpg P_P_M_smootrich.jpg"
4909,"E_C_M_shaharHasson.jpg","P_P_F_shaked.jpg","FALSE","pictures/stimuli/E","pictures/stimuli/P","M","F","4","5b244233a7cee100011d6924","06/19/2022, 14:57:28",-0.0351838055175594,"27","Male","right",0,0,0,0,FALSE,"E_C_M_shaharHasson.jpg P_P_F_shaked.jpg"
3110,"E_C_M_alfi.jpg","E_C_F_shaniCo.jpg","TRUE","pictures/stimuli/E","pictures/stimuli/E","M","F","5","5b244233a7cee100011d6924","06/19/2022, 14:57:28",0.707585422075363,"27","Male","right",0,0,0,0,FALSE,"E_C_F_shaniCo.jpg E_C_M_alfi.jpg"
3306,"E_C_M_mushonov.jpg","P_P_M_peretz.jpg","FALSE","pictures/stimuli/E","pictures/stimuli/P","M","M","3","5b244233a7cee100011d6924","06/19/2022, 14:57:28",-0.777953033110482,"27","Male","right",0,0,0,0,FALSE,"E_C_M_mushonov.jpg P_P_M_peretz.jpg"
3896,"E_C_F_ornaBanai.jpg","P_P_M_zamir.jpg","FALSE","pictures/stimuli/E","pictures/stimuli/P","F","M","5","5b244233a7cee100011d6924","06/19/2022, 14:57:28",0.707585422075363,"27","Male","right",0,0,0,0,FALSE,"E_C_F_ornaBanai.jpg P_P_M_zamir.jpg"
4677,"E_C_F_harLev.jpg","E_H_F_yanai.jpg","TRUE","pictures/stimuli/E","pictures/stimuli/E","F","F","1","5b244233a7cee100011d6924","06/19/2022, 14:57:28",-2.26349148829633,"27","Male","right",0,0,0,0,FALSE,"E_C_F_harLev.jpg E_H_F_yanai.jpg"
3378,"E_M_M_tavori.jpg","P_P_M_peretz.jpg","FALSE","pictures/stimuli/E","pictures/stimuli/P","M","M","2","5b244233a7cee100011d6924","06/19/2022, 14:57:28",-1.5207222607034,"27","Male","right",0,0,0,0,FALSE,"E_M_M_tavori.jpg P_P_M_peretz.jpg"
3796,"E_C_M_shaharHasson.jpg","P_P_F_michaeliM.jpg","FALSE","pictures/stimuli/E","pictures/stimuli/P","M","F","3","5b244233a7cee100011d6924","06/19/2022, 14:57:28",-0.777953033110482,"27","Male","right",0,0,0,0,FALSE,"E_C_M_shaharHasson.jpg P_P_F_michaeliM.jpg"
4341,"E_H_F_yanai.jpg","P_P_M_peretz.jpg","FALSE","pictures/stimuli/E","pictures/stimuli/P","F","M","4","5b244233a7cee100011d6924","06/19/2022, 14:57:28",-0.0351838055175594,"27","Male","right",0,0,0,0,FALSE,"E_H_F_yanai.jpg P_P_M_peretz.jpg"
3551,"E_C_F_ornaBanai.jpg","P_P_F_michaeliM.jpg","FALSE","pictures/stimuli/E","pictures/stimuli/P","F","F","2","5b244233a7cee100011d6924","06/19/2022, 14:57:28",-1.5207222607034,"27","Male","right",0,0,0,0,FALSE,"E_C_F_ornaBanai.jpg P_P_F_michaeliM.jpg"
3055,"P_P_M_peretz.jpg","P_P_F_shaked.jpg","TRUE","pictures/stimuli/P","pictures/stimuli/P","M","F","5","5b244233a7cee100011d6924","06/19/2022, 14:57:28",0.707585422075363,"27","Male","right",0,0,0,0,FALSE,"P_P_F_shaked.jpg P_P_M_peretz.jpg"
3230,"E_M_M_tavori.jpg","P_N_M_lapid.jpg","FALSE","pictures/stimuli/E","pictures/stimuli/P","M","M","3","5b244233a7cee100011d6924","06/19/2022, 14:57:28",-0.777953033110482,"27","Male","right",0,1,0,0,TRUE,"E_M_M_tavori.jpg P_N_M_lapid.jpg"
4058,"P_N_M_lapid.jpg","P_P_M_peretz.jpg","TRUE","pictures/stimuli/P","pictures/stimuli/P","M","M","1","5b244233a7cee100011d6924","06/19/2022, 14:57:28",-2.26349148829633,"27","Male","right",1,0,0,0,TRUE,"P_N_M_lapid.jpg P_P_M_peretz.jpg"
2724,"E_C_F_harLev.jpg","E_C_F_ornaBanai.jpg","TRUE","pictures/stimuli/E","pictures/stimuli/E","F","F","2","5b244233a7cee100011d6924","06/19/2022, 14:57:28",-1.5207222607034,"27","Male","right",0,0,0,0,FALSE,"E_C_F_harLev.jpg E_C_F_ornaBanai.jpg"
3469,"E_C_M_mushonov.jpg","P_P_F_michaeliM.jpg","FALSE","pictures/stimuli/E","pictures/stimuli/P","M","F","6","5b244233a7cee100011d6924","06/19/2022, 14:57:28",1.45035464966829,"27","Male","right",0,0,0,0,FALSE,"E_C_M_mushonov.jpg P_P_F_michaeliM.jpg"
3919,"E_H_F_yanai.jpg","P_P_M_liberman.jpg","FALSE","pictures/stimuli/E","pictures/stimuli/P","F","M","5","5b244233a7cee100011d6924","06/19/2022, 14:57:28",0.707585422075363,"27","Male","right",0,0,0,0,FALSE,"E_H_F_yanai.jpg P_P_M_liberman.jpg"
4426,"E_C_M_katorza.jpg","E_M_M_tavori.jpg","TRUE","pictures/stimuli/E","pictures/stimuli/E","M","M","4","5b244233a7cee100011d6924","06/19/2022, 14:57:28",-0.0351838055175594,"27","Male","right",0,0,0,0,FALSE,"E_C_M_katorza.jpg E_M_M_tavori.jpg"
3797,"E_M_F_rita.jpg","P_P_F_michaeliM.jpg","FALSE","pictures/stimuli/E","pictures/stimuli/P","F","F","3","5b244233a7cee100011d6924","06/19/2022, 14:57:28",-0.777953033110482,"27","Male","right",0,0,0,0,FALSE,"E_M_F_rita.jpg P_P_F_michaeliM.jpg"
3203,"E_C_M_alfi.jpg","P_N_M_lapid.jpg","FALSE","pictures/stimuli/E","pictures/stimuli/P","M","M","4","5b244233a7cee100011d6924","06/19/2022, 14:57:28",-0.0351838055175594,"27","Male","right",0,1,0,0,TRUE,"E_C_M_alfi.jpg P_N_M_lapid.jpg"
3141,"E_C_M_shaharHasson.jpg","P_P_M_smootrich.jpg","FALSE","pictures/stimuli/E","pictures/stimuli/P","M","M","3","5b244233a7cee100011d6924","06/19/2022, 14:57:28",-0.777953033110482,"27","Male","right",0,0,0,0,FALSE,"E_C_M_shaharHasson.jpg P_P_M_smootrich.jpg"
2713,"P_P_F_michaeliM.jpg","P_P_F_shaked.jpg","TRUE","pictures/stimuli/P","pictures/stimuli/P","F","F","3","5b244233a7cee100011d6924","06/19/2022, 14:57:28",-0.777953033110482,"27","Male","right",0,0,0,0,FALSE,"P_P_F_michaeliM.jpg P_P_F_shaked.jpg"
3680,"E_C_M_alfi.jpg","P_N_F_yehimovitz.jpg","FALSE","pictures/stimuli/E","pictures/stimuli/P","M","F","4","5b244233a7cee100011d6924","06/19/2022, 14:57:28",-0.0351838055175594,"27","Male","right",0,0,0,0,FALSE,"E_C_M_alfi.jpg P_N_F_yehimovitz.jpg"
4251,"E_C_F_shaniCo.jpg","P_P_M_benet.jpg","FALSE","pictures/stimuli/E","pictures/stimuli/P","F","M","5","5b244233a7cee100011d6924","06/19/2022, 14:57:28",0.707585422075363,"27","Male","right",0,0,0,0,FALSE,"E_C_F_shaniCo.jpg P_P_M_benet.jpg"
5138,"E_C_M_katorza.jpg","P_P_M_zamir.jpg","FALSE","pictures/stimuli/E","pictures/stimuli/P","M","M","4","5b244233a7cee100011d6924","06/19/2022, 14:57:28",-0.0351838055175594,"27","Male","right",0,0,0,0,FALSE,"E_C_M_katorza.jpg P_P_M_zamir.jpg"
3987,"E_C_M_katorza.jpg","P_P_M_peretz.jpg","FALSE","pictures/stimuli/E","pictures/stimuli/P","M","M","5","5b244233a7cee100011d6924","06/19/2022, 14:57:28",0.707585422075363,"27","Male","right",0,0,0,0,FALSE,"E_C_M_katorza.jpg P_P_M_peretz.jpg"
3984,"E_C_M_mushonov.jpg","P_N_M_lapid.jpg","FALSE","pictures/stimuli/E","pictures/stimuli/P","M","M","3","5b244233a7cee100011d6924","06/19/2022, 14:57:28",-0.777953033110482,"27","Male","right",0,1,0,0,TRUE,"E_C_M_mushonov.jpg P_N_M_lapid.jpg"
3963,"E_M_F_rita.jpg","P_N_F_yehimovitz.jpg","FALSE","pictures/stimuli/E","pictures/stimuli/P","F","F","4","5b244233a7cee100011d6924","06/19/2022, 14:57:28",-0.0351838055175594,"27","Male","right",0,0,0,0,FALSE,"E_M_F_rita.jpg P_N_F_yehimovitz.jpg"
3627,"E_C_F_ornaBanai.jpg","P_P_F_shaked.jpg","FALSE","pictures/stimuli/E","pictures/stimuli/P","F","F","3","5b244233a7cee100011d6924","06/19/2022, 14:57:28",-0.777953033110482,"27","Male","right",0,0,0,0,FALSE,"E_C_F_ornaBanai.jpg P_P_F_shaked.jpg"
3354,"P_P_M_benet.jpg","P_P_M_liberman.jpg","TRUE","pictures/stimuli/P","pictures/stimuli/P","M","M","2","5b244233a7cee100011d6924","06/19/2022, 14:57:28",-1.5207222607034,"27","Male","right",0,0,0,0,FALSE,"P_P_M_benet.jpg P_P_M_liberman.jpg"
3527,"E_M_M_Ivri.jpg","P_P_F_michaeliM.jpg","FALSE","pictures/stimuli/E","pictures/stimuli/P","M","F","5","5b244233a7cee100011d6924","06/19/2022, 14:57:28",0.707585422075363,"27","Male","right",0,0,0,0,FALSE,"E_M_M_Ivri.jpg P_P_F_michaeliM.jpg"
3645,"P_P_M_liberman.jpg","P_N_F_yehimovitz.jpg","TRUE","pictures/stimuli/P","pictures/stimuli/P","M","F","6","5b244233a7cee100011d6924","06/19/2022, 14:57:28",1.45035464966829,"27","Male","right",0,0,0,0,FALSE,"P_N_F_yehimovitz.jpg P_P_M_liberman.jpg"
3512,"E_C_M_alfi.jpg","E_M_M_Ivri.jpg","TRUE","pictures/stimuli/E","pictures/stimuli/E","M","M","4","5b244233a7cee100011d6924","06/19/2022, 14:57:28",-0.0351838055175594,"27","Male","right",0,0,0,0,FALSE,"E_C_M_alfi.jpg E_M_M_Ivri.jpg"
3261,"E_C_M_alfi.jpg","E_C_M_shaharHasson.jpg","TRUE","pictures/stimuli/E","pictures/stimuli/E","M","M","2","5b244233a7cee100011d6924","06/19/2022, 14:57:28",-1.5207222607034,"27","Male","right",0,0,0,0,FALSE,"E_C_M_alfi.jpg E_C_M_shaharHasson.jpg"
6146,"E_C_F_shaniCo.jpg","E_M_M_tavori.jpg","TRUE","pictures/stimuli/E","pictures/stimuli/E","F","M","6","5b244233a7cee100011d6924","06/19/2022, 14:57:28",1.45035464966829,"27","Male","right",0,0,0,0,FALSE,"E_C_F_shaniCo.jpg E_M_M_tavori.jpg"
3370,"E_C_M_katorza.jpg","E_C_M_mushonov.jpg","TRUE","pictures/stimuli/E","pictures/stimuli/E","M","M","6","5b244233a7cee100011d6924","06/19/2022, 14:57:28",1.45035464966829,"27","Male","right",0,0,0,0,FALSE,"E_C_M_katorza.jpg E_C_M_mushonov.jpg"
3644,"E_C_F_harLev.jpg","P_P_M_benet.jpg","FALSE","pictures/stimuli/E","pictures/stimuli/P","F","M","6","5b244233a7cee100011d6924","06/19/2022, 14:57:28",1.45035464966829,"27","Male","right",0,0,0,0,FALSE,"E_C_F_harLev.jpg P_P_M_benet.jpg"
3905,"E_H_F_yanai.jpg","P_P_M_zamir.jpg","FALSE","pictures/stimuli/E","pictures/stimuli/P","F","M","6","5b244233a7cee100011d6924","06/19/2022, 14:57:28",1.45035464966829,"27","Male","right",0,0,0,0,FALSE,"E_H_F_yanai.jpg P_P_M_zamir.jpg"
3757,"E_C_F_ornaBanai.jpg","P_P_M_benet.jpg","FALSE","pictures/stimuli/E","pictures/stimuli/P","F","M","6","5b244233a7cee100011d6924","06/19/2022, 14:57:28",1.45035464966829,"27","Male","right",0,0,0,0,FALSE,"E_C_F_ornaBanai.jpg P_P_M_benet.jpg"
2954,"P_P_M_benet.jpg","P_N_M_lapid.jpg","TRUE","pictures/stimuli/P","pictures/stimuli/P","M","M","3","5b244233a7cee100011d6924","06/19/2022, 14:57:28",-0.777953033110482,"27","Male","right",0,1,0,0,TRUE,"P_N_M_lapid.jpg P_P_M_benet.jpg"
3627,"E_M_F_rita.jpg","P_P_M_peretz.jpg","FALSE","pictures/stimuli/E","pictures/stimuli/P","F","M","5","5b244233a7cee100011d6924","06/19/2022, 14:57:28",0.707585422075363,"27","Male","right",0,0,0,0,FALSE,"E_M_F_rita.jpg P_P_M_peretz.jpg"
4694,"E_C_M_mushonov.jpg","P_P_M_smootrich.jpg","FALSE","pictures/stimuli/E","pictures/stimuli/P","M","M","3","5b244233a7cee100011d6924","06/19/2022, 14:57:28",-0.777953033110482,"27","Male","right",0,0,0,0,FALSE,"E_C_M_mushonov.jpg P_P_M_smootrich.jpg"
4494,"P_P_M_benet.jpg","P_P_M_zamir.jpg","TRUE","pictures/stimuli/P","pictures/stimuli/P","M","M","2","5b244233a7cee100011d6924","06/19/2022, 14:57:28",-1.5207222607034,"27","Male","right",0,0,0,0,FALSE,"P_P_M_benet.jpg P_P_M_zamir.jpg"
2597,"P_N_M_lapid.jpg","P_P_M_smootrich.jpg","TRUE","pictures/stimuli/P","pictures/stimuli/P","M","M","3","5b244233a7cee100011d6924","06/19/2022, 14:57:28",-0.777953033110482,"27","Male","right",1,0,0,0,TRUE,"P_N_M_lapid.jpg P_P_M_smootrich.jpg"
3978,"P_P_M_liberman.jpg","P_P_M_zamir.jpg","TRUE","pictures/stimuli/P","pictures/stimuli/P","M","M","3","5b244233a7cee100011d6924","06/19/2022, 14:57:28",-0.777953033110482,"27","Male","right",0,0,0,0,FALSE,"P_P_M_liberman.jpg P_P_M_zamir.jpg"
6878,"E_C_F_ornaBanai.jpg","E_C_F_shaniCo.jpg","TRUE","pictures/stimuli/E","pictures/stimuli/E","F","F","2","5b244233a7cee100011d6924","06/19/2022, 14:57:28",-1.5207222607034,"27","Male","right",0,0,0,0,FALSE,"E_C_F_ornaBanai.jpg E_C_F_shaniCo.jpg"
2985,"E_C_F_harLev.jpg","P_P_M_liberman.jpg","FALSE","pictures/stimuli/E","pictures/stimuli/P","F","M","6","5b244233a7cee100011d6924","06/19/2022, 14:57:28",1.45035464966829,"27","Male","right",0,0,0,0,FALSE,"E_C_F_harLev.jpg P_P_M_liberman.jpg"
2676,"P_P_M_peretz.jpg","P_N_F_yehimovitz.jpg","TRUE","pictures/stimuli/P","pictures/stimuli/P","M","F","6","5b244233a7cee100011d6924","06/19/2022, 14:57:28",1.45035464966829,"27","Male","right",0,0,0,0,FALSE,"P_N_F_yehimovitz.jpg P_P_M_peretz.jpg"
2868,"E_M_M_Ivri.jpg","E_C_F_shaniCo.jpg","TRUE","pictures/stimuli/E","pictures/stimuli/E","M","F","5","5b244233a7cee100011d6924","06/19/2022, 14:57:28",0.707585422075363,"27","Male","right",0,0,0,0,FALSE,"E_C_F_shaniCo.jpg E_M_M_Ivri.jpg"
3571,"E_M_F_rita.jpg","P_P_M_smootrich.jpg","FALSE","pictures/stimuli/E","pictures/stimuli/P","F","M","5","5b244233a7cee100011d6924","06/19/2022, 14:57:28",0.707585422075363,"27","Male","right",0,0,0,0,FALSE,"E_M_F_rita.jpg P_P_M_smootrich.jpg"
3728,"P_P_F_michaeliM.jpg","P_P_M_peretz.jpg","TRUE","pictures/stimuli/P","pictures/stimuli/P","F","M","5","5b244233a7cee100011d6924","06/19/2022, 14:57:28",0.707585422075363,"27","Male","right",0,0,0,0,FALSE,"P_P_F_michaeliM.jpg P_P_M_peretz.jpg"
3966,"E_C_M_katorza.jpg","E_M_M_Ivri.jpg","TRUE","pictures/stimuli/E","pictures/stimuli/E","M","M","2","5b244233a7cee100011d6924","06/19/2022, 14:57:28",-1.5207222607034,"27","Male","right",0,0,0,0,FALSE,"E_C_M_katorza.jpg E_M_M_Ivri.jpg"
4071,"P_P_M_benet.jpg","P_P_M_smootrich.jpg","TRUE","pictures/stimuli/P","pictures/stimuli/P","M","M","3","5b244233a7cee100011d6924","06/19/2022, 14:57:28",-0.777953033110482,"27","Male","right",0,0,0,0,FALSE,"P_P_M_benet.jpg P_P_M_smootrich.jpg"
3366,"P_P_M_liberman.jpg","P_P_M_peretz.jpg","TRUE","pictures/stimuli/P","pictures/stimuli/P","M","M","2","5b244233a7cee100011d6924","06/19/2022, 14:57:28",-1.5207222607034,"27","Male","right",0,0,0,0,FALSE,"P_P_M_liberman.jpg P_P_M_peretz.jpg"
3288,"E_C_M_shaharHasson.jpg","P_N_M_lapid.jpg","FALSE","pictures/stimuli/E","pictures/stimuli/P","M","M","3","5b244233a7cee100011d6924","06/19/2022, 14:57:28",-0.777953033110482,"27","Male","right",0,1,0,0,TRUE,"E_C_M_shaharHasson.jpg P_N_M_lapid.jpg"
3615,"E_M_M_tavori.jpg","P_P_M_zamir.jpg","FALSE","pictures/stimuli/E","pictures/stimuli/P","M","M","2","5b244233a7cee100011d6924","06/19/2022, 14:57:28",-1.5207222607034,"27","Male","right",0,0,0,0,FALSE,"E_M_M_tavori.jpg P_P_M_zamir.jpg"
5407,"E_C_F_ornaBanai.jpg","E_M_M_tavori.jpg","TRUE","pictures/stimuli/E","pictures/stimuli/E","F","M","5","5b244233a7cee100011d6924","06/19/2022, 14:57:28",0.707585422075363,"27","Male","right",0,0,0,0,FALSE,"E_C_F_ornaBanai.jpg E_M_M_tavori.jpg"
3527,"E_C_M_shaharHasson.jpg","P_P_M_peretz.jpg","FALSE","pictures/stimuli/E","pictures/stimuli/P","M","M","2","5b244233a7cee100011d6924","06/19/2022, 14:57:28",-1.5207222607034,"27","Male","right",0,0,0,0,FALSE,"E_C_M_shaharHasson.jpg P_P_M_peretz.jpg"
3243,"P_N_F_yehimovitz.jpg","P_P_M_zamir.jpg","TRUE","pictures/stimuli/P","pictures/stimuli/P","F","M","6","5b244233a7cee100011d6924","06/19/2022, 14:57:28",1.45035464966829,"27","Male","right",0,0,0,0,FALSE,"P_N_F_yehimovitz.jpg P_P_M_zamir.jpg"
3760,"E_C_M_alfi.jpg","P_P_F_michaeliM.jpg","FALSE","pictures/stimuli/E","pictures/stimuli/P","M","F","4","5b244233a7cee100011d6924","06/19/2022, 14:57:28",-0.0351838055175594,"27","Male","right",0,0,0,0,FALSE,"E_C_M_alfi.jpg P_P_F_michaeliM.jpg"
3929,"E_C_M_katorza.jpg","E_C_F_harLev.jpg","TRUE","pictures/stimuli/E","pictures/stimuli/E","M","F","5","5b244233a7cee100011d6924","06/19/2022, 14:57:28",0.707585422075363,"27","Male","right",0,0,0,0,FALSE,"E_C_F_harLev.jpg E_C_M_katorza.jpg"
3474,"E_M_M_Ivri.jpg","E_M_F_rita.jpg","TRUE","pictures/stimuli/E","pictures/stimuli/E","M","F","5","5b244233a7cee100011d6924","06/19/2022, 14:57:28",0.707585422075363,"27","Male","right",0,0,0,0,FALSE,"E_M_F_rita.jpg E_M_M_Ivri.jpg"
4463,"E_C_M_katorza.jpg","P_P_F_shaked.jpg","FALSE","pictures/stimuli/E","pictures/stimuli/P","M","F","4","5b244233a7cee100011d6924","06/19/2022, 14:57:28",-0.0351838055175594,"27","Male","right",0,0,0,0,FALSE,"E_C_M_katorza.jpg P_P_F_shaked.jpg"
4690,"E_C_F_ornaBanai.jpg","P_N_F_yehimovitz.jpg","FALSE","pictures/stimuli/E","pictures/stimuli/P","F","F","2","5b244233a7cee100011d6924","06/19/2022, 14:57:28",-1.5207222607034,"27","Male","right",0,0,0,0,FALSE,"E_C_F_ornaBanai.jpg P_N_F_yehimovitz.jpg"
3552,"E_C_F_harLev.jpg","E_M_F_rita.jpg","TRUE","pictures/stimuli/E","pictures/stimuli/E","F","F","2","5b244233a7cee100011d6924","06/19/2022, 14:57:28",-1.5207222607034,"27","Male","right",0,0,0,0,FALSE,"E_C_F_harLev.jpg E_M_F_rita.jpg"
3418,"E_M_M_Ivri.jpg","P_P_M_peretz.jpg","FALSE","pictures/stimuli/E","pictures/stimuli/P","M","M","4","5b244233a7cee100011d6924","06/19/2022, 14:57:28",-0.0351838055175594,"27","Male","right",0,0,0,0,FALSE,"E_M_M_Ivri.jpg P_P_M_peretz.jpg"
3803,"P_P_F_shaked.jpg","P_P_M_smootrich.jpg","TRUE","pictures/stimuli/P","pictures/stimuli/P","F","M","5","5b244233a7cee100011d6924","06/19/2022, 14:57:28",0.707585422075363,"27","Male","right",0,0,0,0,FALSE,"P_P_F_shaked.jpg P_P_M_smootrich.jpg"
11326,"E_C_M_katorza.jpg","P_P_M_benet.jpg","FALSE","pictures/stimuli/E","pictures/stimuli/P","M","M","4","5b244233a7cee100011d6924","06/19/2022, 14:57:28",-0.0351838055175594,"27","Male","right",0,0,0,0,FALSE,"E_C_M_katorza.jpg P_P_M_benet.jpg"
4090,"P_P_M_smootrich.jpg","P_P_M_zamir.jpg","TRUE","pictures/stimuli/P","pictures/stimuli/P","M","M","1","5b244233a7cee100011d6924","06/19/2022, 14:57:28",-2.26349148829633,"27","Male","right",0,0,0,0,FALSE,"P_P_M_smootrich.jpg P_P_M_zamir.jpg"
3040,"P_P_M_liberman.jpg","P_P_M_smootrich.jpg","TRUE","pictures/stimuli/P","pictures/stimuli/P","M","M","3","5b244233a7cee100011d6924","06/19/2022, 14:57:28",-0.777953033110482,"27","Male","right",0,0,0,0,FALSE,"P_P_M_liberman.jpg P_P_M_smootrich.jpg"
2826,"E_C_F_shaniCo.jpg","P_N_F_yehimovitz.jpg","FALSE","pictures/stimuli/E","pictures/stimuli/P","F","F","1","5b244233a7cee100011d6924","06/19/2022, 14:57:28",-2.26349148829633,"27","Male","right",0,0,0,0,FALSE,"E_C_F_shaniCo.jpg P_N_F_yehimovitz.jpg"
3746,"E_C_M_alfi.jpg","E_C_F_ornaBanai.jpg","TRUE","pictures/stimuli/E","pictures/stimuli/E","M","F","5","5b244233a7cee100011d6924","06/19/2022, 14:57:28",0.707585422075363,"27","Male","right",0,0,0,0,FALSE,"E_C_F_ornaBanai.jpg E_C_M_alfi.jpg"
6762,"E_C_M_shaharHasson.jpg","P_N_F_yehimovitz.jpg","FALSE","pictures/stimuli/E","pictures/stimuli/P","M","F","5","5b244233a7cee100011d6924","06/19/2022, 14:57:28",0.707585422075363,"27","Male","right",0,0,0,0,FALSE,"E_C_M_shaharHasson.jpg P_N_F_yehimovitz.jpg"
2694,"E_C_F_shaniCo.jpg","P_N_M_lapid.jpg","FALSE","pictures/stimuli/E","pictures/stimuli/P","F","M","6","5b244233a7cee100011d6924","06/19/2022, 14:57:28",1.45035464966829,"27","Male","right",0,1,0,0,TRUE,"E_C_F_shaniCo.jpg P_N_M_lapid.jpg"
9054,"E_C_F_harLev.jpg","E_M_M_tavori.jpg","TRUE","pictures/stimuli/E","pictures/stimuli/E","F","M","5","5b244233a7cee100011d6924","06/19/2022, 14:57:28",0.707585422075363,"27","Male","right",0,0,0,0,FALSE,"E_C_F_harLev.jpg E_M_M_tavori.jpg"
4905,"E_C_F_harLev.jpg","P_N_M_lapid.jpg","FALSE","pictures/stimuli/E","pictures/stimuli/P","F","M","6","5b244233a7cee100011d6924","06/19/2022, 14:57:28",1.45035464966829,"27","Male","right",0,1,0,0,TRUE,"E_C_F_harLev.jpg P_N_M_lapid.jpg"
3008,"E_C_M_alfi.jpg","E_C_M_katorza.jpg","TRUE","pictures/stimuli/E","pictures/stimuli/E","M","M","4","5b244233a7cee100011d6924","06/19/2022, 14:57:28",-0.0351838055175594,"27","Male","right",0,0,0,0,FALSE,"E_C_M_alfi.jpg E_C_M_katorza.jpg"
3828,"E_C_M_alfi.jpg","P_P_M_smootrich.jpg","FALSE","pictures/stimuli/E","pictures/stimuli/P","M","M","3","5b244233a7cee100011d6924","06/19/2022, 14:57:28",-0.777953033110482,"27","Male","right",0,0,0,0,FALSE,"E_C_M_alfi.jpg P_P_M_smootrich.jpg"
5252,"P_P_F_shaked.jpg","P_N_F_yehimovitz.jpg","TRUE","pictures/stimuli/P","pictures/stimuli/P","F","F","2","5b244233a7cee100011d6924","06/19/2022, 14:57:28",-1.5207222607034,"27","Male","right",0,0,0,0,FALSE,"P_N_F_yehimovitz.jpg P_P_F_shaked.jpg"
4456,"E_C_M_alfi.jpg","E_M_M_tavori.jpg","TRUE","pictures/stimuli/E","pictures/stimuli/E","M","M","4","5b244233a7cee100011d6924","06/19/2022, 14:57:28",-0.0351838055175594,"27","Male","right",0,0,0,0,FALSE,"E_C_M_alfi.jpg E_M_M_tavori.jpg"
6785,"P_N_M_lapid.jpg","P_P_F_shaked.jpg","TRUE","pictures/stimuli/P","pictures/stimuli/P","M","F","6","5b244233a7cee100011d6924","06/19/2022, 14:57:28",1.45035464966829,"27","Male","right",1,0,0,0,TRUE,"P_N_M_lapid.jpg P_P_F_shaked.jpg"
4225,"E_C_M_mushonov.jpg","E_M_M_tavori.jpg","TRUE","pictures/stimuli/E","pictures/stimuli/E","M","M","3","5b244233a7cee100011d6924","06/19/2022, 14:57:28",-0.777953033110482,"27","Male","right",0,0,0,0,FALSE,"E_C_M_mushonov.jpg E_M_M_tavori.jpg"
3184,"E_C_M_mushonov.jpg","E_C_F_shaniCo.jpg","TRUE","pictures/stimuli/E","pictures/stimuli/E","M","F","6","5b244233a7cee100011d6924","06/19/2022, 14:57:28",1.45035464966829,"27","Male","right",0,0,0,0,FALSE,"E_C_F_shaniCo.jpg E_C_M_mushonov.jpg"
3443,"P_P_M_liberman.jpg","P_P_F_michaeliM.jpg","TRUE","pictures/stimuli/P","pictures/stimuli/P","M","F","6","5b244233a7cee100011d6924","06/19/2022, 14:57:28",1.45035464966829,"27","Male","right",0,0,0,0,FALSE,"P_P_F_michaeliM.jpg P_P_M_liberman.jpg"
3370,"E_H_F_yanai.jpg","P_P_M_benet.jpg","FALSE","pictures/stimuli/E","pictures/stimuli/P","F","M","6","5b244233a7cee100011d6924","06/19/2022, 14:57:28",1.45035464966829,"27","Male","right",0,0,0,0,FALSE,"E_H_F_yanai.jpg P_P_M_benet.jpg"
3373,"E_H_F_yanai.jpg","P_N_M_lapid.jpg","FALSE","pictures/stimuli/E","pictures/stimuli/P","F","M","6","5b244233a7cee100011d6924","06/19/2022, 14:57:28",1.45035464966829,"27","Male","right",0,1,0,0,TRUE,"E_H_F_yanai.jpg P_N_M_lapid.jpg"
3100,"P_P_F_shaked.jpg","P_P_M_zamir.jpg","TRUE","pictures/stimuli/P","pictures/stimuli/P","F","M","5","5b244233a7cee100011d6924","06/19/2022, 14:57:28",0.707585422075363,"27","Male","right",0,0,0,0,FALSE,"P_P_F_shaked.jpg P_P_M_zamir.jpg"
3914,"E_C_M_katorza.jpg","E_H_F_yanai.jpg","TRUE","pictures/stimuli/E","pictures/stimuli/E","M","F","6","5b244233a7cee100011d6924","06/19/2022, 14:57:28",1.45035464966829,"27","Male","right",0,0,0,0,FALSE,"E_C_M_katorza.jpg E_H_F_yanai.jpg"
2767,"E_M_M_Ivri.jpg","E_H_F_yanai.jpg","TRUE","pictures/stimuli/E","pictures/stimuli/E","M","F","5","5b244233a7cee100011d6924","06/19/2022, 14:57:28",0.707585422075363,"27","Male","right",0,0,0,0,FALSE,"E_H_F_yanai.jpg E_M_M_Ivri.jpg"
3903,"E_C_M_shaharHasson.jpg","E_C_M_mushonov.jpg","TRUE","pictures/stimuli/E","pictures/stimuli/E","M","M","3","5b244233a7cee100011d6924","06/19/2022, 14:57:28",-0.777953033110482,"27","Male","right",0,0,0,0,FALSE,"E_C_M_mushonov.jpg E_C_M_shaharHasson.jpg"
3489,"P_N_M_lapid.jpg","P_N_F_yehimovitz.jpg","TRUE","pictures/stimuli/P","pictures/stimuli/P","M","F","4","5b244233a7cee100011d6924","06/19/2022, 14:57:28",-0.0351838055175594,"27","Male","right",1,0,0,0,TRUE,"P_N_F_yehimovitz.jpg P_N_M_lapid.jpg"
3219,"E_C_M_alfi.jpg","P_P_F_shaked.jpg","FALSE","pictures/stimuli/E","pictures/stimuli/P","M","F","5","5b244233a7cee100011d6924","06/19/2022, 14:57:28",0.707585422075363,"27","Male","right",0,0,0,0,FALSE,"E_C_M_alfi.jpg P_P_F_shaked.jpg"
2414,"E_C_M_mushonov.jpg","P_P_F_shaked.jpg","FALSE","pictures/stimuli/E","pictures/stimuli/P","M","F","5","5b244233a7cee100011d6924","06/19/2022, 14:57:28",0.707585422075363,"27","Male","right",0,0,0,0,FALSE,"E_C_M_mushonov.jpg P_P_F_shaked.jpg"
4327,"E_C_F_ornaBanai.jpg","P_N_M_lapid.jpg","FALSE","pictures/stimuli/E","pictures/stimuli/P","F","M","5","5b244233a7cee100011d6924","06/19/2022, 14:57:28",0.707585422075363,"27","Male","right",0,1,0,0,TRUE,"E_C_F_ornaBanai.jpg P_N_M_lapid.jpg"
3235,"E_M_F_rita.jpg","E_H_F_yanai.jpg","TRUE","pictures/stimuli/E","pictures/stimuli/E","F","F","4","5b244233a7cee100011d6924","06/19/2022, 14:57:28",-0.0351838055175594,"27","Male","right",0,0,0,0,FALSE,"E_H_F_yanai.jpg E_M_F_rita.jpg"
3044,"E_C_F_harLev.jpg","P_P_M_peretz.jpg","FALSE","pictures/stimuli/E","pictures/stimuli/P","F","M","5","5b244233a7cee100011d6924","06/19/2022, 14:57:28",0.707585422075363,"27","Male","right",0,0,0,0,FALSE,"E_C_F_harLev.jpg P_P_M_peretz.jpg"
3338,"P_P_F_michaeliM.jpg","P_P_M_zamir.jpg","TRUE","pictures/stimuli/P","pictures/stimuli/P","F","M","5","5b244233a7cee100011d6924","06/19/2022, 14:57:28",0.707585422075363,"27","Male","right",0,0,0,0,FALSE,"P_P_F_michaeliM.jpg P_P_M_zamir.jpg"
4503,"E_C_F_harLev.jpg","P_P_F_shaked.jpg","FALSE","pictures/stimuli/E","pictures/stimuli/P","F","F","2","5b244233a7cee100011d6924","06/19/2022, 14:57:28",-1.5207222607034,"27","Male","right",0,0,0,0,FALSE,"E_C_F_harLev.jpg P_P_F_shaked.jpg"
4239,"E_C_F_ornaBanai.jpg","P_P_M_liberman.jpg","FALSE","pictures/stimuli/E","pictures/stimuli/P","F","M","4","5b244233a7cee100011d6924","06/19/2022, 14:57:28",-0.0351838055175594,"27","Male","right",0,0,0,0,FALSE,"E_C_F_ornaBanai.jpg P_P_M_liberman.jpg"
6521,"E_M_M_Ivri.jpg","P_P_M_liberman.jpg","FALSE","pictures/stimuli/E","pictures/stimuli/P","M","M","4","5b244233a7cee100011d6924","06/19/2022, 14:57:28",-0.0351838055175594,"27","Male","right",0,0,0,0,FALSE,"E_M_M_Ivri.jpg P_P_M_liberman.jpg"
4818,"E_M_F_rita.jpg","P_P_M_liberman.jpg","FALSE","pictures/stimuli/E","pictures/stimuli/P","F","M","3","5b244233a7cee100011d6924","06/19/2022, 14:57:28",-0.777953033110482,"27","Male","right",0,0,0,0,FALSE,"E_M_F_rita.jpg P_P_M_liberman.jpg"
4547,"E_H_F_yanai.jpg","P_P_M_smootrich.jpg","FALSE","pictures/stimuli/E","pictures/stimuli/P","F","M","5","5b244233a7cee100011d6924","06/19/2022, 14:57:28",0.707585422075363,"27","Male","right",0,0,0,0,FALSE,"E_H_F_yanai.jpg P_P_M_smootrich.jpg"
3379,"E_M_F_rita.jpg","E_C_F_shaniCo.jpg","TRUE","pictures/stimuli/E","pictures/stimuli/E","F","F","2","5b244233a7cee100011d6924","06/19/2022, 14:57:28",-1.5207222607034,"27","Male","right",0,0,0,0,FALSE,"E_C_F_shaniCo.jpg E_M_F_rita.jpg"
3320,"P_P_F_michaeliM.jpg","P_N_F_yehimovitz.jpg","TRUE","pictures/stimuli/P","pictures/stimuli/P","F","F","3","5b244233a7cee100011d6924","06/19/2022, 14:57:28",-0.777953033110482,"27","Male","right",0,0,0,0,FALSE,"P_N_F_yehimovitz.jpg P_P_F_michaeliM.jpg"
3158,"E_C_M_katorza.jpg","P_P_M_liberman.jpg","FALSE","pictures/stimuli/E","pictures/stimuli/P","M","M","4","5b244233a7cee100011d6924","06/19/2022, 14:57:28",-0.0351838055175594,"27","Male","right",0,0,0,0,FALSE,"E_C_M_katorza.jpg P_P_M_liberman.jpg"
3149,"E_M_F_rita.jpg","P_P_M_zamir.jpg","FALSE","pictures/stimuli/E","pictures/stimuli/P","F","M","5","5b244233a7cee100011d6924","06/19/2022, 14:57:28",0.707585422075363,"27","Male","right",0,0,0,0,FALSE,"E_M_F_rita.jpg P_P_M_zamir.jpg"
3727,"E_C_F_harLev.jpg","P_P_M_zamir.jpg","FALSE","pictures/stimuli/E","pictures/stimuli/P","F","M","6","5b244233a7cee100011d6924","06/19/2022, 14:57:28",1.45035464966829,"27","Male","right",0,0,0,0,FALSE,"E_C_F_harLev.jpg P_P_M_zamir.jpg"
3210,"E_C_M_alfi.jpg","E_C_M_mushonov.jpg","TRUE","pictures/stimuli/E","pictures/stimuli/E","M","M","3","5b244233a7cee100011d6924","06/19/2022, 14:57:28",-0.777953033110482,"27","Male","right",0,0,0,0,FALSE,"E_C_M_alfi.jpg E_C_M_mushonov.jpg"
3425,"P_P_M_benet.jpg","P_P_M_peretz.jpg","TRUE","pictures/stimuli/P","pictures/stimuli/P","M","M","2","5b244233a7cee100011d6924","06/19/2022, 14:57:28",-1.5207222607034,"27","Male","right",0,0,0,0,FALSE,"P_P_M_benet.jpg P_P_M_peretz.jpg"
2910,"E_C_M_mushonov.jpg","E_M_F_rita.jpg","TRUE","pictures/stimuli/E","pictures/stimuli/E","M","F","6","5b244233a7cee100011d6924","06/19/2022, 14:57:28",1.45035464966829,"27","Male","right",0,0,0,0,FALSE,"E_C_M_mushonov.jpg E_M_F_rita.jpg"
4065,"E_C_F_ornaBanai.jpg","P_P_M_smootrich.jpg","FALSE","pictures/stimuli/E","pictures/stimuli/P","F","M","5","5b244233a7cee100011d6924","06/19/2022, 14:57:28",0.707585422075363,"27","Male","right",0,0,0,0,FALSE,"E_C_F_ornaBanai.jpg P_P_M_smootrich.jpg"
3919,"E_C_M_shaharHasson.jpg","E_C_F_ornaBanai.jpg","TRUE","pictures/stimuli/E","pictures/stimuli/E","M","F","4","5b244233a7cee100011d6924","06/19/2022, 14:57:28",-0.0351838055175594,"27","Male","right",0,0,0,0,FALSE,"E_C_F_ornaBanai.jpg E_C_M_shaharHasson.jpg"
3784,"P_P_M_smootrich.jpg","P_N_F_yehimovitz.jpg","TRUE","pictures/stimuli/P","pictures/stimuli/P","M","F","5","5b244233a7cee100011d6924","06/19/2022, 14:57:28",0.707585422075363,"27","Male","right",0,0,0,0,FALSE,"P_N_F_yehimovitz.jpg P_P_M_smootrich.jpg"
2378,"E_C_M_shaharHasson.jpg","P_P_M_benet.jpg","FALSE","pictures/stimuli/E","pictures/stimuli/P","M","M","3","5b244233a7cee100011d6924","06/19/2022, 14:57:28",-0.777953033110482,"27","Male","right",0,0,0,0,FALSE,"E_C_M_shaharHasson.jpg P_P_M_benet.jpg"
2866,"E_C_M_shaharHasson.jpg","P_P_M_liberman.jpg","FALSE","pictures/stimuli/E","pictures/stimuli/P","M","M","3","5b244233a7cee100011d6924","06/19/2022, 14:57:28",-0.777953033110482,"27","Male","right",0,0,0,0,FALSE,"E_C_M_shaharHasson.jpg P_P_M_liberman.jpg"
3540,"E_H_F_yanai.jpg","P_N_F_yehimovitz.jpg","FALSE","pictures/stimuli/E","pictures/stimuli/P","F","F","2","5b244233a7cee100011d6924","06/19/2022, 14:57:28",-1.5207222607034,"27","Male","right",0,0,0,0,FALSE,"E_H_F_yanai.jpg P_N_F_yehimovitz.jpg"
3242,"E_M_M_tavori.jpg","P_P_M_liberman.jpg","FALSE","pictures/stimuli/E","pictures/stimuli/P","M","M","3","5b244233a7cee100011d6924","06/19/2022, 14:57:28",-0.777953033110482,"27","Male","right",0,0,0,0,FALSE,"E_M_M_tavori.jpg P_P_M_liberman.jpg"
4065,"E_M_M_Ivri.jpg","E_C_F_ornaBanai.jpg","TRUE","pictures/stimuli/E","pictures/stimuli/E","M","F","3","5b244233a7cee100011d6924","06/19/2022, 14:57:28",-0.777953033110482,"27","Male","right",0,0,0,0,FALSE,"E_C_F_ornaBanai.jpg E_M_M_Ivri.jpg"
3726,"E_C_F_shaniCo.jpg","P_P_F_michaeliM.jpg","FALSE","pictures/stimuli/E","pictures/stimuli/P","F","F","2","5b244233a7cee100011d6924","06/19/2022, 14:57:28",-1.5207222607034,"27","Male","right",0,0,0,0,FALSE,"E_C_F_shaniCo.jpg P_P_F_michaeliM.jpg"
2809,"E_H_F_yanai.jpg","P_P_F_michaeliM.jpg","FALSE","pictures/stimuli/E","pictures/stimuli/P","F","F","3","5b244233a7cee100011d6924","06/19/2022, 14:57:28",-0.777953033110482,"27","Male","right",0,0,0,0,FALSE,"E_H_F_yanai.jpg P_P_F_michaeliM.jpg"
4714,"P_P_F_michaeliM.jpg","P_P_M_smootrich.jpg","TRUE","pictures/stimuli/P","pictures/stimuli/P","F","M","4","5b244233a7cee100011d6924","06/19/2022, 14:57:28",-0.0351838055175594,"27","Male","right",0,0,0,0,FALSE,"P_P_F_michaeliM.jpg P_P_M_smootrich.jpg"
2590,"E_C_M_alfi.jpg","E_C_F_harLev.jpg","TRUE","pictures/stimuli/E","pictures/stimuli/E","M","F","4","5b244233a7cee100011d6924","06/19/2022, 14:57:28",-0.0351838055175594,"27","Male","right",0,0,0,0,FALSE,"E_C_F_harLev.jpg E_C_M_alfi.jpg"
3479,"E_M_F_rita.jpg","P_N_M_lapid.jpg","FALSE","pictures/stimuli/E","pictures/stimuli/P","F","M","5","5b244233a7cee100011d6924","06/19/2022, 14:57:28",0.707585422075363,"27","Male","right",0,1,0,0,TRUE,"E_M_F_rita.jpg P_N_M_lapid.jpg"
3191,"E_C_M_shaharHasson.jpg","E_C_F_shaniCo.jpg","TRUE","pictures/stimuli/E","pictures/stimuli/E","M","F","5","5b244233a7cee100011d6924","06/19/2022, 14:57:28",0.707585422075363,"27","Male","right",0,0,0,0,FALSE,"E_C_F_shaniCo.jpg E_C_M_shaharHasson.jpg"
3267,"E_C_F_harLev.jpg","P_P_F_michaeliM.jpg","FALSE","pictures/stimuli/E","pictures/stimuli/P","F","F","2","5b244233a7cee100011d6924","06/19/2022, 14:57:28",-1.5207222607034,"27","Male","right",0,0,0,0,FALSE,"E_C_F_harLev.jpg P_P_F_michaeliM.jpg"
4009,"P_P_M_benet.jpg","P_P_F_michaeliM.jpg","TRUE","pictures/stimuli/P","pictures/stimuli/P","M","F","5","5b244233a7cee100011d6924","06/19/2022, 14:57:28",0.707585422075363,"27","Male","right",0,0,0,0,FALSE,"P_P_F_michaeliM.jpg P_P_M_benet.jpg"
4716,"E_M_M_Ivri.jpg","P_P_F_shaked.jpg","FALSE","pictures/stimuli/E","pictures/stimuli/P","M","F","4","5b244233a7cee100011d6924","06/19/2022, 14:57:28",-0.0351838055175594,"27","Male","right",0,0,0,0,FALSE,"E_M_M_Ivri.jpg P_P_F_shaked.jpg"
2574,"E_C_M_alfi.jpg","P_P_M_zamir.jpg","FALSE","pictures/stimuli/E","pictures/stimuli/P","M","M","2","5b244233a7cee100011d6924","06/19/2022, 14:57:28",-1.5207222607034,"27","Male","right",0,0,0,0,FALSE,"E_C_M_alfi.jpg P_P_M_zamir.jpg"
3524,"E_M_M_Ivri.jpg","P_P_M_smootrich.jpg","FALSE","pictures/stimuli/E","pictures/stimuli/P","M","M","3","5b244233a7cee100011d6924","06/19/2022, 14:57:28",-0.777953033110482,"27","Male","right",0,0,0,0,FALSE,"E_M_M_Ivri.jpg P_P_M_smootrich.jpg"
7231,"E_C_M_alfi.jpg","P_P_M_liberman.jpg","FALSE","pictures/stimuli/E","pictures/stimuli/P","M","M","3","5b244233a7cee100011d6924","06/19/2022, 14:57:28",-0.777953033110482,"27","Male","right",0,0,0,0,FALSE,"E_C_M_alfi.jpg P_P_M_liberman.jpg"
3248,"E_C_M_mushonov.jpg","P_P_M_benet.jpg","FALSE","pictures/stimuli/E","pictures/stimuli/P","M","M","3","5b244233a7cee100011d6924","06/19/2022, 14:57:28",-0.777953033110482,"27","Male","right",0,0,0,0,FALSE,"E_C_M_mushonov.jpg P_P_M_benet.jpg"
4493,"E_C_F_shaniCo.jpg","P_P_M_zamir.jpg","FALSE","pictures/stimuli/E","pictures/stimuli/P","F","M","5","5b244233a7cee100011d6924","06/19/2022, 14:57:28",0.707585422075363,"27","Male","right",0,0,0,0,FALSE,"E_C_F_shaniCo.jpg P_P_M_zamir.jpg"
4656,"E_C_F_shaniCo.jpg","E_H_F_yanai.jpg","TRUE","pictures/stimuli/E","pictures/stimuli/E","F","F","2","5b244233a7cee100011d6924","06/19/2022, 14:57:28",-1.5207222607034,"27","Male","right",0,0,0,0,FALSE,"E_C_F_shaniCo.jpg E_H_F_yanai.jpg"
3219,"E_M_M_tavori.jpg","E_H_F_yanai.jpg","TRUE","pictures/stimuli/E","pictures/stimuli/E","M","F","5","5b244233a7cee100011d6924","06/19/2022, 14:57:28",0.707585422075363,"27","Male","right",0,0,0,0,FALSE,"E_H_F_yanai.jpg E_M_M_tavori.jpg"
3285,"E_C_M_mushonov.jpg","P_P_M_zamir.jpg","FALSE","pictures/stimuli/E","pictures/stimuli/P","M","M","3","5b244233a7cee100011d6924","06/19/2022, 14:57:28",-0.777953033110482,"27","Male","right",0,0,0,0,FALSE,"E_C_M_mushonov.jpg P_P_M_zamir.jpg"
2727,"E_C_M_alfi.jpg","P_P_M_peretz.jpg","FALSE","pictures/stimuli/E","pictures/stimuli/P","M","M","3","5b244233a7cee100011d6924","06/19/2022, 14:57:28",-0.777953033110482,"27","Male","right",0,0,0,0,FALSE,"E_C_M_alfi.jpg P_P_M_peretz.jpg"
3577,"E_C_M_mushonov.jpg","E_H_F_yanai.jpg","TRUE","pictures/stimuli/E","pictures/stimuli/E","M","F","5","5b244233a7cee100011d6924","06/19/2022, 14:57:28",0.707585422075363,"27","Male","right",0,0,0,0,FALSE,"E_C_M_mushonov.jpg E_H_F_yanai.jpg"
5315,"E_C_M_katorza.jpg","E_C_F_shaniCo.jpg","TRUE","pictures/stimuli/E","pictures/stimuli/E","M","F","5","5b244233a7cee100011d6924","06/19/2022, 14:57:28",0.707585422075363,"27","Male","right",0,0,0,0,FALSE,"E_C_F_shaniCo.jpg E_C_M_katorza.jpg"
3028,"P_N_M_lapid.jpg","P_P_M_liberman.jpg","TRUE","pictures/stimuli/P","pictures/stimuli/P","M","M","4","5b244233a7cee100011d6924","06/19/2022, 14:57:28",-0.0351838055175594,"27","Male","right",1,0,0,0,TRUE,"P_N_M_lapid.jpg P_P_M_liberman.jpg"
4488,"E_M_M_tavori.jpg","P_P_M_benet.jpg","FALSE","pictures/stimuli/E","pictures/stimuli/P","M","M","3","5b244233a7cee100011d6924","06/19/2022, 14:57:28",-0.777953033110482,"27","Male","right",0,0,0,0,FALSE,"E_M_M_tavori.jpg P_P_M_benet.jpg"
4121,"E_C_F_ornaBanai.jpg","E_M_F_rita.jpg","TRUE","pictures/stimuli/E","pictures/stimuli/E","F","F","2","5b244233a7cee100011d6924","06/19/2022, 14:57:28",-1.5207222607034,"27","Male","right",0,0,0,0,FALSE,"E_C_F_ornaBanai.jpg E_M_F_rita.jpg"
5083,"E_C_F_ornaBanai.jpg","E_H_F_yanai.jpg","TRUE","pictures/stimuli/E","pictures/stimuli/E","F","F","3","5b244233a7cee100011d6924","06/19/2022, 14:57:28",-0.777953033110482,"27","Male","right",0,0,0,0,FALSE,"E_C_F_ornaBanai.jpg E_H_F_yanai.jpg"
3068,"E_M_M_Ivri.jpg","P_N_M_lapid.jpg","FALSE","pictures/stimuli/E","pictures/stimuli/P","M","M","4","5b244233a7cee100011d6924","06/19/2022, 14:57:28",-0.0351838055175594,"27","Male","right",0,1,0,0,TRUE,"E_M_M_Ivri.jpg P_N_M_lapid.jpg"
3378,"E_C_M_shaharHasson.jpg","E_M_M_Ivri.jpg","TRUE","pictures/stimuli/E","pictures/stimuli/E","M","M","2","5b244233a7cee100011d6924","06/19/2022, 14:57:28",-1.5207222607034,"27","Male","right",0,0,0,0,FALSE,"E_C_M_shaharHasson.jpg E_M_M_Ivri.jpg"
3105,"E_M_M_Ivri.jpg","P_N_F_yehimovitz.jpg","FALSE","pictures/stimuli/E","pictures/stimuli/P","M","F","5","5b244233a7cee100011d6924","06/19/2022, 14:57:28",0.707585422075363,"27","Male","right",0,0,0,0,FALSE,"E_M_M_Ivri.jpg P_N_F_yehimovitz.jpg"
2462,"E_C_F_shaniCo.jpg","P_P_M_smootrich.jpg","FALSE","pictures/stimuli/E","pictures/stimuli/P","F","M","5","5b244233a7cee100011d6924","06/19/2022, 14:57:28",0.707585422075363,"27","Male","right",0,0,0,0,FALSE,"E_C_F_shaniCo.jpg P_P_M_smootrich.jpg"
2893,"E_C_F_harLev.jpg","E_C_M_shaharHasson.jpg","TRUE","pictures/stimuli/E","pictures/stimuli/E","F","M","4","5b244233a7cee100011d6924","06/19/2022, 14:57:28",-0.0351838055175594,"27","Male","right",0,0,0,0,FALSE,"E_C_F_harLev.jpg E_C_M_shaharHasson.jpg"
2985,"E_C_M_katorza.jpg","P_P_F_michaeliM.jpg","FALSE","pictures/stimuli/E","pictures/stimuli/P","M","F","5","5b244233a7cee100011d6924","06/19/2022, 14:57:28",0.707585422075363,"27","Male","right",0,0,0,0,FALSE,"E_C_M_katorza.jpg P_P_F_michaeliM.jpg"
3136,"E_M_M_Ivri.jpg","P_P_M_zamir.jpg","FALSE","pictures/stimuli/E","pictures/stimuli/P","M","M","3","5b244233a7cee100011d6924","06/19/2022, 14:57:28",-0.777953033110482,"27","Male","right",0,0,0,0,FALSE,"E_M_M_Ivri.jpg P_P_M_zamir.jpg"
3452,"E_H_F_yanai.jpg","P_P_F_shaked.jpg","FALSE","pictures/stimuli/E","pictures/stimuli/P","F","F","5","5b244233a7cee100011d6924","06/19/2022, 14:57:28",0.707585422075363,"27","Male","right",0,0,0,0,FALSE,"E_H_F_yanai.jpg P_P_F_shaked.jpg"
6352,"E_C_M_alfi.jpg","E_H_F_yanai.jpg","TRUE","pictures/stimuli/E","pictures/stimuli/E","M","F","5","5b244233a7cee100011d6924","06/19/2022, 14:57:28",0.707585422075363,"27","Male","right",0,0,0,0,FALSE,"E_C_M_alfi.jpg E_H_F_yanai.jpg"
2565,"E_C_M_shaharHasson.jpg","E_M_M_tavori.jpg","TRUE","pictures/stimuli/E","pictures/stimuli/E","M","M","3","5b244233a7cee100011d6924","06/19/2022, 14:57:28",-0.777953033110482,"27","Male","right",0,0,0,0,FALSE,"E_C_M_shaharHasson.jpg E_M_M_tavori.jpg"
3368,"E_C_M_mushonov.jpg","P_N_F_yehimovitz.jpg","FALSE","pictures/stimuli/E","pictures/stimuli/P","M","F","4","5b244233a7cee100011d6924","06/19/2022, 14:57:28",-0.0351838055175594,"27","Male","right",0,0,0,0,FALSE,"E_C_M_mushonov.jpg P_N_F_yehimovitz.jpg"
3195,"E_M_M_tavori.jpg","P_P_F_michaeliM.jpg","FALSE","pictures/stimuli/E","pictures/stimuli/P","M","F","4","5b244233a7cee100011d6924","06/19/2022, 14:57:28",-0.0351838055175594,"27","Male","right",0,0,0,0,FALSE,"E_M_M_tavori.jpg P_P_F_michaeliM.jpg"
2909,"P_P_M_benet.jpg","P_P_F_shaked.jpg","TRUE","pictures/stimuli/P","pictures/stimuli/P","M","F","5","5b244233a7cee100011d6924","06/19/2022, 14:57:28",0.707585422075363,"27","Male","right",0,0,0,0,FALSE,"P_P_F_shaked.jpg P_P_M_benet.jpg"
4048,"E_C_F_harLev.jpg","P_N_F_yehimovitz.jpg","FALSE","pictures/stimuli/E","pictures/stimuli/P","F","F","2","5b244233a7cee100011d6924","06/19/2022, 14:57:28",-1.5207222607034,"27","Male","right",0,0,0,0,FALSE,"E_C_F_harLev.jpg P_N_F_yehimovitz.jpg"
2887,"P_P_M_liberman.jpg","P_P_F_shaked.jpg","TRUE","pictures/stimuli/P","pictures/stimuli/P","M","F","5","5b244233a7cee100011d6924","06/19/2022, 14:57:28",0.707585422075363,"27","Male","right",0,0,0,0,FALSE,"P_P_F_shaked.jpg P_P_M_liberman.jpg"
2832,"E_C_M_katorza.jpg","E_C_M_shaharHasson.jpg","TRUE","pictures/stimuli/E","pictures/stimuli/E","M","M","4","5b244233a7cee100011d6924","06/19/2022, 14:57:28",-0.0351838055175594,"27","Male","right",0,0,0,0,FALSE,"E_C_M_katorza.jpg E_C_M_shaharHasson.jpg"
2426,"E_C_F_ornaBanai.jpg","P_P_M_peretz.jpg","FALSE","pictures/stimuli/E","pictures/stimuli/P","F","M","5","5b244233a7cee100011d6924","06/19/2022, 14:57:28",0.707585422075363,"27","Male","right",0,0,0,0,FALSE,"E_C_F_ornaBanai.jpg P_P_M_peretz.jpg"
3593,"E_M_M_tavori.jpg","P_P_F_shaked.jpg","FALSE","pictures/stimuli/E","pictures/stimuli/P","M","F","6","5b244233a7cee100011d6924","06/19/2022, 14:57:28",1.45035464966829,"27","Male","right",0,0,0,0,FALSE,"E_M_M_tavori.jpg P_P_F_shaked.jpg"
2776,"E_C_M_shaharHasson.jpg","E_H_F_yanai.jpg","TRUE","pictures/stimuli/E","pictures/stimuli/E","M","F","4","5b244233a7cee100011d6924","06/19/2022, 14:57:28",-0.0351838055175594,"27","Male","right",0,0,0,0,FALSE,"E_C_M_shaharHasson.jpg E_H_F_yanai.jpg"
2546,"E_C_F_harLev.jpg","E_C_M_mushonov.jpg","TRUE","pictures/stimuli/E","pictures/stimuli/E","F","M","5","5b244233a7cee100011d6924","06/19/2022, 14:57:28",0.707585422075363,"27","Male","right",0,0,0,0,FALSE,"E_C_F_harLev.jpg E_C_M_mushonov.jpg"
3134,"P_P_M_benet.jpg","P_N_F_yehimovitz.jpg","TRUE","pictures/stimuli/P","pictures/stimuli/P","M","F","5","5b244233a7cee100011d6924","06/19/2022, 14:57:28",0.707585422075363,"27","Male","right",0,0,0,0,FALSE,"P_N_F_yehimovitz.jpg P_P_M_benet.jpg"
2792,"E_C_M_katorza.jpg","E_M_F_rita.jpg","TRUE","pictures/stimuli/E","pictures/stimuli/E","M","F","5","5b244233a7cee100011d6924","06/19/2022, 14:57:28",0.707585422075363,"27","Male","right",0,0,0,0,FALSE,"E_C_M_katorza.jpg E_M_F_rita.jpg"
3148,"P_P_M_peretz.jpg","P_P_M_zamir.jpg","TRUE","pictures/stimuli/P","pictures/stimuli/P","M","M","3","5b244233a7cee100011d6924","06/19/2022, 14:57:28",-0.777953033110482,"27","Male","right",0,0,0,0,FALSE,"P_P_M_peretz.jpg P_P_M_zamir.jpg"
2614,"E_M_F_rita.jpg","P_P_M_benet.jpg","FALSE","pictures/stimuli/E","pictures/stimuli/P","F","M","5","5b244233a7cee100011d6924","06/19/2022, 14:57:28",0.707585422075363,"27","Male","right",0,0,0,0,FALSE,"E_M_F_rita.jpg P_P_M_benet.jpg"
2369,"E_M_F_rita.jpg","E_M_M_tavori.jpg","TRUE","pictures/stimuli/E","pictures/stimuli/E","F","M","5","5b244233a7cee100011d6924","06/19/2022, 14:57:28",0.707585422075363,"27","Male","right",0,0,0,0,FALSE,"E_M_F_rita.jpg E_M_M_tavori.jpg"
2471,"E_C_M_katorza.jpg","E_C_F_ornaBanai.jpg","TRUE","pictures/stimuli/E","pictures/stimuli/E","M","F","4","5b244233a7cee100011d6924","06/19/2022, 14:57:28",-0.0351838055175594,"27","Male","right",0,0,0,0,FALSE,"E_C_F_ornaBanai.jpg E_C_M_katorza.jpg"
3601,"E_M_M_tavori.jpg","P_N_F_yehimovitz.jpg","FALSE","pictures/stimuli/E","pictures/stimuli/P","M","F","6","5b244233a7cee100011d6924","06/19/2022, 14:57:28",1.45035464966829,"27","Male","right",0,0,0,0,FALSE,"E_M_M_tavori.jpg P_N_F_yehimovitz.jpg"
2641,"E_M_M_tavori.jpg","P_P_M_smootrich.jpg","FALSE","pictures/stimuli/E","pictures/stimuli/P","M","M","4","5b244233a7cee100011d6924","06/19/2022, 14:57:28",-0.0351838055175594,"27","Male","right",0,0,0,0,FALSE,"E_M_M_tavori.jpg P_P_M_smootrich.jpg"
2370,"E_M_M_Ivri.jpg","E_M_M_tavori.jpg","TRUE","pictures/stimuli/E","pictures/stimuli/E","M","M","3","5b244233a7cee100011d6924","06/19/2022, 14:57:28",-0.777953033110482,"27","Male","right",0,0,0,0,FALSE,"E_M_M_Ivri.jpg E_M_M_tavori.jpg"
4544,"E_C_M_alfi.jpg","P_P_M_benet.jpg","FALSE","pictures/stimuli/E","pictures/stimuli/P","M","M","5","5b73e17f1f4c3c0001516dd7","06/19/2022, 14:49:16",0.573458548798875,"31","Female","right",0,0,0,0,FALSE,"E_C_M_alfi.jpg P_P_M_benet.jpg"
11849,"E_C_F_harLev.jpg","E_C_M_mushonov.jpg","TRUE","pictures/stimuli/E","pictures/stimuli/E","F","M","5","5b73e17f1f4c3c0001516dd7","06/19/2022, 14:49:16",0.573458548798875,"31","Female","right",0,0,0,0,FALSE,"E_C_F_harLev.jpg E_C_M_mushonov.jpg"
3674,"E_H_F_yanai.jpg","P_P_M_liberman.jpg","FALSE","pictures/stimuli/E","pictures/stimuli/P","F","M","5","5b73e17f1f4c3c0001516dd7","06/19/2022, 14:49:16",0.573458548798875,"31","Female","right",0,0,0,0,FALSE,"E_H_F_yanai.jpg P_P_M_liberman.jpg"
3979,"P_N_M_lapid.jpg","P_N_F_yehimovitz.jpg","TRUE","pictures/stimuli/P","pictures/stimuli/P","M","F","5","5b73e17f1f4c3c0001516dd7","06/19/2022, 14:49:16",0.573458548798875,"31","Female","right",0,0,0,0,FALSE,"P_N_F_yehimovitz.jpg P_N_M_lapid.jpg"
2848,"E_M_M_tavori.jpg","P_N_F_yehimovitz.jpg","FALSE","pictures/stimuli/E","pictures/stimuli/P","M","F","6","5b73e17f1f4c3c0001516dd7","06/19/2022, 14:49:16",1.41159027396646,"31","Female","right",1,0,0,0,TRUE,"E_M_M_tavori.jpg P_N_F_yehimovitz.jpg"
2196,"E_C_M_alfi.jpg","E_C_F_harLev.jpg","TRUE","pictures/stimuli/E","pictures/stimuli/E","M","F","4","5b73e17f1f4c3c0001516dd7","06/19/2022, 14:49:16",-0.264673176368712,"31","Female","right",0,0,0,0,FALSE,"E_C_F_harLev.jpg E_C_M_alfi.jpg"
5131,"P_P_M_liberman.jpg","P_P_M_zamir.jpg","TRUE","pictures/stimuli/P","pictures/stimuli/P","M","M","3","5b73e17f1f4c3c0001516dd7","06/19/2022, 14:49:16",-1.1028049015363,"31","Female","right",0,0,0,0,FALSE,"P_P_M_liberman.jpg P_P_M_zamir.jpg"
