"RT","img_1","img_2","isSameProffesion","img1proffesion","img2proffesion","img1Gender","img2Gender","keyPressed","participant","time","normlised_keyPress","age","gender","handedness","isFamiliar_img1","isFamiliar_img2","vividness_img1","vividness_img2","reject_trial","condition","pair"
NA,"P_M_Sajid_Javid.png","P_M_Michael_Gove.png",NA,NA,NA,NA,NA,0.3637128,NA,NA,NA,NA,NA,NA,NA,NA,NA,NA,FALSE,"CLIP_Typ","P_M_Michael_Gove.png P_M_Sajid_Javid.png"
NA,"P_M_Sajid_Javid.png","E_F_Dawn_Roma_French.png",NA,NA,NA,NA,NA,0.50393286,NA,NA,NA,NA,NA,NA,NA,NA,NA,NA,FALSE,"CLIP_Typ","E_F_Dawn_Roma_French.png P_M_Sajid_Javid.png"
NA,"P_M_Sajid_Javid.png","E_M_Ewan_McGregor.png",NA,NA,NA,NA,NA,0.48705065,NA,NA,NA,NA,NA,NA,NA,NA,NA,NA,FALSE,"CLIP_Typ","E_M_Ewan_McGregor.png P_M_Sajid_Javid.png"
NA,"P_M_Sajid_Javid.png","E_M_Russell_Howard.png",NA,NA,NA,NA,NA,0.463591,NA,NA,NA,NA,NA,NA,NA,NA,NA,NA,FALSE,"CLIP_Typ","E_M_Russell_Howard.png P_M_Sajid_Javid.png"
NA,"P_M_Sajid_Javid.png","E_M_Simon_Pegg.png",NA,NA,NA,NA,NA,0.4506629,NA,NA,NA,NA,NA,NA,NA,NA,NA,NA,FALSE,"CLIP_Typ","E_M_Simon_Pegg.png P_M_Sajid_Javid.png"
NA,"P_M_Sajid_Javid.png","E_M_Jimmy_Carr.png",NA,NA,NA,NA,NA,0.4705787,NA,NA,NA,NA,NA,NA,NA,NA,NA,NA,FALSE,"CLIP_Typ","E_M_Jimmy_Carr.png P_M_Sajid_Javid.png"
NA,"P_M_Sajid_Javid.png","P_M_nigel_farage.png",NA,NA,NA,NA,NA,0.25568837,NA,NA,NA,NA,NA,NA,NA,NA,NA,NA,FALSE,"CLIP_Typ","P_M_nigel_farage.png P_M_Sajid_Javid.png"
NA,"P_M_Sajid_Javid.png","E_M_Peter_Kay.png",NA,NA,NA,NA,NA,0.43093145,NA,NA,NA,NA,NA,NA,NA,NA,NA,NA,FALSE,"CLIP_Typ","E_M_Peter_Kay.png P_M_Sajid_Javid.png"
NA,"P_M_Sajid_Javid.png","E_M_Michael_McIntyr.png",NA,NA,NA,NA,NA,0.490685,NA,NA,NA,NA,NA,NA,NA,NA,NA,NA,FALSE,"CLIP_Typ","E_M_Michael_McIntyr.png P_M_Sajid_Javid.png"
NA,"P_M_Sajid_Javid.png","P_M_keir_starmer.png",NA,NA,NA,NA,NA,0.4353402,NA,NA,NA,NA,NA,NA,NA,NA,NA,NA,FALSE,"CLIP_Typ","P_M_keir_starmer.png P_M_Sajid_Javid.png"
NA,"P_M_Sajid_Javid.png","E_F_Jennifer_Saunders.png",NA,NA,NA,NA,NA,0.4933775,NA,NA,NA,NA,NA,NA,NA,NA,NA,NA,FALSE,"CLIP_Typ","E_F_Jennifer_Saunders.png P_M_Sajid_Javid.png"
NA,"P_M_Sajid_Javid.png","P_M_Tony_Blair.png",NA,NA,NA,NA,NA,0.2855805,NA,NA,NA,NA,NA,NA,NA,NA,NA,NA,FALSE,"CLIP_Typ","P_M_Sajid_Javid.png P_M_Tony_Blair.png"
NA,"P_M_Sajid_Javid.png","P_F_Theresa_May.png",NA,NA,NA,NA,NA,0.2628836,NA,NA,NA,NA,NA,NA,NA,NA,NA,NA,FALSE,"CLIP_Typ","P_F_Theresa_May.png P_M_Sajid_Javid.png"
NA,"P_M_Sajid_Javid.png","P_F_nicola_sturge.png",NA,NA,NA,NA,NA,0.3076821,NA,NA,NA,NA,NA,NA,NA,NA,NA,NA,FALSE,"CLIP_Typ","P_F_nicola_sturge.png P_M_Sajid_Javid.png"
NA,"P_M_Sajid_Javid.png","P_M_jeremy_corbyn.png",NA,NA,NA,NA,NA,0.23209375,NA,NA,NA,NA,NA,NA,NA,NA,NA,NA,FALSE,"CLIP_Typ","P_M_jeremy_corbyn.png P_M_Sajid_Javid.png"
NA,"P_M_Sajid_Javid.png","E_F_Julie_Walters.png",NA,NA,NA,NA,NA,0.5365652,NA,NA,NA,NA,NA,NA,NA,NA,NA,NA,FALSE,"CLIP_Typ","E_F_Julie_Walters.png P_M_Sajid_Javid.png"
NA,"P_M_Sajid_Javid.png","E_F_Sarah_Millican.png",NA,NA,NA,NA,NA,0.4992495,NA,NA,NA,NA,NA,NA,NA,NA,NA,NA,FALSE,"CLIP_Typ","E_F_Sarah_Millican.png P_M_Sajid_Javid.png"
NA,"P_M_Sajid_Javid.png","P_M_Gordon_Brown.png",NA,NA,NA,NA,NA,0.31716794,NA,NA,NA,NA,NA,NA,NA,NA,NA,NA,FALSE,"CLIP_Typ","P_M_Gordon_Brown.png P_M_Sajid_Javid.png"
NA,"P_M_Sajid_Javid.png","P_M_david_camer.png",NA,NA,NA,NA,NA,0.2277703,NA,NA,NA,NA,NA,NA,NA,NA,NA,NA,FALSE,"CLIP_Typ","P_M_david_camer.png P_M_Sajid_Javid.png"
NA,"P_M_Michael_Gove.png","E_F_Dawn_Roma_French.png",NA,NA,NA,NA,NA,0.5010888,NA,NA,NA,NA,NA,NA,NA,NA,NA,NA,FALSE,"CLIP_Typ","E_F_Dawn_Roma_French.png P_M_Michael_Gove.png"
NA,"P_M_Michael_Gove.png","E_M_Ewan_McGregor.png",NA,NA,NA,NA,NA,0.5007455,NA,NA,NA,NA,NA,NA,NA,NA,NA,NA,FALSE,"CLIP_Typ","E_M_Ewan_McGregor.png P_M_Michael_Gove.png"
NA,"P_M_Michael_Gove.png","E_M_Russell_Howard.png",NA,NA,NA,NA,NA,0.4848653,NA,NA,NA,NA,NA,NA,NA,NA,NA,NA,FALSE,"CLIP_Typ","E_M_Russell_Howard.png P_M_Michael_Gove.png"
NA,"P_M_Michael_Gove.png","E_M_Simon_Pegg.png",NA,NA,NA,NA,NA,0.4418938,NA,NA,NA,NA,NA,NA,NA,NA,NA,NA,FALSE,"CLIP_Typ","E_M_Simon_Pegg.png P_M_Michael_Gove.png"
NA,"P_M_Michael_Gove.png","E_M_Jimmy_Carr.png",NA,NA,NA,NA,NA,0.52188596,NA,NA,NA,NA,NA,NA,NA,NA,NA,NA,FALSE,"CLIP_Typ","E_M_Jimmy_Carr.png P_M_Michael_Gove.png"
NA,"P_M_Michael_Gove.png","P_M_nigel_farage.png",NA,NA,NA,NA,NA,0.3106542,NA,NA,NA,NA,NA,NA,NA,NA,NA,NA,FALSE,"CLIP_Typ","P_M_Michael_Gove.png P_M_nigel_farage.png"
NA,"P_M_Michael_Gove.png","E_M_Peter_Kay.png",NA,NA,NA,NA,NA,0.52099648,NA,NA,NA,NA,NA,NA,NA,NA,NA,NA,FALSE,"CLIP_Typ","E_M_Peter_Kay.png P_M_Michael_Gove.png"
NA,"P_M_Michael_Gove.png","E_M_Michael_McIntyr.png",NA,NA,NA,NA,NA,0.4570559,NA,NA,NA,NA,NA,NA,NA,NA,NA,NA,FALSE,"CLIP_Typ","E_M_Michael_McIntyr.png P_M_Michael_Gove.png"
NA,"P_M_Michael_Gove.png","P_M_keir_starmer.png",NA,NA,NA,NA,NA,0.34120905,NA,NA,NA,NA,NA,NA,NA,NA,NA,NA,FALSE,"CLIP_Typ","P_M_keir_starmer.png P_M_Michael_Gove.png"
NA,"P_M_Michael_Gove.png","E_F_Jennifer_Saunders.png",NA,NA,NA,NA,NA,0.46120095,NA,NA,NA,NA,NA,NA,NA,NA,NA,NA,FALSE,"CLIP_Typ","E_F_Jennifer_Saunders.png P_M_Michael_Gove.png"
NA,"P_M_Michael_Gove.png","P_M_Tony_Blair.png",NA,NA,NA,NA,NA,0.36078084,NA,NA,NA,NA,NA,NA,NA,NA,NA,NA,FALSE,"CLIP_Typ","P_M_Michael_Gove.png P_M_Tony_Blair.png"
NA,"P_M_Michael_Gove.png","P_F_Theresa_May.png",NA,NA,NA,NA,NA,0.31549096,NA,NA,NA,NA,NA,NA,NA,NA,NA,NA,FALSE,"CLIP_Typ","P_F_Theresa_May.png P_M_Michael_Gove.png"
NA,"P_M_Michael_Gove.png","P_F_nicola_sturge.png",NA,NA,NA,NA,NA,0.38159454,NA,NA,NA,NA,NA,NA,NA,NA,NA,NA,FALSE,"CLIP_Typ","P_F_nicola_sturge.png P_M_Michael_Gove.png"
NA,"P_M_Michael_Gove.png","P_M_jeremy_corbyn.png",NA,NA,NA,NA,NA,0.37264717,NA,NA,NA,NA,NA,NA,NA,NA,NA,NA,FALSE,"CLIP_Typ","P_M_jeremy_corbyn.png P_M_Michael_Gove.png"
NA,"P_M_Michael_Gove.png","E_F_Julie_Walters.png",NA,NA,NA,NA,NA,0.49356043,NA,NA,NA,NA,NA,NA,NA,NA,NA,NA,FALSE,"CLIP_Typ","E_F_Julie_Walters.png P_M_Michael_Gove.png"
NA,"P_M_Michael_Gove.png","E_F_Sarah_Millican.png",NA,NA,NA,NA,NA,0.403479,NA,NA,NA,NA,NA,NA,NA,NA,NA,NA,FALSE,"CLIP_Typ","E_F_Sarah_Millican.png P_M_Michael_Gove.png"
NA,"P_M_Michael_Gove.png","P_M_Gordon_Brown.png",NA,NA,NA,NA,NA,0.342276,NA,NA,NA,NA,NA,NA,NA,NA,NA,NA,FALSE,"CLIP_Typ","P_M_Gordon_Brown.png P_M_Michael_Gove.png"
NA,"P_M_Michael_Gove.png","P_M_david_camer.png",NA,NA,NA,NA,NA,0.3622138,NA,NA,NA,NA,NA,NA,NA,NA,NA,NA,FALSE,"CLIP_Typ","P_M_david_camer.png P_M_Michael_Gove.png"
NA,"E_F_Dawn_Roma_French.png","E_M_Ewan_McGregor.png",NA,NA,NA,NA,NA,0.37011045,NA,NA,NA,NA,NA,NA,NA,NA,NA,NA,FALSE,"CLIP_Typ","E_F_Dawn_Roma_French.png E_M_Ewan_McGregor.png"
NA,"E_F_Dawn_Roma_French.png","E_M_Russell_Howard.png",NA,NA,NA,NA,NA,0.35856724,NA,NA,NA,NA,NA,NA,NA,NA,NA,NA,FALSE,"CLIP_Typ","E_F_Dawn_Roma_French.png E_M_Russell_Howard.png"
NA,"E_F_Dawn_Roma_French.png","E_M_Simon_Pegg.png",NA,NA,NA,NA,NA,0.3770798,NA,NA,NA,NA,NA,NA,NA,NA,NA,NA,FALSE,"CLIP_Typ","E_F_Dawn_Roma_French.png E_M_Simon_Pegg.png"
NA,"E_F_Dawn_Roma_French.png","E_M_Jimmy_Carr.png",NA,NA,NA,NA,NA,0.31608176,NA,NA,NA,NA,NA,NA,NA,NA,NA,NA,FALSE,"CLIP_Typ","E_F_Dawn_Roma_French.png E_M_Jimmy_Carr.png"
NA,"E_F_Dawn_Roma_French.png","P_M_nigel_farage.png",NA,NA,NA,NA,NA,0.4445492,NA,NA,NA,NA,NA,NA,NA,NA,NA,NA,FALSE,"CLIP_Typ","E_F_Dawn_Roma_French.png P_M_nigel_farage.png"
NA,"E_F_Dawn_Roma_French.png","E_M_Peter_Kay.png",NA,NA,NA,NA,NA,0.3187723,NA,NA,NA,NA,NA,NA,NA,NA,NA,NA,FALSE,"CLIP_Typ","E_F_Dawn_Roma_French.png E_M_Peter_Kay.png"
NA,"E_F_Dawn_Roma_French.png","E_M_Michael_McIntyr.png",NA,NA,NA,NA,NA,0.29510874,NA,NA,NA,NA,NA,NA,NA,NA,NA,NA,FALSE,"CLIP_Typ","E_F_Dawn_Roma_French.png E_M_Michael_McIntyr.png"
NA,"E_F_Dawn_Roma_French.png","P_M_keir_starmer.png",NA,NA,NA,NA,NA,0.48322,NA,NA,NA,NA,NA,NA,NA,NA,NA,NA,FALSE,"CLIP_Typ","E_F_Dawn_Roma_French.png P_M_keir_starmer.png"
NA,"E_F_Dawn_Roma_French.png","E_F_Jennifer_Saunders.png",NA,NA,NA,NA,NA,0.23132765,NA,NA,NA,NA,NA,NA,NA,NA,NA,NA,FALSE,"CLIP_Typ","E_F_Dawn_Roma_French.png E_F_Jennifer_Saunders.png"
NA,"E_F_Dawn_Roma_French.png","P_M_Tony_Blair.png",NA,NA,NA,NA,NA,0.4856159,NA,NA,NA,NA,NA,NA,NA,NA,NA,NA,FALSE,"CLIP_Typ","E_F_Dawn_Roma_French.png P_M_Tony_Blair.png"
NA,"E_F_Dawn_Roma_French.png","P_F_Theresa_May.png",NA,NA,NA,NA,NA,0.4226983,NA,NA,NA,NA,NA,NA,NA,NA,NA,NA,FALSE,"CLIP_Typ","E_F_Dawn_Roma_French.png P_F_Theresa_May.png"
NA,"E_F_Dawn_Roma_French.png","P_F_nicola_sturge.png",NA,NA,NA,NA,NA,0.4082411,NA,NA,NA,NA,NA,NA,NA,NA,NA,NA,FALSE,"CLIP_Typ","E_F_Dawn_Roma_French.png P_F_nicola_sturge.png"
NA,"E_F_Dawn_Roma_French.png","P_M_jeremy_corbyn.png",NA,NA,NA,NA,NA,0.44485843,NA,NA,NA,NA,NA,NA,NA,NA,NA,NA,FALSE,"CLIP_Typ","E_F_Dawn_Roma_French.png P_M_jeremy_corbyn.png"
NA,"E_F_Dawn_Roma_French.png","E_F_Julie_Walters.png",NA,NA,NA,NA,NA,0.26023376,NA,NA,NA,NA,NA,NA,NA,NA,NA,NA,FALSE,"CLIP_Typ","E_F_Dawn_Roma_French.png E_F_Julie_Walters.png"
NA,"E_F_Dawn_Roma_French.png","E_F_Sarah_Millican.png",NA,NA,NA,NA,NA,0.19889677,NA,NA,NA,NA,NA,NA,NA,NA,NA,NA,FALSE,"CLIP_Typ","E_F_Dawn_Roma_French.png E_F_Sarah_Millican.png"
NA,"E_F_Dawn_Roma_French.png","P_M_Gordon_Brown.png",NA,NA,NA,NA,NA,0.3757652,NA,NA,NA,NA,NA,NA,NA,NA,NA,NA,FALSE,"CLIP_Typ","E_F_Dawn_Roma_French.png P_M_Gordon_Brown.png"
NA,"E_F_Dawn_Roma_French.png","P_M_david_camer.png",NA,NA,NA,NA,NA,0.4518053,NA,NA,NA,NA,NA,NA,NA,NA,NA,NA,FALSE,"CLIP_Typ","E_F_Dawn_Roma_French.png P_M_david_camer.png"
NA,"E_M_Ewan_McGregor.png","E_M_Russell_Howard.png",NA,NA,NA,NA,NA,0.31245846,NA,NA,NA,NA,NA,NA,NA,NA,NA,NA,FALSE,"CLIP_Typ","E_M_Ewan_McGregor.png E_M_Russell_Howard.png"
NA,"E_M_Ewan_McGregor.png","E_M_Simon_Pegg.png",NA,NA,NA,NA,NA,0.2506988,NA,NA,NA,NA,NA,NA,NA,NA,NA,NA,FALSE,"CLIP_Typ","E_M_Ewan_McGregor.png E_M_Simon_Pegg.png"
NA,"E_M_Ewan_McGregor.png","E_M_Jimmy_Carr.png",NA,NA,NA,NA,NA,0.37160295,NA,NA,NA,NA,NA,NA,NA,NA,NA,NA,FALSE,"CLIP_Typ","E_M_Ewan_McGregor.png E_M_Jimmy_Carr.png"
NA,"E_M_Ewan_McGregor.png","P_M_nigel_farage.png",NA,NA,NA,NA,NA,0.4441923,NA,NA,NA,NA,NA,NA,NA,NA,NA,NA,FALSE,"CLIP_Typ","E_M_Ewan_McGregor.png P_M_nigel_farage.png"
NA,"E_M_Ewan_McGregor.png","E_M_Peter_Kay.png",NA,NA,NA,NA,NA,0.3915353,NA,NA,NA,NA,NA,NA,NA,NA,NA,NA,FALSE,"CLIP_Typ","E_M_Ewan_McGregor.png E_M_Peter_Kay.png"
NA,"E_M_Ewan_McGregor.png","E_M_Michael_McIntyr.png",NA,NA,NA,NA,NA,0.37709415,NA,NA,NA,NA,NA,NA,NA,NA,NA,NA,FALSE,"CLIP_Typ","E_M_Ewan_McGregor.png E_M_Michael_McIntyr.png"
NA,"E_M_Ewan_McGregor.png","P_M_keir_starmer.png",NA,NA,NA,NA,NA,0.52003032,NA,NA,NA,NA,NA,NA,NA,NA,NA,NA,FALSE,"CLIP_Typ","E_M_Ewan_McGregor.png P_M_keir_starmer.png"
NA,"E_M_Ewan_McGregor.png","E_F_Jennifer_Saunders.png",NA,NA,NA,NA,NA,0.3850728,NA,NA,NA,NA,NA,NA,NA,NA,NA,NA,FALSE,"CLIP_Typ","E_F_Jennifer_Saunders.png E_M_Ewan_McGregor.png"
NA,"E_M_Ewan_McGregor.png","P_M_Tony_Blair.png",NA,NA,NA,NA,NA,0.4243391,NA,NA,NA,NA,NA,NA,NA,NA,NA,NA,FALSE,"CLIP_Typ","E_M_Ewan_McGregor.png P_M_Tony_Blair.png"
NA,"E_M_Ewan_McGregor.png","P_F_Theresa_May.png",NA,NA,NA,NA,NA,0.4827122,NA,NA,NA,NA,NA,NA,NA,NA,NA,NA,FALSE,"CLIP_Typ","E_M_Ewan_McGregor.png P_F_Theresa_May.png"
NA,"E_M_Ewan_McGregor.png","P_F_nicola_sturge.png",NA,NA,NA,NA,NA,0.4580072,NA,NA,NA,NA,NA,NA,NA,NA,NA,NA,FALSE,"CLIP_Typ","E_M_Ewan_McGregor.png P_F_nicola_sturge.png"
NA,"E_M_Ewan_McGregor.png","P_M_jeremy_corbyn.png",NA,NA,NA,NA,NA,0.4391305,NA,NA,NA,NA,NA,NA,NA,NA,NA,NA,FALSE,"CLIP_Typ","E_M_Ewan_McGregor.png P_M_jeremy_corbyn.png"
NA,"E_M_Ewan_McGregor.png","E_F_Julie_Walters.png",NA,NA,NA,NA,NA,0.40619004,NA,NA,NA,NA,NA,NA,NA,NA,NA,NA,FALSE,"CLIP_Typ","E_F_Julie_Walters.png E_M_Ewan_McGregor.png"
NA,"E_M_Ewan_McGregor.png","E_F_Sarah_Millican.png",NA,NA,NA,NA,NA,0.44185984,NA,NA,NA,NA,NA,NA,NA,NA,NA,NA,FALSE,"CLIP_Typ","E_F_Sarah_Millican.png E_M_Ewan_McGregor.png"
NA,"E_M_Ewan_McGregor.png","P_M_Gordon_Brown.png",NA,NA,NA,NA,NA,0.3956447,NA,NA,NA,NA,NA,NA,NA,NA,NA,NA,FALSE,"CLIP_Typ","E_M_Ewan_McGregor.png P_M_Gordon_Brown.png"
NA,"E_M_Ewan_McGregor.png","P_M_david_camer.png",NA,NA,NA,NA,NA,0.4354711,NA,NA,NA,NA,NA,NA,NA,NA,NA,NA,FALSE,"CLIP_Typ","E_M_Ewan_McGregor.png P_M_david_camer.png"
NA,"E_M_Russell_Howard.png","E_M_Simon_Pegg.png",NA,NA,NA,NA,NA,0.3499841,NA,NA,NA,NA,NA,NA,NA,NA,NA,NA,FALSE,"CLIP_Typ","E_M_Russell_Howard.png E_M_Simon_Pegg.png"
NA,"E_M_Russell_Howard.png","E_M_Jimmy_Carr.png",NA,NA,NA,NA,NA,0.26417285,NA,NA,NA,NA,NA,NA,NA,NA,NA,NA,FALSE,"CLIP_Typ","E_M_Jimmy_Carr.png E_M_Russell_Howard.png"
NA,"E_M_Russell_Howard.png","P_M_nigel_farage.png",NA,NA,NA,NA,NA,0.4425821,NA,NA,NA,NA,NA,NA,NA,NA,NA,NA,FALSE,"CLIP_Typ","E_M_Russell_Howard.png P_M_nigel_farage.png"
NA,"E_M_Russell_Howard.png","E_M_Peter_Kay.png",NA,NA,NA,NA,NA,0.28020614,NA,NA,NA,NA,NA,NA,NA,NA,NA,NA,FALSE,"CLIP_Typ","E_M_Peter_Kay.png E_M_Russell_Howard.png"
NA,"E_M_Russell_Howard.png","E_M_Michael_McIntyr.png",NA,NA,NA,NA,NA,0.238769,NA,NA,NA,NA,NA,NA,NA,NA,NA,NA,FALSE,"CLIP_Typ","E_M_Michael_McIntyr.png E_M_Russell_Howard.png"
NA,"E_M_Russell_Howard.png","P_M_keir_starmer.png",NA,NA,NA,NA,NA,0.4406325,NA,NA,NA,NA,NA,NA,NA,NA,NA,NA,FALSE,"CLIP_Typ","E_M_Russell_Howard.png P_M_keir_starmer.png"
NA,"E_M_Russell_Howard.png","E_F_Jennifer_Saunders.png",NA,NA,NA,NA,NA,0.3829597,NA,NA,NA,NA,NA,NA,NA,NA,NA,NA,FALSE,"CLIP_Typ","E_F_Jennifer_Saunders.png E_M_Russell_Howard.png"
NA,"E_M_Russell_Howard.png","P_M_Tony_Blair.png",NA,NA,NA,NA,NA,0.4631309,NA,NA,NA,NA,NA,NA,NA,NA,NA,NA,FALSE,"CLIP_Typ","E_M_Russell_Howard.png P_M_Tony_Blair.png"
NA,"E_M_Russell_Howard.png","P_F_Theresa_May.png",NA,NA,NA,NA,NA,0.48039585,NA,NA,NA,NA,NA,NA,NA,NA,NA,NA,FALSE,"CLIP_Typ","E_M_Russell_Howard.png P_F_Theresa_May.png"
NA,"E_M_Russell_Howard.png","P_F_nicola_sturge.png",NA,NA,NA,NA,NA,0.4693427,NA,NA,NA,NA,NA,NA,NA,NA,NA,NA,FALSE,"CLIP_Typ","E_M_Russell_Howard.png P_F_nicola_sturge.png"
NA,"E_M_Russell_Howard.png","P_M_jeremy_corbyn.png",NA,NA,NA,NA,NA,0.4382481,NA,NA,NA,NA,NA,NA,NA,NA,NA,NA,FALSE,"CLIP_Typ","E_M_Russell_Howard.png P_M_jeremy_corbyn.png"
NA,"E_M_Russell_Howard.png","E_F_Julie_Walters.png",NA,NA,NA,NA,NA,0.39445645,NA,NA,NA,NA,NA,NA,NA,NA,NA,NA,FALSE,"CLIP_Typ","E_F_Julie_Walters.png E_M_Russell_Howard.png"
NA,"E_M_Russell_Howard.png","E_F_Sarah_Millican.png",NA,NA,NA,NA,NA,0.38334477,NA,NA,NA,NA,NA,NA,NA,NA,NA,NA,FALSE,"CLIP_Typ","E_F_Sarah_Millican.png E_M_Russell_Howard.png"
NA,"E_M_Russell_Howard.png","P_M_Gordon_Brown.png",NA,NA,NA,NA,NA,0.36608726,NA,NA,NA,NA,NA,NA,NA,NA,NA,NA,FALSE,"CLIP_Typ","E_M_Russell_Howard.png P_M_Gordon_Brown.png"
NA,"E_M_Russell_Howard.png","P_M_david_camer.png",NA,NA,NA,NA,NA,0.43181473,NA,NA,NA,NA,NA,NA,NA,NA,NA,NA,FALSE,"CLIP_Typ","E_M_Russell_Howard.png P_M_david_camer.png"
NA,"E_M_Simon_Pegg.png","E_M_Jimmy_Carr.png",NA,NA,NA,NA,NA,0.4643681,NA,NA,NA,NA,NA,NA,NA,NA,NA,NA,FALSE,"CLIP_Typ","E_M_Jimmy_Carr.png E_M_Simon_Pegg.png"
NA,"E_M_Simon_Pegg.png","P_M_nigel_farage.png",NA,NA,NA,NA,NA,0.40139806,NA,NA,NA,NA,NA,NA,NA,NA,NA,NA,FALSE,"CLIP_Typ","E_M_Simon_Pegg.png P_M_nigel_farage.png"
NA,"E_M_Simon_Pegg.png","E_M_Peter_Kay.png",NA,NA,NA,NA,NA,0.3993665,NA,NA,NA,NA,NA,NA,NA,NA,NA,NA,FALSE,"CLIP_Typ","E_M_Peter_Kay.png E_M_Simon_Pegg.png"
NA,"E_M_Simon_Pegg.png","E_M_Michael_McIntyr.png",NA,NA,NA,NA,NA,0.43245465,NA,NA,NA,NA,NA,NA,NA,NA,NA,NA,FALSE,"CLIP_Typ","E_M_Michael_McIntyr.png E_M_Simon_Pegg.png"
NA,"E_M_Simon_Pegg.png","P_M_keir_starmer.png",NA,NA,NA,NA,NA,0.4559812,NA,NA,NA,NA,NA,NA,NA,NA,NA,NA,FALSE,"CLIP_Typ","E_M_Simon_Pegg.png P_M_keir_starmer.png"
NA,"E_M_Simon_Pegg.png","E_F_Jennifer_Saunders.png",NA,NA,NA,NA,NA,0.41317445,NA,NA,NA,NA,NA,NA,NA,NA,NA,NA,FALSE,"CLIP_Typ","E_F_Jennifer_Saunders.png E_M_Simon_Pegg.png"
NA,"E_M_Simon_Pegg.png","P_M_Tony_Blair.png",NA,NA,NA,NA,NA,0.461971,NA,NA,NA,NA,NA,NA,NA,NA,NA,NA,FALSE,"CLIP_Typ","E_M_Simon_Pegg.png P_M_Tony_Blair.png"
NA,"E_M_Simon_Pegg.png","P_F_Theresa_May.png",NA,NA,NA,NA,NA,0.4519345,NA,NA,NA,NA,NA,NA,NA,NA,NA,NA,FALSE,"CLIP_Typ","E_M_Simon_Pegg.png P_F_Theresa_May.png"
NA,"E_M_Simon_Pegg.png","P_F_nicola_sturge.png",NA,NA,NA,NA,NA,0.48168826,NA,NA,NA,NA,NA,NA,NA,NA,NA,NA,FALSE,"CLIP_Typ","E_M_Simon_Pegg.png P_F_nicola_sturge.png"
NA,"E_M_Simon_Pegg.png","P_M_jeremy_corbyn.png",NA,NA,NA,NA,NA,0.4158337,NA,NA,NA,NA,NA,NA,NA,NA,NA,NA,FALSE,"CLIP_Typ","E_M_Simon_Pegg.png P_M_jeremy_corbyn.png"
NA,"E_M_Simon_Pegg.png","E_F_Julie_Walters.png",NA,NA,NA,NA,NA,0.44249225,NA,NA,NA,NA,NA,NA,NA,NA,NA,NA,FALSE,"CLIP_Typ","E_F_Julie_Walters.png E_M_Simon_Pegg.png"
NA,"E_M_Simon_Pegg.png","E_F_Sarah_Millican.png",NA,NA,NA,NA,NA,0.4167551,NA,NA,NA,NA,NA,NA,NA,NA,NA,NA,FALSE,"CLIP_Typ","E_F_Sarah_Millican.png E_M_Simon_Pegg.png"
NA,"E_M_Simon_Pegg.png","P_M_Gordon_Brown.png",NA,NA,NA,NA,NA,0.429029,NA,NA,NA,NA,NA,NA,NA,NA,NA,NA,FALSE,"CLIP_Typ","E_M_Simon_Pegg.png P_M_Gordon_Brown.png"
NA,"E_M_Simon_Pegg.png","P_M_david_camer.png",NA,NA,NA,NA,NA,0.4175566,NA,NA,NA,NA,NA,NA,NA,NA,NA,NA,FALSE,"CLIP_Typ","E_M_Simon_Pegg.png P_M_david_camer.png"
NA,"E_M_Jimmy_Carr.png","P_M_nigel_farage.png",NA,NA,NA,NA,NA,0.4436379,NA,NA,NA,NA,NA,NA,NA,NA,NA,NA,FALSE,"CLIP_Typ","E_M_Jimmy_Carr.png P_M_nigel_farage.png"
NA,"E_M_Jimmy_Carr.png","E_M_Peter_Kay.png",NA,NA,NA,NA,NA,0.22896487,NA,NA,NA,NA,NA,NA,NA,NA,NA,NA,FALSE,"CLIP_Typ","E_M_Jimmy_Carr.png E_M_Peter_Kay.png"
NA,"E_M_Jimmy_Carr.png","E_M_Michael_McIntyr.png",NA,NA,NA,NA,NA,0.1991043,NA,NA,NA,NA,NA,NA,NA,NA,NA,NA,FALSE,"CLIP_Typ","E_M_Jimmy_Carr.png E_M_Michael_McIntyr.png"
NA,"E_M_Jimmy_Carr.png","P_M_keir_starmer.png",NA,NA,NA,NA,NA,0.4199453,NA,NA,NA,NA,NA,NA,NA,NA,NA,NA,FALSE,"CLIP_Typ","E_M_Jimmy_Carr.png P_M_keir_starmer.png"
NA,"E_M_Jimmy_Carr.png","E_F_Jennifer_Saunders.png",NA,NA,NA,NA,NA,0.3505607,NA,NA,NA,NA,NA,NA,NA,NA,NA,NA,FALSE,"CLIP_Typ","E_F_Jennifer_Saunders.png E_M_Jimmy_Carr.png"
NA,"E_M_Jimmy_Carr.png","P_M_Tony_Blair.png",NA,NA,NA,NA,NA,0.4359367,NA,NA,NA,NA,NA,NA,NA,NA,NA,NA,FALSE,"CLIP_Typ","E_M_Jimmy_Carr.png P_M_Tony_Blair.png"
NA,"E_M_Jimmy_Carr.png","P_F_Theresa_May.png",NA,NA,NA,NA,NA,0.4811744,NA,NA,NA,NA,NA,NA,NA,NA,NA,NA,FALSE,"CLIP_Typ","E_M_Jimmy_Carr.png P_F_Theresa_May.png"
NA,"E_M_Jimmy_Carr.png","P_F_nicola_sturge.png",NA,NA,NA,NA,NA,0.4519722,NA,NA,NA,NA,NA,NA,NA,NA,NA,NA,FALSE,"CLIP_Typ","E_M_Jimmy_Carr.png P_F_nicola_sturge.png"
NA,"E_M_Jimmy_Carr.png","P_M_jeremy_corbyn.png",NA,NA,NA,NA,NA,0.44086736,NA,NA,NA,NA,NA,NA,NA,NA,NA,NA,FALSE,"CLIP_Typ","E_M_Jimmy_Carr.png P_M_jeremy_corbyn.png"
NA,"E_M_Jimmy_Carr.png","E_F_Julie_Walters.png",NA,NA,NA,NA,NA,0.364339,NA,NA,NA,NA,NA,NA,NA,NA,NA,NA,FALSE,"CLIP_Typ","E_F_Julie_Walters.png E_M_Jimmy_Carr.png"
NA,"E_M_Jimmy_Carr.png","E_F_Sarah_Millican.png",NA,NA,NA,NA,NA,0.3822918,NA,NA,NA,NA,NA,NA,NA,NA,NA,NA,FALSE,"CLIP_Typ","E_F_Sarah_Millican.png E_M_Jimmy_Carr.png"
NA,"E_M_Jimmy_Carr.png","P_M_Gordon_Brown.png",NA,NA,NA,NA,NA,0.35253555,NA,NA,NA,NA,NA,NA,NA,NA,NA,NA,FALSE,"CLIP_Typ","E_M_Jimmy_Carr.png P_M_Gordon_Brown.png"
NA,"E_M_Jimmy_Carr.png","P_M_david_camer.png",NA,NA,NA,NA,NA,0.4000554,NA,NA,NA,NA,NA,NA,NA,NA,NA,NA,FALSE,"CLIP_Typ","E_M_Jimmy_Carr.png P_M_david_camer.png"
NA,"P_M_nigel_farage.png","E_M_Peter_Kay.png",NA,NA,NA,NA,NA,0.3976479,NA,NA,NA,NA,NA,NA,NA,NA,NA,NA,FALSE,"CLIP_Typ","E_M_Peter_Kay.png P_M_nigel_farage.png"
NA,"P_M_nigel_farage.png","E_M_Michael_McIntyr.png",NA,NA,NA,NA,NA,0.4215104,NA,NA,NA,NA,NA,NA,NA,NA,NA,NA,FALSE,"CLIP_Typ","E_M_Michael_McIntyr.png P_M_nigel_farage.png"
NA,"P_M_nigel_farage.png","P_M_keir_starmer.png",NA,NA,NA,NA,NA,0.36696863,NA,NA,NA,NA,NA,NA,NA,NA,NA,NA,FALSE,"CLIP_Typ","P_M_keir_starmer.png P_M_nigel_farage.png"
NA,"P_M_nigel_farage.png","E_F_Jennifer_Saunders.png",NA,NA,NA,NA,NA,0.4502086,NA,NA,NA,NA,NA,NA,NA,NA,NA,NA,FALSE,"CLIP_Typ","E_F_Jennifer_Saunders.png P_M_nigel_farage.png"
NA,"P_M_nigel_farage.png","P_M_Tony_Blair.png",NA,NA,NA,NA,NA,0.2432641,NA,NA,NA,NA,NA,NA,NA,NA,NA,NA,FALSE,"CLIP_Typ","P_M_nigel_farage.png P_M_Tony_Blair.png"
NA,"P_M_nigel_farage.png","P_F_Theresa_May.png",NA,NA,NA,NA,NA,0.1705087,NA,NA,NA,NA,NA,NA,NA,NA,NA,NA,FALSE,"CLIP_Typ","P_F_Theresa_May.png P_M_nigel_farage.png"
NA,"P_M_nigel_farage.png","P_F_nicola_sturge.png",NA,NA,NA,NA,NA,0.22161365,NA,NA,NA,NA,NA,NA,NA,NA,NA,NA,FALSE,"CLIP_Typ","P_F_nicola_sturge.png P_M_nigel_farage.png"
NA,"P_M_nigel_farage.png","P_M_jeremy_corbyn.png",NA,NA,NA,NA,NA,0.1724866,NA,NA,NA,NA,NA,NA,NA,NA,NA,NA,FALSE,"CLIP_Typ","P_M_jeremy_corbyn.png P_M_nigel_farage.png"
NA,"P_M_nigel_farage.png","E_F_Julie_Walters.png",NA,NA,NA,NA,NA,0.47000915,NA,NA,NA,NA,NA,NA,NA,NA,NA,NA,FALSE,"CLIP_Typ","E_F_Julie_Walters.png P_M_nigel_farage.png"
NA,"P_M_nigel_farage.png","E_F_Sarah_Millican.png",NA,NA,NA,NA,NA,0.4427929,NA,NA,NA,NA,NA,NA,NA,NA,NA,NA,FALSE,"CLIP_Typ","E_F_Sarah_Millican.png P_M_nigel_farage.png"
NA,"P_M_nigel_farage.png","P_M_Gordon_Brown.png",NA,NA,NA,NA,NA,0.2500776,NA,NA,NA,NA,NA,NA,NA,NA,NA,NA,FALSE,"CLIP_Typ","P_M_Gordon_Brown.png P_M_nigel_farage.png"
NA,"P_M_nigel_farage.png","P_M_david_camer.png",NA,NA,NA,NA,NA,0.16355956,NA,NA,NA,NA,NA,NA,NA,NA,NA,NA,FALSE,"CLIP_Typ","P_M_david_camer.png P_M_nigel_farage.png"
NA,"E_M_Peter_Kay.png","E_M_Michael_McIntyr.png",NA,NA,NA,NA,NA,0.2220456,NA,NA,NA,NA,NA,NA,NA,NA,NA,NA,FALSE,"CLIP_Typ","E_M_Michael_McIntyr.png E_M_Peter_Kay.png"
NA,"E_M_Peter_Kay.png","P_M_keir_starmer.png",NA,NA,NA,NA,NA,0.39820415,NA,NA,NA,NA,NA,NA,NA,NA,NA,NA,FALSE,"CLIP_Typ","E_M_Peter_Kay.png P_M_keir_starmer.png"
NA,"E_M_Peter_Kay.png","E_F_Jennifer_Saunders.png",NA,NA,NA,NA,NA,0.3750363,NA,NA,NA,NA,NA,NA,NA,NA,NA,NA,FALSE,"CLIP_Typ","E_F_Jennifer_Saunders.png E_M_Peter_Kay.png"
NA,"E_M_Peter_Kay.png","P_M_Tony_Blair.png",NA,NA,NA,NA,NA,0.4455881,NA,NA,NA,NA,NA,NA,NA,NA,NA,NA,FALSE,"CLIP_Typ","E_M_Peter_Kay.png P_M_Tony_Blair.png"
NA,"E_M_Peter_Kay.png","P_F_Theresa_May.png",NA,NA,NA,NA,NA,0.4430643,NA,NA,NA,NA,NA,NA,NA,NA,NA,NA,FALSE,"CLIP_Typ","E_M_Peter_Kay.png P_F_Theresa_May.png"
NA,"E_M_Peter_Kay.png","P_F_nicola_sturge.png",NA,NA,NA,NA,NA,0.42239493,NA,NA,NA,NA,NA,NA,NA,NA,NA,NA,FALSE,"CLIP_Typ","E_M_Peter_Kay.png P_F_nicola_sturge.png"
NA,"E_M_Peter_Kay.png","P_M_jeremy_corbyn.png",NA,NA,NA,NA,NA,0.3962983,NA,NA,NA,NA,NA,NA,NA,NA,NA,NA,FALSE,"CLIP_Typ","E_M_Peter_Kay.png P_M_jeremy_corbyn.png"
NA,"E_M_Peter_Kay.png","E_F_Julie_Walters.png",NA,NA,NA,NA,NA,0.3987613,NA,NA,NA,NA,NA,NA,NA,NA,NA,NA,FALSE,"CLIP_Typ","E_F_Julie_Walters.png E_M_Peter_Kay.png"
NA,"E_M_Peter_Kay.png","E_F_Sarah_Millican.png",NA,NA,NA,NA,NA,0.3773193,NA,NA,NA,NA,NA,NA,NA,NA,NA,NA,FALSE,"CLIP_Typ","E_F_Sarah_Millican.png E_M_Peter_Kay.png"
NA,"E_M_Peter_Kay.png","P_M_Gordon_Brown.png",NA,NA,NA,NA,NA,0.29833883,NA,NA,NA,NA,NA,NA,NA,NA,NA,NA,FALSE,"CLIP_Typ","E_M_Peter_Kay.png P_M_Gordon_Brown.png"
NA,"E_M_Peter_Kay.png","P_M_david_camer.png",NA,NA,NA,NA,NA,0.37470794,NA,NA,NA,NA,NA,NA,NA,NA,NA,NA,FALSE,"CLIP_Typ","E_M_Peter_Kay.png P_M_david_camer.png"
NA,"E_M_Michael_McIntyr.png","P_M_keir_starmer.png",NA,NA,NA,NA,NA,0.4535394,NA,NA,NA,NA,NA,NA,NA,NA,NA,NA,FALSE,"CLIP_Typ","E_M_Michael_McIntyr.png P_M_keir_starmer.png"
NA,"E_M_Michael_McIntyr.png","E_F_Jennifer_Saunders.png",NA,NA,NA,NA,NA,0.37497836,NA,NA,NA,NA,NA,NA,NA,NA,NA,NA,FALSE,"CLIP_Typ","E_F_Jennifer_Saunders.png E_M_Michael_McIntyr.png"
NA,"E_M_Michael_McIntyr.png","P_M_Tony_Blair.png",NA,NA,NA,NA,NA,0.4326904,NA,NA,NA,NA,NA,NA,NA,NA,NA,NA,FALSE,"CLIP_Typ","E_M_Michael_McIntyr.png P_M_Tony_Blair.png"
NA,"E_M_Michael_McIntyr.png","P_F_Theresa_May.png",NA,NA,NA,NA,NA,0.4740831,NA,NA,NA,NA,NA,NA,NA,NA,NA,NA,FALSE,"CLIP_Typ","E_M_Michael_McIntyr.png P_F_Theresa_May.png"
NA,"E_M_Michael_McIntyr.png","P_F_nicola_sturge.png",NA,NA,NA,NA,NA,0.45102775,NA,NA,NA,NA,NA,NA,NA,NA,NA,NA,FALSE,"CLIP_Typ","E_M_Michael_McIntyr.png P_F_nicola_sturge.png"
NA,"E_M_Michael_McIntyr.png","P_M_jeremy_corbyn.png",NA,NA,NA,NA,NA,0.4425531,NA,NA,NA,NA,NA,NA,NA,NA,NA,NA,FALSE,"CLIP_Typ","E_M_Michael_McIntyr.png P_M_jeremy_corbyn.png"
NA,"E_M_Michael_McIntyr.png","E_F_Julie_Walters.png",NA,NA,NA,NA,NA,0.3898694,NA,NA,NA,NA,NA,NA,NA,NA,NA,NA,FALSE,"CLIP_Typ","E_F_Julie_Walters.png E_M_Michael_McIntyr.png"
NA,"E_M_Michael_McIntyr.png","E_F_Sarah_Millican.png",NA,NA,NA,NA,NA,0.367462,NA,NA,NA,NA,NA,NA,NA,NA,NA,NA,FALSE,"CLIP_Typ","E_F_Sarah_Millican.png E_M_Michael_McIntyr.png"
NA,"E_M_Michael_McIntyr.png","P_M_Gordon_Brown.png",NA,NA,NA,NA,NA,0.36038357,NA,NA,NA,NA,NA,NA,NA,NA,NA,NA,FALSE,"CLIP_Typ","E_M_Michael_McIntyr.png P_M_Gordon_Brown.png"
NA,"E_M_Michael_McIntyr.png","P_M_david_camer.png",NA,NA,NA,NA,NA,0.3955543,NA,NA,NA,NA,NA,NA,NA,NA,NA,NA,FALSE,"CLIP_Typ","E_M_Michael_McIntyr.png P_M_david_camer.png"
NA,"P_M_keir_starmer.png","E_F_Jennifer_Saunders.png",NA,NA,NA,NA,NA,0.4553667,NA,NA,NA,NA,NA,NA,NA,NA,NA,NA,FALSE,"CLIP_Typ","E_F_Jennifer_Saunders.png P_M_keir_starmer.png"
NA,"P_M_keir_starmer.png","P_M_Tony_Blair.png",NA,NA,NA,NA,NA,0.44790274,NA,NA,NA,NA,NA,NA,NA,NA,NA,NA,FALSE,"CLIP_Typ","P_M_keir_starmer.png P_M_Tony_Blair.png"
NA,"P_M_keir_starmer.png","P_F_Theresa_May.png",NA,NA,NA,NA,NA,0.3988373,NA,NA,NA,NA,NA,NA,NA,NA,NA,NA,FALSE,"CLIP_Typ","P_F_Theresa_May.png P_M_keir_starmer.png"
NA,"P_M_keir_starmer.png","P_F_nicola_sturge.png",NA,NA,NA,NA,NA,0.4365156,NA,NA,NA,NA,NA,NA,NA,NA,NA,NA,FALSE,"CLIP_Typ","P_F_nicola_sturge.png P_M_keir_starmer.png"
NA,"P_M_keir_starmer.png","P_M_jeremy_corbyn.png",NA,NA,NA,NA,NA,0.43441945,NA,NA,NA,NA,NA,NA,NA,NA,NA,NA,FALSE,"CLIP_Typ","P_M_jeremy_corbyn.png P_M_keir_starmer.png"
NA,"P_M_keir_starmer.png","E_F_Julie_Walters.png",NA,NA,NA,NA,NA,0.4970972,NA,NA,NA,NA,NA,NA,NA,NA,NA,NA,FALSE,"CLIP_Typ","E_F_Julie_Walters.png P_M_keir_starmer.png"
NA,"P_M_keir_starmer.png","E_F_Sarah_Millican.png",NA,NA,NA,NA,NA,0.4362612,NA,NA,NA,NA,NA,NA,NA,NA,NA,NA,FALSE,"CLIP_Typ","E_F_Sarah_Millican.png P_M_keir_starmer.png"
NA,"P_M_keir_starmer.png","P_M_Gordon_Brown.png",NA,NA,NA,NA,NA,0.3465671,NA,NA,NA,NA,NA,NA,NA,NA,NA,NA,FALSE,"CLIP_Typ","P_M_Gordon_Brown.png P_M_keir_starmer.png"
NA,"P_M_keir_starmer.png","P_M_david_camer.png",NA,NA,NA,NA,NA,0.3963984,NA,NA,NA,NA,NA,NA,NA,NA,NA,NA,FALSE,"CLIP_Typ","P_M_david_camer.png P_M_keir_starmer.png"
NA,"E_F_Jennifer_Saunders.png","P_M_Tony_Blair.png",NA,NA,NA,NA,NA,0.41821223,NA,NA,NA,NA,NA,NA,NA,NA,NA,NA,FALSE,"CLIP_Typ","E_F_Jennifer_Saunders.png P_M_Tony_Blair.png"
NA,"E_F_Jennifer_Saunders.png","P_F_Theresa_May.png",NA,NA,NA,NA,NA,0.41772085,NA,NA,NA,NA,NA,NA,NA,NA,NA,NA,FALSE,"CLIP_Typ","E_F_Jennifer_Saunders.png P_F_Theresa_May.png"
NA,"E_F_Jennifer_Saunders.png","P_F_nicola_sturge.png",NA,NA,NA,NA,NA,0.3709346,NA,NA,NA,NA,NA,NA,NA,NA,NA,NA,FALSE,"CLIP_Typ","E_F_Jennifer_Saunders.png P_F_nicola_sturge.png"
NA,"E_F_Jennifer_Saunders.png","P_M_jeremy_corbyn.png",NA,NA,NA,NA,NA,0.46111614,NA,NA,NA,NA,NA,NA,NA,NA,NA,NA,FALSE,"CLIP_Typ","E_F_Jennifer_Saunders.png P_M_jeremy_corbyn.png"
NA,"E_F_Jennifer_Saunders.png","E_F_Julie_Walters.png",NA,NA,NA,NA,NA,0.1167558,NA,NA,NA,NA,NA,NA,NA,NA,NA,NA,FALSE,"CLIP_Typ","E_F_Jennifer_Saunders.png E_F_Julie_Walters.png"
NA,"E_F_Jennifer_Saunders.png","E_F_Sarah_Millican.png",NA,NA,NA,NA,NA,0.29623365,NA,NA,NA,NA,NA,NA,NA,NA,NA,NA,FALSE,"CLIP_Typ","E_F_Jennifer_Saunders.png E_F_Sarah_Millican.png"
NA,"E_F_Jennifer_Saunders.png","P_M_Gordon_Brown.png",NA,NA,NA,NA,NA,0.38928044,NA,NA,NA,NA,NA,NA,NA,NA,NA,NA,FALSE,"CLIP_Typ","E_F_Jennifer_Saunders.png P_M_Gordon_Brown.png"
NA,"E_F_Jennifer_Saunders.png","P_M_david_camer.png",NA,NA,NA,NA,NA,0.4314455,NA,NA,NA,NA,NA,NA,NA,NA,NA,NA,FALSE,"CLIP_Typ","E_F_Jennifer_Saunders.png P_M_david_camer.png"
NA,"P_M_Tony_Blair.png","P_F_Theresa_May.png",NA,NA,NA,NA,NA,0.2712244,NA,NA,NA,NA,NA,NA,NA,NA,NA,NA,FALSE,"CLIP_Typ","P_F_Theresa_May.png P_M_Tony_Blair.png"
NA,"P_M_Tony_Blair.png","P_F_nicola_sturge.png",NA,NA,NA,NA,NA,0.2687243,NA,NA,NA,NA,NA,NA,NA,NA,NA,NA,FALSE,"CLIP_Typ","P_F_nicola_sturge.png P_M_Tony_Blair.png"
NA,"P_M_Tony_Blair.png","P_M_jeremy_corbyn.png",NA,NA,NA,NA,NA,0.2205525,NA,NA,NA,NA,NA,NA,NA,NA,NA,NA,FALSE,"CLIP_Typ","P_M_jeremy_corbyn.png P_M_Tony_Blair.png"
NA,"P_M_Tony_Blair.png","E_F_Julie_Walters.png",NA,NA,NA,NA,NA,0.4593482,NA,NA,NA,NA,NA,NA,NA,NA,NA,NA,FALSE,"CLIP_Typ","E_F_Julie_Walters.png P_M_Tony_Blair.png"
NA,"P_M_Tony_Blair.png","E_F_Sarah_Millican.png",NA,NA,NA,NA,NA,0.4962333,NA,NA,NA,NA,NA,NA,NA,NA,NA,NA,FALSE,"CLIP_Typ","E_F_Sarah_Millican.png P_M_Tony_Blair.png"
NA,"P_M_Tony_Blair.png","P_M_Gordon_Brown.png",NA,NA,NA,NA,NA,0.2578445,NA,NA,NA,NA,NA,NA,NA,NA,NA,NA,FALSE,"CLIP_Typ","P_M_Gordon_Brown.png P_M_Tony_Blair.png"
NA,"P_M_Tony_Blair.png","P_M_david_camer.png",NA,NA,NA,NA,NA,0.1779328,NA,NA,NA,NA,NA,NA,NA,NA,NA,NA,FALSE,"CLIP_Typ","P_M_david_camer.png P_M_Tony_Blair.png"
NA,"P_F_Theresa_May.png","P_F_nicola_sturge.png",NA,NA,NA,NA,NA,0.19546443,NA,NA,NA,NA,NA,NA,NA,NA,NA,NA,FALSE,"CLIP_Typ","P_F_nicola_sturge.png P_F_Theresa_May.png"
NA,"P_F_Theresa_May.png","P_M_jeremy_corbyn.png",NA,NA,NA,NA,NA,0.1869988,NA,NA,NA,NA,NA,NA,NA,NA,NA,NA,FALSE,"CLIP_Typ","P_F_Theresa_May.png P_M_jeremy_corbyn.png"
NA,"P_F_Theresa_May.png","E_F_Julie_Walters.png",NA,NA,NA,NA,NA,0.4498938,NA,NA,NA,NA,NA,NA,NA,NA,NA,NA,FALSE,"CLIP_Typ","E_F_Julie_Walters.png P_F_Theresa_May.png"
NA,"P_F_Theresa_May.png","E_F_Sarah_Millican.png",NA,NA,NA,NA,NA,0.4145447,NA,NA,NA,NA,NA,NA,NA,NA,NA,NA,FALSE,"CLIP_Typ","E_F_Sarah_Millican.png P_F_Theresa_May.png"
NA,"P_F_Theresa_May.png","P_M_Gordon_Brown.png",NA,NA,NA,NA,NA,0.31732386,NA,NA,NA,NA,NA,NA,NA,NA,NA,NA,FALSE,"CLIP_Typ","P_F_Theresa_May.png P_M_Gordon_Brown.png"
NA,"P_F_Theresa_May.png","P_M_david_camer.png",NA,NA,NA,NA,NA,0.17778033,NA,NA,NA,NA,NA,NA,NA,NA,NA,NA,FALSE,"CLIP_Typ","P_F_Theresa_May.png P_M_david_camer.png"
NA,"P_F_nicola_sturge.png","P_M_jeremy_corbyn.png",NA,NA,NA,NA,NA,0.23047477,NA,NA,NA,NA,NA,NA,NA,NA,NA,NA,FALSE,"CLIP_Typ","P_F_nicola_sturge.png P_M_jeremy_corbyn.png"
NA,"P_F_nicola_sturge.png","E_F_Julie_Walters.png",NA,NA,NA,NA,NA,0.3876834,NA,NA,NA,NA,NA,NA,NA,NA,NA,NA,FALSE,"CLIP_Typ","E_F_Julie_Walters.png P_F_nicola_sturge.png"
NA,"P_F_nicola_sturge.png","E_F_Sarah_Millican.png",NA,NA,NA,NA,NA,0.4163897,NA,NA,NA,NA,NA,NA,NA,NA,NA,NA,FALSE,"CLIP_Typ","E_F_Sarah_Millican.png P_F_nicola_sturge.png"
NA,"P_F_nicola_sturge.png","P_M_Gordon_Brown.png",NA,NA,NA,NA,NA,0.2842483,NA,NA,NA,NA,NA,NA,NA,NA,NA,NA,FALSE,"CLIP_Typ","P_F_nicola_sturge.png P_M_Gordon_Brown.png"
NA,"P_F_nicola_sturge.png","P_M_david_camer.png",NA,NA,NA,NA,NA,0.2193927,NA,NA,NA,NA,NA,NA,NA,NA,NA,NA,FALSE,"CLIP_Typ","P_F_nicola_sturge.png P_M_david_camer.png"
NA,"P_M_jeremy_corbyn.png","E_F_Julie_Walters.png",NA,NA,NA,NA,NA,0.4647948,NA,NA,NA,NA,NA,NA,NA,NA,NA,NA,FALSE,"CLIP_Typ","E_F_Julie_Walters.png P_M_jeremy_corbyn.png"
NA,"P_M_jeremy_corbyn.png","E_F_Sarah_Millican.png",NA,NA,NA,NA,NA,0.42742014,NA,NA,NA,NA,NA,NA,NA,NA,NA,NA,FALSE,"CLIP_Typ","E_F_Sarah_Millican.png P_M_jeremy_corbyn.png"
NA,"P_M_jeremy_corbyn.png","P_M_Gordon_Brown.png",NA,NA,NA,NA,NA,0.26531786,NA,NA,NA,NA,NA,NA,NA,NA,NA,NA,FALSE,"CLIP_Typ","P_M_Gordon_Brown.png P_M_jeremy_corbyn.png"
NA,"P_M_jeremy_corbyn.png","P_M_david_camer.png",NA,NA,NA,NA,NA,0.1762599,NA,NA,NA,NA,NA,NA,NA,NA,NA,NA,FALSE,"CLIP_Typ","P_M_david_camer.png P_M_jeremy_corbyn.png"
NA,"E_F_Julie_Walters.png","E_F_Sarah_Millican.png",NA,NA,NA,NA,NA,0.31067413,NA,NA,NA,NA,NA,NA,NA,NA,NA,NA,FALSE,"CLIP_Typ","E_F_Julie_Walters.png E_F_Sarah_Millican.png"
NA,"E_F_Julie_Walters.png","P_M_Gordon_Brown.png",NA,NA,NA,NA,NA,0.39871913,NA,NA,NA,NA,NA,NA,NA,NA,NA,NA,FALSE,"CLIP_Typ","E_F_Julie_Walters.png P_M_Gordon_Brown.png"
NA,"E_F_Julie_Walters.png","P_M_david_camer.png",NA,NA,NA,NA,NA,0.4709196,NA,NA,NA,NA,NA,NA,NA,NA,NA,NA,FALSE,"CLIP_Typ","E_F_Julie_Walters.png P_M_david_camer.png"
NA,"E_F_Sarah_Millican.png","P_M_Gordon_Brown.png",NA,NA,NA,NA,NA,0.40952414,NA,NA,NA,NA,NA,NA,NA,NA,NA,NA,FALSE,"CLIP_Typ","E_F_Sarah_Millican.png P_M_Gordon_Brown.png"
NA,"E_F_Sarah_Millican.png","P_M_david_camer.png",NA,NA,NA,NA,NA,0.469829,NA,NA,NA,NA,NA,NA,NA,NA,NA,NA,FALSE,"CLIP_Typ","E_F_Sarah_Millican.png P_M_david_camer.png"
NA,"P_M_Gordon_Brown.png","P_M_david_camer.png",NA,NA,NA,NA,NA,0.24510914,NA,NA,NA,NA,NA,NA,NA,NA,NA,NA,FALSE,"CLIP_Typ","P_M_david_camer.png P_M_Gordon_Brown.png"
