"RT","img_1","img_2","isSameProffesion","img1proffesion","img2proffesion","img1Gender","img2Gender","keyPressed","participant","time","normlised_keyPress","age","gender","handedness","isFamiliar_img1","isFamiliar_img2","vividness_img1","vividness_img2","reject_trial","pair"
2989,"E_F_Jennifer_Saunders.png","E_M_Russell_Howard.png","TRUE","pictures/stimuli/E","pictures/stimuli/E","F","M","6","5641193817bdbe00122a0f23","10/13/2022, 14:11:46",0.329455778970519,"35","Female","right",1,1,4,4,FALSE,"E_F_Jennifer_Saunders.png E_M_Russell_Howard.png"
3516,"E_F_Julie_Walters.png","P_M_keir_starmer.png","FALSE","pictures/stimuli/E","pictures/stimuli/P","F","M","6","5641193817bdbe00122a0f23","10/13/2022, 14:11:46",0.329455778970519,"35","Female","right",1,1,4,5,FALSE,"E_F_Julie_Walters.png P_M_keir_starmer.png"
2415,"E_F_Sarah_Millican.png","E_M_Michael_McIntyr.png","TRUE","pictures/stimuli/E","pictures/stimuli/E","F","M","5","5641193817bdbe00122a0f23","10/13/2022, 14:11:46",-1.98893673971091,"35","Female","right",1,1,5,5,FALSE,"E_F_Sarah_Millican.png E_M_Michael_McIntyr.png"
3159,"E_F_Dawn_Roma_French.png","E_M_Peter_Kay.png","TRUE","pictures/stimuli/E","pictures/stimuli/E","F","M","5","5641193817bdbe00122a0f23","10/13/2022, 14:11:46",-1.98893673971091,"35","Female","right",1,1,5,4,FALSE,"E_F_Dawn_Roma_French.png E_M_Peter_Kay.png"
2585,"E_M_Peter_Kay.png","P_M_Tony_Blair.png","FALSE","pictures/stimuli/E","pictures/stimuli/P","M","M","4","5641193817bdbe00122a0f23","10/13/2022, 14:11:46",-4.30732925839235,"35","Female","right",1,1,4,4,FALSE,"E_M_Peter_Kay.png P_M_Tony_Blair.png"
2929,"E_M_Simon_Pegg.png","P_M_Gordon_Brown.png","FALSE","pictures/stimuli/E","pictures/stimuli/P","M","M","4","5641193817bdbe00122a0f23","10/13/2022, 14:11:46",-4.30732925839235,"35","Female","right",1,1,5,5,FALSE,"E_M_Simon_Pegg.png P_M_Gordon_Brown.png"
2196,"E_F_Dawn_Roma_French.png","P_M_david_camer.png","FALSE","pictures/stimuli/E","pictures/stimuli/P","F","M","5","5641193817bdbe00122a0f23","10/13/2022, 14:11:46",-1.98893673971091,"35","Female","right",1,1,5,5,FALSE,"E_F_Dawn_Roma_French.png P_M_david_camer.png"
4162,"P_M_Michael_Gove.png","P_M_Tony_Blair.png","TRUE","pictures/stimuli/P","pictures/stimuli/P","M","M","5","5641193817bdbe00122a0f23","10/13/2022, 14:11:46",-1.98893673971091,"35","Female","right",1,1,5,4,FALSE,"P_M_Michael_Gove.png P_M_Tony_Blair.png"
1443,"E_M_Simon_Pegg.png","P_M_david_camer.png","FALSE","pictures/stimuli/E","pictures/stimuli/P","M","M","5","5641193817bdbe00122a0f23","10/13/2022, 14:11:46",-1.98893673971091,"35","Female","right",1,1,5,5,FALSE,"E_M_Simon_Pegg.png P_M_david_camer.png"
1971,"E_F_Jennifer_Saunders.png","P_M_keir_starmer.png","FALSE","pictures/stimuli/E","pictures/stimuli/P","F","M","6","5641193817bdbe00122a0f23","10/13/2022, 14:11:46",0.329455778970519,"35","Female","right",1,1,4,5,FALSE,"E_F_Jennifer_Saunders.png P_M_keir_starmer.png"
1685,"P_F_Theresa_May.png","P_M_nigel_farage.png","TRUE","pictures/stimuli/P","pictures/stimuli/P","F","M","6","5641193817bdbe00122a0f23","10/13/2022, 14:11:46",0.329455778970519,"35","Female","right",1,1,5,5,FALSE,"P_F_Theresa_May.png P_M_nigel_farage.png"
2973,"E_M_Jimmy_Carr.png","E_M_Simon_Pegg.png","TRUE","pictures/stimuli/E","pictures/stimuli/E","M","M","6","5641193817bdbe00122a0f23","10/13/2022, 14:11:46",0.329455778970519,"35","Female","right",1,1,4,5,FALSE,"E_M_Jimmy_Carr.png E_M_Simon_Pegg.png"
1757,"E_M_Ewan_McGregor.png","P_M_Michael_Gove.png","FALSE","pictures/stimuli/E","pictures/stimuli/P","M","M","6","5641193817bdbe00122a0f23","10/13/2022, 14:11:46",0.329455778970519,"35","Female","right",1,1,4,5,FALSE,"E_M_Ewan_McGregor.png P_M_Michael_Gove.png"
1554,"E_F_Julie_Walters.png","P_M_nigel_farage.png","FALSE","pictures/stimuli/E","pictures/stimuli/P","F","M","6","5641193817bdbe00122a0f23","10/13/2022, 14:11:46",0.329455778970519,"35","Female","right",1,1,4,5,FALSE,"E_F_Julie_Walters.png P_M_nigel_farage.png"
3224,"P_F_nicola_sturge.png","P_F_Theresa_May.png","TRUE","pictures/stimuli/P","pictures/stimuli/P","F","F","5","5641193817bdbe00122a0f23","10/13/2022, 14:11:46",-1.98893673971091,"35","Female","right",1,1,5,5,FALSE,"P_F_nicola_sturge.png P_F_Theresa_May.png"
2408,"E_F_Julie_Walters.png","P_M_david_camer.png","FALSE","pictures/stimuli/E","pictures/stimuli/P","F","M","6","5641193817bdbe00122a0f23","10/13/2022, 14:11:46",0.329455778970519,"35","Female","right",1,1,4,5,FALSE,"E_F_Julie_Walters.png P_M_david_camer.png"
1333,"P_M_Michael_Gove.png","P_M_Sajid_Javid.png","TRUE","pictures/stimuli/P","pictures/stimuli/P","M","M","6","5641193817bdbe00122a0f23","10/13/2022, 14:11:46",0.329455778970519,"35","Female","right",1,1,5,5,FALSE,"P_M_Michael_Gove.png P_M_Sajid_Javid.png"
1435,"E_F_Sarah_Millican.png","P_M_jeremy_corbyn.png","FALSE","pictures/stimuli/E","pictures/stimuli/P","F","M","6","5641193817bdbe00122a0f23","10/13/2022, 14:11:46",0.329455778970519,"35","Female","right",1,1,5,4,FALSE,"E_F_Sarah_Millican.png P_M_jeremy_corbyn.png"
1784,"E_F_Julie_Walters.png","E_F_Sarah_Millican.png","TRUE","pictures/stimuli/E","pictures/stimuli/E","F","F","6","5641193817bdbe00122a0f23","10/13/2022, 14:11:46",0.329455778970519,"35","Female","right",1,1,4,5,FALSE,"E_F_Julie_Walters.png E_F_Sarah_Millican.png"
1940,"E_F_Dawn_Roma_French.png","E_F_Julie_Walters.png","TRUE","pictures/stimuli/E","pictures/stimuli/E","F","F","6","5641193817bdbe00122a0f23","10/13/2022, 14:11:46",0.329455778970519,"35","Female","right",1,1,5,4,FALSE,"E_F_Dawn_Roma_French.png E_F_Julie_Walters.png"
1619,"E_M_Ewan_McGregor.png","P_M_david_camer.png","FALSE","pictures/stimuli/E","pictures/stimuli/P","M","M","6","5641193817bdbe00122a0f23","10/13/2022, 14:11:46",0.329455778970519,"35","Female","right",1,1,4,5,FALSE,"E_M_Ewan_McGregor.png P_M_david_camer.png"
1609,"E_M_Simon_Pegg.png","P_F_Theresa_May.png","FALSE","pictures/stimuli/E","pictures/stimuli/P","M","F","6","5641193817bdbe00122a0f23","10/13/2022, 14:11:46",0.329455778970519,"35","Female","right",1,1,5,5,FALSE,"E_M_Simon_Pegg.png P_F_Theresa_May.png"
3747,"E_M_Simon_Pegg.png","P_M_Tony_Blair.png","FALSE","pictures/stimuli/E","pictures/stimuli/P","M","M","4","5641193817bdbe00122a0f23","10/13/2022, 14:11:46",-4.30732925839235,"35","Female","right",1,1,5,4,FALSE,"E_M_Simon_Pegg.png P_M_Tony_Blair.png"
1911,"E_M_Ewan_McGregor.png","P_M_Tony_Blair.png","FALSE","pictures/stimuli/E","pictures/stimuli/P","M","M","6","5641193817bdbe00122a0f23","10/13/2022, 14:11:46",0.329455778970519,"35","Female","right",1,1,4,4,FALSE,"E_M_Ewan_McGregor.png P_M_Tony_Blair.png"
1760,"P_M_Gordon_Brown.png","P_M_Sajid_Javid.png","TRUE","pictures/stimuli/P","pictures/stimuli/P","M","M","6","5641193817bdbe00122a0f23","10/13/2022, 14:11:46",0.329455778970519,"35","Female","right",1,1,5,5,FALSE,"P_M_Gordon_Brown.png P_M_Sajid_Javid.png"
1974,"E_F_Dawn_Roma_French.png","E_F_Sarah_Millican.png","TRUE","pictures/stimuli/E","pictures/stimuli/E","F","F","6","5641193817bdbe00122a0f23","10/13/2022, 14:11:46",0.329455778970519,"35","Female","right",1,1,5,5,FALSE,"E_F_Dawn_Roma_French.png E_F_Sarah_Millican.png"
1976,"E_M_Jimmy_Carr.png","P_M_keir_starmer.png","FALSE","pictures/stimuli/E","pictures/stimuli/P","M","M","6","5641193817bdbe00122a0f23","10/13/2022, 14:11:46",0.329455778970519,"35","Female","right",1,1,4,5,FALSE,"E_M_Jimmy_Carr.png P_M_keir_starmer.png"
1903,"E_F_Sarah_Millican.png","P_M_Sajid_Javid.png","FALSE","pictures/stimuli/E","pictures/stimuli/P","F","M","6","5641193817bdbe00122a0f23","10/13/2022, 14:11:46",0.329455778970519,"35","Female","right",1,1,5,5,FALSE,"E_F_Sarah_Millican.png P_M_Sajid_Javid.png"
1896,"E_F_Dawn_Roma_French.png","P_M_nigel_farage.png","FALSE","pictures/stimuli/E","pictures/stimuli/P","F","M","6","5641193817bdbe00122a0f23","10/13/2022, 14:11:46",0.329455778970519,"35","Female","right",1,1,5,5,FALSE,"E_F_Dawn_Roma_French.png P_M_nigel_farage.png"
1685,"P_M_keir_starmer.png","P_M_Tony_Blair.png","TRUE","pictures/stimuli/P","pictures/stimuli/P","M","M","6","5641193817bdbe00122a0f23","10/13/2022, 14:11:46",0.329455778970519,"35","Female","right",1,1,5,4,FALSE,"P_M_keir_starmer.png P_M_Tony_Blair.png"
1606,"E_F_Dawn_Roma_French.png","E_F_Jennifer_Saunders.png","TRUE","pictures/stimuli/E","pictures/stimuli/E","F","F","6","5641193817bdbe00122a0f23","10/13/2022, 14:11:46",0.329455778970519,"35","Female","right",1,1,5,4,FALSE,"E_F_Dawn_Roma_French.png E_F_Jennifer_Saunders.png"
1661,"E_F_Julie_Walters.png","P_M_Michael_Gove.png","FALSE","pictures/stimuli/E","pictures/stimuli/P","F","M","6","5641193817bdbe00122a0f23","10/13/2022, 14:11:46",0.329455778970519,"35","Female","right",1,1,4,5,FALSE,"E_F_Julie_Walters.png P_M_Michael_Gove.png"
2554,"E_M_Jimmy_Carr.png","P_M_david_camer.png","FALSE","pictures/stimuli/E","pictures/stimuli/P","M","M","5","5641193817bdbe00122a0f23","10/13/2022, 14:11:46",-1.98893673971091,"35","Female","right",1,1,4,5,FALSE,"E_M_Jimmy_Carr.png P_M_david_camer.png"
1827,"E_M_Ewan_McGregor.png","E_M_Jimmy_Carr.png","TRUE","pictures/stimuli/E","pictures/stimuli/E","M","M","6","5641193817bdbe00122a0f23","10/13/2022, 14:11:46",0.329455778970519,"35","Female","right",1,1,4,4,FALSE,"E_M_Ewan_McGregor.png E_M_Jimmy_Carr.png"
1896,"P_F_nicola_sturge.png","P_M_nigel_farage.png","TRUE","pictures/stimuli/P","pictures/stimuli/P","F","M","6","5641193817bdbe00122a0f23","10/13/2022, 14:11:46",0.329455778970519,"35","Female","right",1,1,5,5,FALSE,"P_F_nicola_sturge.png P_M_nigel_farage.png"
1430,"E_F_Jennifer_Saunders.png","P_M_nigel_farage.png","FALSE","pictures/stimuli/E","pictures/stimuli/P","F","M","6","5641193817bdbe00122a0f23","10/13/2022, 14:11:46",0.329455778970519,"35","Female","right",1,1,4,5,FALSE,"E_F_Jennifer_Saunders.png P_M_nigel_farage.png"
1552,"P_M_keir_starmer.png","P_M_nigel_farage.png","TRUE","pictures/stimuli/P","pictures/stimuli/P","M","M","6","5641193817bdbe00122a0f23","10/13/2022, 14:11:46",0.329455778970519,"35","Female","right",1,1,5,5,FALSE,"P_M_keir_starmer.png P_M_nigel_farage.png"
1498,"E_M_Michael_McIntyr.png","P_M_Gordon_Brown.png","FALSE","pictures/stimuli/E","pictures/stimuli/P","M","M","6","5641193817bdbe00122a0f23","10/13/2022, 14:11:46",0.329455778970519,"35","Female","right",1,1,5,5,FALSE,"E_M_Michael_McIntyr.png P_M_Gordon_Brown.png"
1609,"E_F_Julie_Walters.png","P_M_jeremy_corbyn.png","FALSE","pictures/stimuli/E","pictures/stimuli/P","F","M","6","5641193817bdbe00122a0f23","10/13/2022, 14:11:46",0.329455778970519,"35","Female","right",1,1,4,4,FALSE,"E_F_Julie_Walters.png P_M_jeremy_corbyn.png"
1974,"E_F_Dawn_Roma_French.png","P_M_Sajid_Javid.png","FALSE","pictures/stimuli/E","pictures/stimuli/P","F","M","6","5641193817bdbe00122a0f23","10/13/2022, 14:11:46",0.329455778970519,"35","Female","right",1,1,5,5,FALSE,"E_F_Dawn_Roma_French.png P_M_Sajid_Javid.png"
963,"P_F_Theresa_May.png","P_M_Gordon_Brown.png","TRUE","pictures/stimuli/P","pictures/stimuli/P","F","M","6","5641193817bdbe00122a0f23","10/13/2022, 14:11:46",0.329455778970519,"35","Female","right",1,1,5,5,FALSE,"P_F_Theresa_May.png P_M_Gordon_Brown.png"
958,"E_F_Sarah_Millican.png","P_M_nigel_farage.png","FALSE","pictures/stimuli/E","pictures/stimuli/P","F","M","6","5641193817bdbe00122a0f23","10/13/2022, 14:11:46",0.329455778970519,"35","Female","right",1,1,5,5,FALSE,"E_F_Sarah_Millican.png P_M_nigel_farage.png"
1363,"E_M_Michael_McIntyr.png","E_M_Peter_Kay.png","TRUE","pictures/stimuli/E","pictures/stimuli/E","M","M","6","5641193817bdbe00122a0f23","10/13/2022, 14:11:46",0.329455778970519,"35","Female","right",1,1,5,4,FALSE,"E_M_Michael_McIntyr.png E_M_Peter_Kay.png"
1659,"E_F_Julie_Walters.png","E_M_Peter_Kay.png","TRUE","pictures/stimuli/E","pictures/stimuli/E","F","M","6","5641193817bdbe00122a0f23","10/13/2022, 14:11:46",0.329455778970519,"35","Female","right",1,1,4,4,FALSE,"E_F_Julie_Walters.png E_M_Peter_Kay.png"
1307,"P_M_david_camer.png","P_M_keir_starmer.png","TRUE","pictures/stimuli/P","pictures/stimuli/P","M","M","6","5641193817bdbe00122a0f23","10/13/2022, 14:11:46",0.329455778970519,"35","Female","right",1,1,5,5,FALSE,"P_M_david_camer.png P_M_keir_starmer.png"
1206,"P_F_Theresa_May.png","P_M_Tony_Blair.png","TRUE","pictures/stimuli/P","pictures/stimuli/P","F","M","6","5641193817bdbe00122a0f23","10/13/2022, 14:11:46",0.329455778970519,"35","Female","right",1,1,5,4,FALSE,"P_F_Theresa_May.png P_M_Tony_Blair.png"
1317,"E_M_Russell_Howard.png","P_M_Tony_Blair.png","FALSE","pictures/stimuli/E","pictures/stimuli/P","M","M","6","5641193817bdbe00122a0f23","10/13/2022, 14:11:46",0.329455778970519,"35","Female","right",1,1,4,4,FALSE,"E_M_Russell_Howard.png P_M_Tony_Blair.png"
1595,"E_F_Julie_Walters.png","E_M_Jimmy_Carr.png","TRUE","pictures/stimuli/E","pictures/stimuli/E","F","M","6","5641193817bdbe00122a0f23","10/13/2022, 14:11:46",0.329455778970519,"35","Female","right",1,1,4,4,FALSE,"E_F_Julie_Walters.png E_M_Jimmy_Carr.png"
3054,"E_M_Russell_Howard.png","P_M_Gordon_Brown.png","FALSE","pictures/stimuli/E","pictures/stimuli/P","M","M","6","5641193817bdbe00122a0f23","10/13/2022, 14:11:46",0.329455778970519,"35","Female","right",1,1,4,5,FALSE,"E_M_Russell_Howard.png P_M_Gordon_Brown.png"
1193,"P_M_keir_starmer.png","P_M_Michael_Gove.png","TRUE","pictures/stimuli/P","pictures/stimuli/P","M","M","6","5641193817bdbe00122a0f23","10/13/2022, 14:11:46",0.329455778970519,"35","Female","right",1,1,5,5,FALSE,"P_M_keir_starmer.png P_M_Michael_Gove.png"
2630,"E_M_Russell_Howard.png","E_M_Simon_Pegg.png","TRUE","pictures/stimuli/E","pictures/stimuli/E","M","M","6","5641193817bdbe00122a0f23","10/13/2022, 14:11:46",0.329455778970519,"35","Female","right",1,1,4,5,FALSE,"E_M_Russell_Howard.png E_M_Simon_Pegg.png"
1545,"P_M_keir_starmer.png","P_M_Sajid_Javid.png","TRUE","pictures/stimuli/P","pictures/stimuli/P","M","M","6","5641193817bdbe00122a0f23","10/13/2022, 14:11:46",0.329455778970519,"35","Female","right",1,1,5,5,FALSE,"P_M_keir_starmer.png P_M_Sajid_Javid.png"
1338,"P_M_david_camer.png","P_M_Tony_Blair.png","TRUE","pictures/stimuli/P","pictures/stimuli/P","M","M","6","5641193817bdbe00122a0f23","10/13/2022, 14:11:46",0.329455778970519,"35","Female","right",1,1,5,4,FALSE,"P_M_david_camer.png P_M_Tony_Blair.png"
1200,"E_F_Julie_Walters.png","P_F_Theresa_May.png","FALSE","pictures/stimuli/E","pictures/stimuli/P","F","F","6","5641193817bdbe00122a0f23","10/13/2022, 14:11:46",0.329455778970519,"35","Female","right",1,1,4,5,FALSE,"E_F_Julie_Walters.png P_F_Theresa_May.png"
5857,"E_M_Ewan_McGregor.png","P_M_Sajid_Javid.png","FALSE","pictures/stimuli/E","pictures/stimuli/P","M","M","6","5641193817bdbe00122a0f23","10/13/2022, 14:11:46",0.329455778970519,"35","Female","right",1,1,4,5,FALSE,"E_M_Ewan_McGregor.png P_M_Sajid_Javid.png"
1648,"E_M_Russell_Howard.png","P_M_Sajid_Javid.png","FALSE","pictures/stimuli/E","pictures/stimuli/P","M","M","6","5641193817bdbe00122a0f23","10/13/2022, 14:11:46",0.329455778970519,"35","Female","right",1,1,4,5,FALSE,"E_M_Russell_Howard.png P_M_Sajid_Javid.png"
2524,"E_M_Simon_Pegg.png","P_M_jeremy_corbyn.png","FALSE","pictures/stimuli/E","pictures/stimuli/P","M","M","6","5641193817bdbe00122a0f23","10/13/2022, 14:11:46",0.329455778970519,"35","Female","right",1,1,5,4,FALSE,"E_M_Simon_Pegg.png P_M_jeremy_corbyn.png"
1152,"P_M_Gordon_Brown.png","P_M_Tony_Blair.png","TRUE","pictures/stimuli/P","pictures/stimuli/P","M","M","6","5641193817bdbe00122a0f23","10/13/2022, 14:11:46",0.329455778970519,"35","Female","right",1,1,5,4,FALSE,"P_M_Gordon_Brown.png P_M_Tony_Blair.png"
2912,"E_M_Russell_Howard.png","P_M_nigel_farage.png","FALSE","pictures/stimuli/E","pictures/stimuli/P","M","M","6","5641193817bdbe00122a0f23","10/13/2022, 14:11:46",0.329455778970519,"35","Female","right",1,1,4,5,FALSE,"E_M_Russell_Howard.png P_M_nigel_farage.png"
1069,"E_F_Julie_Walters.png","P_M_Tony_Blair.png","FALSE","pictures/stimuli/E","pictures/stimuli/P","F","M","6","5641193817bdbe00122a0f23","10/13/2022, 14:11:46",0.329455778970519,"35","Female","right",1,1,4,4,FALSE,"E_F_Julie_Walters.png P_M_Tony_Blair.png"
4325,"E_F_Julie_Walters.png","E_M_Michael_McIntyr.png","TRUE","pictures/stimuli/E","pictures/stimuli/E","F","M","6","5641193817bdbe00122a0f23","10/13/2022, 14:11:46",0.329455778970519,"35","Female","right",1,1,4,5,FALSE,"E_F_Julie_Walters.png E_M_Michael_McIntyr.png"
6910,"E_F_Dawn_Roma_French.png","E_M_Ewan_McGregor.png","TRUE","pictures/stimuli/E","pictures/stimuli/E","F","M","6","5641193817bdbe00122a0f23","10/13/2022, 14:11:46",0.329455778970519,"35","Female","right",1,1,5,4,FALSE,"E_F_Dawn_Roma_French.png E_M_Ewan_McGregor.png"
1221,"P_F_Theresa_May.png","P_M_keir_starmer.png","TRUE","pictures/stimuli/P","pictures/stimuli/P","F","M","6","5641193817bdbe00122a0f23","10/13/2022, 14:11:46",0.329455778970519,"35","Female","right",1,1,5,5,FALSE,"P_F_Theresa_May.png P_M_keir_starmer.png"
17359,"E_M_Michael_McIntyr.png","P_M_Tony_Blair.png","FALSE","pictures/stimuli/E","pictures/stimuli/P","M","M","4","5641193817bdbe00122a0f23","10/13/2022, 14:11:46",-4.30732925839235,"35","Female","right",1,1,5,4,FALSE,"E_M_Michael_McIntyr.png P_M_Tony_Blair.png"
4863,"E_M_Ewan_McGregor.png","P_M_keir_starmer.png","FALSE","pictures/stimuli/E","pictures/stimuli/P","M","M","5","5641193817bdbe00122a0f23","10/13/2022, 14:11:46",-1.98893673971091,"35","Female","right",1,1,4,5,FALSE,"E_M_Ewan_McGregor.png P_M_keir_starmer.png"
1951,"E_F_Jennifer_Saunders.png","P_M_Tony_Blair.png","FALSE","pictures/stimuli/E","pictures/stimuli/P","F","M","6","5641193817bdbe00122a0f23","10/13/2022, 14:11:46",0.329455778970519,"35","Female","right",1,1,4,4,FALSE,"E_F_Jennifer_Saunders.png P_M_Tony_Blair.png"
4534,"E_M_Jimmy_Carr.png","E_M_Peter_Kay.png","TRUE","pictures/stimuli/E","pictures/stimuli/E","M","M","6","5641193817bdbe00122a0f23","10/13/2022, 14:11:46",0.329455778970519,"35","Female","right",1,1,4,4,FALSE,"E_M_Jimmy_Carr.png E_M_Peter_Kay.png"
25018,"E_M_Russell_Howard.png","P_M_jeremy_corbyn.png","FALSE","pictures/stimuli/E","pictures/stimuli/P","M","M","5","5641193817bdbe00122a0f23","10/13/2022, 14:11:46",-1.98893673971091,"35","Female","right",1,1,4,4,FALSE,"E_M_Russell_Howard.png P_M_jeremy_corbyn.png"
4364,"E_M_Peter_Kay.png","P_F_nicola_sturge.png","FALSE","pictures/stimuli/E","pictures/stimuli/P","M","F","6","5641193817bdbe00122a0f23","10/13/2022, 14:11:46",0.329455778970519,"35","Female","right",1,1,4,5,FALSE,"E_M_Peter_Kay.png P_F_nicola_sturge.png"
1786,"P_M_Michael_Gove.png","P_M_nigel_farage.png","TRUE","pictures/stimuli/P","pictures/stimuli/P","M","M","6","5641193817bdbe00122a0f23","10/13/2022, 14:11:46",0.329455778970519,"35","Female","right",1,1,5,5,FALSE,"P_M_Michael_Gove.png P_M_nigel_farage.png"
1003,"E_M_Jimmy_Carr.png","E_M_Michael_McIntyr.png","TRUE","pictures/stimuli/E","pictures/stimuli/E","M","M","6","5641193817bdbe00122a0f23","10/13/2022, 14:11:46",0.329455778970519,"35","Female","right",1,1,4,5,FALSE,"E_M_Jimmy_Carr.png E_M_Michael_McIntyr.png"
2300,"P_F_Theresa_May.png","P_M_Michael_Gove.png","TRUE","pictures/stimuli/P","pictures/stimuli/P","F","M","6","5641193817bdbe00122a0f23","10/13/2022, 14:11:46",0.329455778970519,"35","Female","right",1,1,5,5,FALSE,"P_F_Theresa_May.png P_M_Michael_Gove.png"
1130,"P_F_nicola_sturge.png","P_M_david_camer.png","TRUE","pictures/stimuli/P","pictures/stimuli/P","F","M","6","5641193817bdbe00122a0f23","10/13/2022, 14:11:46",0.329455778970519,"35","Female","right",1,1,5,5,FALSE,"P_F_nicola_sturge.png P_M_david_camer.png"
2232,"P_M_david_camer.png","P_M_jeremy_corbyn.png","TRUE","pictures/stimuli/P","pictures/stimuli/P","M","M","6","5641193817bdbe00122a0f23","10/13/2022, 14:11:46",0.329455778970519,"35","Female","right",1,1,5,4,FALSE,"P_M_david_camer.png P_M_jeremy_corbyn.png"
1339,"P_M_jeremy_corbyn.png","P_M_Sajid_Javid.png","TRUE","pictures/stimuli/P","pictures/stimuli/P","M","M","6","5641193817bdbe00122a0f23","10/13/2022, 14:11:46",0.329455778970519,"35","Female","right",1,1,4,5,FALSE,"P_M_jeremy_corbyn.png P_M_Sajid_Javid.png"
1053,"E_M_Michael_McIntyr.png","P_M_jeremy_corbyn.png","FALSE","pictures/stimuli/E","pictures/stimuli/P","M","M","6","5641193817bdbe00122a0f23","10/13/2022, 14:11:46",0.329455778970519,"35","Female","right",1,1,5,4,FALSE,"E_M_Michael_McIntyr.png P_M_jeremy_corbyn.png"
2443,"E_M_Russell_Howard.png","P_F_nicola_sturge.png","FALSE","pictures/stimuli/E","pictures/stimuli/P","M","F","6","5641193817bdbe00122a0f23","10/13/2022, 14:11:46",0.329455778970519,"35","Female","right",1,1,4,5,FALSE,"E_M_Russell_Howard.png P_F_nicola_sturge.png"
9886,"E_M_Ewan_McGregor.png","P_M_jeremy_corbyn.png","FALSE","pictures/stimuli/E","pictures/stimuli/P","M","M","6","5641193817bdbe00122a0f23","10/13/2022, 14:11:46",0.329455778970519,"35","Female","right",1,1,4,4,FALSE,"E_M_Ewan_McGregor.png P_M_jeremy_corbyn.png"
973,"P_M_jeremy_corbyn.png","P_M_Michael_Gove.png","TRUE","pictures/stimuli/P","pictures/stimuli/P","M","M","6","5641193817bdbe00122a0f23","10/13/2022, 14:11:46",0.329455778970519,"35","Female","right",1,1,4,5,FALSE,"P_M_jeremy_corbyn.png P_M_Michael_Gove.png"
16389,"E_F_Julie_Walters.png","P_F_nicola_sturge.png","FALSE","pictures/stimuli/E","pictures/stimuli/P","F","F","6","5641193817bdbe00122a0f23","10/13/2022, 14:11:46",0.329455778970519,"35","Female","right",1,1,4,5,FALSE,"E_F_Julie_Walters.png P_F_nicola_sturge.png"
2103,"E_F_Dawn_Roma_French.png","E_M_Russell_Howard.png","TRUE","pictures/stimuli/E","pictures/stimuli/E","F","M","6","5641193817bdbe00122a0f23","10/13/2022, 14:11:46",0.329455778970519,"35","Female","right",1,1,5,4,FALSE,"E_F_Dawn_Roma_French.png E_M_Russell_Howard.png"
1578,"E_F_Sarah_Millican.png","E_M_Jimmy_Carr.png","TRUE","pictures/stimuli/E","pictures/stimuli/E","F","M","6","5641193817bdbe00122a0f23","10/13/2022, 14:11:46",0.329455778970519,"35","Female","right",1,1,5,4,FALSE,"E_F_Sarah_Millican.png E_M_Jimmy_Carr.png"
1063,"E_M_Jimmy_Carr.png","P_M_Gordon_Brown.png","FALSE","pictures/stimuli/E","pictures/stimuli/P","M","M","6","5641193817bdbe00122a0f23","10/13/2022, 14:11:46",0.329455778970519,"35","Female","right",1,1,4,5,FALSE,"E_M_Jimmy_Carr.png P_M_Gordon_Brown.png"
1103,"E_F_Sarah_Millican.png","P_M_david_camer.png","FALSE","pictures/stimuli/E","pictures/stimuli/P","F","M","6","5641193817bdbe00122a0f23","10/13/2022, 14:11:46",0.329455778970519,"35","Female","right",1,1,5,5,FALSE,"E_F_Sarah_Millican.png P_M_david_camer.png"
1406,"E_M_Simon_Pegg.png","P_M_keir_starmer.png","FALSE","pictures/stimuli/E","pictures/stimuli/P","M","M","6","5641193817bdbe00122a0f23","10/13/2022, 14:11:46",0.329455778970519,"35","Female","right",1,1,5,5,FALSE,"E_M_Simon_Pegg.png P_M_keir_starmer.png"
1713,"P_M_Gordon_Brown.png","P_M_jeremy_corbyn.png","TRUE","pictures/stimuli/P","pictures/stimuli/P","M","M","6","5641193817bdbe00122a0f23","10/13/2022, 14:11:46",0.329455778970519,"35","Female","right",1,1,5,4,FALSE,"P_M_Gordon_Brown.png P_M_jeremy_corbyn.png"
1588,"P_M_Gordon_Brown.png","P_M_nigel_farage.png","TRUE","pictures/stimuli/P","pictures/stimuli/P","M","M","6","5641193817bdbe00122a0f23","10/13/2022, 14:11:46",0.329455778970519,"35","Female","right",1,1,5,5,FALSE,"P_M_Gordon_Brown.png P_M_nigel_farage.png"
3524,"E_M_Peter_Kay.png","P_M_nigel_farage.png","FALSE","pictures/stimuli/E","pictures/stimuli/P","M","M","6","5641193817bdbe00122a0f23","10/13/2022, 14:11:46",0.329455778970519,"35","Female","right",1,1,4,5,FALSE,"E_M_Peter_Kay.png P_M_nigel_farage.png"
2178,"E_F_Jennifer_Saunders.png","P_F_Theresa_May.png","FALSE","pictures/stimuli/E","pictures/stimuli/P","F","F","6","5641193817bdbe00122a0f23","10/13/2022, 14:11:46",0.329455778970519,"35","Female","right",1,1,4,5,FALSE,"E_F_Jennifer_Saunders.png P_F_Theresa_May.png"
2033,"E_M_Jimmy_Carr.png","P_M_nigel_farage.png","FALSE","pictures/stimuli/E","pictures/stimuli/P","M","M","6","5641193817bdbe00122a0f23","10/13/2022, 14:11:46",0.329455778970519,"35","Female","right",1,1,4,5,FALSE,"E_M_Jimmy_Carr.png P_M_nigel_farage.png"
1859,"E_F_Sarah_Millican.png","E_M_Ewan_McGregor.png","TRUE","pictures/stimuli/E","pictures/stimuli/E","F","M","6","5641193817bdbe00122a0f23","10/13/2022, 14:11:46",0.329455778970519,"35","Female","right",1,1,5,4,FALSE,"E_F_Sarah_Millican.png E_M_Ewan_McGregor.png"
1062,"E_M_Peter_Kay.png","P_F_Theresa_May.png","FALSE","pictures/stimuli/E","pictures/stimuli/P","M","F","6","5641193817bdbe00122a0f23","10/13/2022, 14:11:46",0.329455778970519,"35","Female","right",1,1,4,5,FALSE,"E_M_Peter_Kay.png P_F_Theresa_May.png"
1875,"E_M_Peter_Kay.png","P_M_Gordon_Brown.png","FALSE","pictures/stimuli/E","pictures/stimuli/P","M","M","6","5641193817bdbe00122a0f23","10/13/2022, 14:11:46",0.329455778970519,"35","Female","right",1,1,4,5,FALSE,"E_M_Peter_Kay.png P_M_Gordon_Brown.png"
1103,"E_M_Ewan_McGregor.png","P_F_Theresa_May.png","FALSE","pictures/stimuli/E","pictures/stimuli/P","M","F","6","5641193817bdbe00122a0f23","10/13/2022, 14:11:46",0.329455778970519,"35","Female","right",1,1,4,5,FALSE,"E_M_Ewan_McGregor.png P_F_Theresa_May.png"
1265,"P_F_Theresa_May.png","P_M_Sajid_Javid.png","TRUE","pictures/stimuli/P","pictures/stimuli/P","F","M","6","5641193817bdbe00122a0f23","10/13/2022, 14:11:46",0.329455778970519,"35","Female","right",1,1,5,5,FALSE,"P_F_Theresa_May.png P_M_Sajid_Javid.png"
2373,"E_M_Jimmy_Carr.png","P_M_Tony_Blair.png","FALSE","pictures/stimuli/E","pictures/stimuli/P","M","M","4","5641193817bdbe00122a0f23","10/13/2022, 14:11:46",-4.30732925839235,"35","Female","right",1,1,4,4,FALSE,"E_M_Jimmy_Carr.png P_M_Tony_Blair.png"
1376,"E_F_Sarah_Millican.png","P_M_keir_starmer.png","FALSE","pictures/stimuli/E","pictures/stimuli/P","F","M","6","5641193817bdbe00122a0f23","10/13/2022, 14:11:46",0.329455778970519,"35","Female","right",1,1,5,5,FALSE,"E_F_Sarah_Millican.png P_M_keir_starmer.png"
2775,"E_M_Michael_McIntyr.png","P_M_Michael_Gove.png","FALSE","pictures/stimuli/E","pictures/stimuli/P","M","M","6","5641193817bdbe00122a0f23","10/13/2022, 14:11:46",0.329455778970519,"35","Female","right",1,1,5,5,FALSE,"E_M_Michael_McIntyr.png P_M_Michael_Gove.png"
1626,"P_M_Sajid_Javid.png","P_M_Tony_Blair.png","TRUE","pictures/stimuli/P","pictures/stimuli/P","M","M","6","5641193817bdbe00122a0f23","10/13/2022, 14:11:46",0.329455778970519,"35","Female","right",1,1,5,4,FALSE,"P_M_Sajid_Javid.png P_M_Tony_Blair.png"
1503,"E_F_Jennifer_Saunders.png","E_M_Simon_Pegg.png","TRUE","pictures/stimuli/E","pictures/stimuli/E","F","M","6","5641193817bdbe00122a0f23","10/13/2022, 14:11:46",0.329455778970519,"35","Female","right",1,1,4,5,FALSE,"E_F_Jennifer_Saunders.png E_M_Simon_Pegg.png"
1253,"E_F_Julie_Walters.png","E_M_Ewan_McGregor.png","TRUE","pictures/stimuli/E","pictures/stimuli/E","F","M","6","5641193817bdbe00122a0f23","10/13/2022, 14:11:46",0.329455778970519,"35","Female","right",1,1,4,4,FALSE,"E_F_Julie_Walters.png E_M_Ewan_McGregor.png"
909,"E_M_Michael_McIntyr.png","P_M_keir_starmer.png","FALSE","pictures/stimuli/E","pictures/stimuli/P","M","M","6","5641193817bdbe00122a0f23","10/13/2022, 14:11:46",0.329455778970519,"35","Female","right",1,1,5,5,FALSE,"E_M_Michael_McIntyr.png P_M_keir_starmer.png"
1066,"P_F_Theresa_May.png","P_M_jeremy_corbyn.png","TRUE","pictures/stimuli/P","pictures/stimuli/P","F","M","6","5641193817bdbe00122a0f23","10/13/2022, 14:11:46",0.329455778970519,"35","Female","right",1,1,5,4,FALSE,"P_F_Theresa_May.png P_M_jeremy_corbyn.png"
1055,"P_F_nicola_sturge.png","P_M_Gordon_Brown.png","TRUE","pictures/stimuli/P","pictures/stimuli/P","F","M","6","5641193817bdbe00122a0f23","10/13/2022, 14:11:46",0.329455778970519,"35","Female","right",1,1,5,5,FALSE,"P_F_nicola_sturge.png P_M_Gordon_Brown.png"
1103,"E_F_Sarah_Millican.png","E_M_Simon_Pegg.png","TRUE","pictures/stimuli/E","pictures/stimuli/E","F","M","6","5641193817bdbe00122a0f23","10/13/2022, 14:11:46",0.329455778970519,"35","Female","right",1,1,5,5,FALSE,"E_F_Sarah_Millican.png E_M_Simon_Pegg.png"
1075,"E_F_Dawn_Roma_French.png","E_M_Simon_Pegg.png","TRUE","pictures/stimuli/E","pictures/stimuli/E","F","M","6","5641193817bdbe00122a0f23","10/13/2022, 14:11:46",0.329455778970519,"35","Female","right",1,1,5,5,FALSE,"E_F_Dawn_Roma_French.png E_M_Simon_Pegg.png"
1006,"E_F_Sarah_Millican.png","P_M_Michael_Gove.png","FALSE","pictures/stimuli/E","pictures/stimuli/P","F","M","6","5641193817bdbe00122a0f23","10/13/2022, 14:11:46",0.329455778970519,"35","Female","right",1,1,5,5,FALSE,"E_F_Sarah_Millican.png P_M_Michael_Gove.png"
1016,"E_F_Jennifer_Saunders.png","P_M_david_camer.png","FALSE","pictures/stimuli/E","pictures/stimuli/P","F","M","6","5641193817bdbe00122a0f23","10/13/2022, 14:11:46",0.329455778970519,"35","Female","right",1,1,4,5,FALSE,"E_F_Jennifer_Saunders.png P_M_david_camer.png"
1009,"E_F_Jennifer_Saunders.png","E_M_Ewan_McGregor.png","TRUE","pictures/stimuli/E","pictures/stimuli/E","F","M","6","5641193817bdbe00122a0f23","10/13/2022, 14:11:46",0.329455778970519,"35","Female","right",1,1,4,4,FALSE,"E_F_Jennifer_Saunders.png E_M_Ewan_McGregor.png"
1343,"E_F_Jennifer_Saunders.png","P_M_jeremy_corbyn.png","FALSE","pictures/stimuli/E","pictures/stimuli/P","F","M","6","5641193817bdbe00122a0f23","10/13/2022, 14:11:46",0.329455778970519,"35","Female","right",1,1,4,4,FALSE,"E_F_Jennifer_Saunders.png P_M_jeremy_corbyn.png"
1361,"P_F_Theresa_May.png","P_M_david_camer.png","TRUE","pictures/stimuli/P","pictures/stimuli/P","F","M","6","5641193817bdbe00122a0f23","10/13/2022, 14:11:46",0.329455778970519,"35","Female","right",1,1,5,5,FALSE,"P_F_Theresa_May.png P_M_david_camer.png"
965,"P_F_nicola_sturge.png","P_M_Michael_Gove.png","TRUE","pictures/stimuli/P","pictures/stimuli/P","F","M","6","5641193817bdbe00122a0f23","10/13/2022, 14:11:46",0.329455778970519,"35","Female","right",1,1,5,5,FALSE,"P_F_nicola_sturge.png P_M_Michael_Gove.png"
1520,"E_M_Simon_Pegg.png","P_M_Sajid_Javid.png","FALSE","pictures/stimuli/E","pictures/stimuli/P","M","M","6","5641193817bdbe00122a0f23","10/13/2022, 14:11:46",0.329455778970519,"35","Female","right",1,1,5,5,FALSE,"E_M_Simon_Pegg.png P_M_Sajid_Javid.png"
1383,"E_F_Dawn_Roma_French.png","P_M_jeremy_corbyn.png","FALSE","pictures/stimuli/E","pictures/stimuli/P","F","M","6","5641193817bdbe00122a0f23","10/13/2022, 14:11:46",0.329455778970519,"35","Female","right",1,1,5,4,FALSE,"E_F_Dawn_Roma_French.png P_M_jeremy_corbyn.png"
878,"E_F_Jennifer_Saunders.png","E_M_Michael_McIntyr.png","TRUE","pictures/stimuli/E","pictures/stimuli/E","F","M","6","5641193817bdbe00122a0f23","10/13/2022, 14:11:46",0.329455778970519,"35","Female","right",1,1,4,5,FALSE,"E_F_Jennifer_Saunders.png E_M_Michael_McIntyr.png"
1162,"E_M_Ewan_McGregor.png","P_F_nicola_sturge.png","FALSE","pictures/stimuli/E","pictures/stimuli/P","M","F","6","5641193817bdbe00122a0f23","10/13/2022, 14:11:46",0.329455778970519,"35","Female","right",1,1,4,5,FALSE,"E_M_Ewan_McGregor.png P_F_nicola_sturge.png"
1026,"E_M_Jimmy_Carr.png","P_M_Michael_Gove.png","FALSE","pictures/stimuli/E","pictures/stimuli/P","M","M","6","5641193817bdbe00122a0f23","10/13/2022, 14:11:46",0.329455778970519,"35","Female","right",1,1,4,5,FALSE,"E_M_Jimmy_Carr.png P_M_Michael_Gove.png"
1253,"E_M_Jimmy_Carr.png","P_M_jeremy_corbyn.png","FALSE","pictures/stimuli/E","pictures/stimuli/P","M","M","6","5641193817bdbe00122a0f23","10/13/2022, 14:11:46",0.329455778970519,"35","Female","right",1,1,4,4,FALSE,"E_M_Jimmy_Carr.png P_M_jeremy_corbyn.png"
1450,"E_M_Jimmy_Carr.png","P_F_Theresa_May.png","FALSE","pictures/stimuli/E","pictures/stimuli/P","M","F","6","5641193817bdbe00122a0f23","10/13/2022, 14:11:46",0.329455778970519,"35","Female","right",1,1,4,5,FALSE,"E_M_Jimmy_Carr.png P_F_Theresa_May.png"
1400,"P_M_jeremy_corbyn.png","P_M_keir_starmer.png","TRUE","pictures/stimuli/P","pictures/stimuli/P","M","M","6","5641193817bdbe00122a0f23","10/13/2022, 14:11:46",0.329455778970519,"35","Female","right",1,1,4,5,FALSE,"P_M_jeremy_corbyn.png P_M_keir_starmer.png"
951,"E_F_Julie_Walters.png","P_M_Sajid_Javid.png","FALSE","pictures/stimuli/E","pictures/stimuli/P","F","M","6","5641193817bdbe00122a0f23","10/13/2022, 14:11:46",0.329455778970519,"35","Female","right",1,1,4,5,FALSE,"E_F_Julie_Walters.png P_M_Sajid_Javid.png"
6341,"E_F_Dawn_Roma_French.png","E_M_Michael_McIntyr.png","TRUE","pictures/stimuli/E","pictures/stimuli/E","F","M","6","5641193817bdbe00122a0f23","10/13/2022, 14:11:46",0.329455778970519,"35","Female","right",1,1,5,5,FALSE,"E_F_Dawn_Roma_French.png E_M_Michael_McIntyr.png"
5704,"E_F_Jennifer_Saunders.png","P_M_Gordon_Brown.png","FALSE","pictures/stimuli/E","pictures/stimuli/P","F","M","6","5641193817bdbe00122a0f23","10/13/2022, 14:11:46",0.329455778970519,"35","Female","right",1,1,4,5,FALSE,"E_F_Jennifer_Saunders.png P_M_Gordon_Brown.png"
5739,"E_M_Michael_McIntyr.png","E_M_Russell_Howard.png","TRUE","pictures/stimuli/E","pictures/stimuli/E","M","M","6","5641193817bdbe00122a0f23","10/13/2022, 14:11:46",0.329455778970519,"35","Female","right",1,1,5,4,FALSE,"E_M_Michael_McIntyr.png E_M_Russell_Howard.png"
1585,"E_M_Russell_Howard.png","P_F_Theresa_May.png","FALSE","pictures/stimuli/E","pictures/stimuli/P","M","F","6","5641193817bdbe00122a0f23","10/13/2022, 14:11:46",0.329455778970519,"35","Female","right",1,1,4,5,FALSE,"E_M_Russell_Howard.png P_F_Theresa_May.png"
2252,"E_M_Michael_McIntyr.png","P_F_nicola_sturge.png","FALSE","pictures/stimuli/E","pictures/stimuli/P","M","F","6","5641193817bdbe00122a0f23","10/13/2022, 14:11:46",0.329455778970519,"35","Female","right",1,1,5,5,FALSE,"E_M_Michael_McIntyr.png P_F_nicola_sturge.png"
3412,"E_F_Dawn_Roma_French.png","P_F_Theresa_May.png","FALSE","pictures/stimuli/E","pictures/stimuli/P","F","F","6","5641193817bdbe00122a0f23","10/13/2022, 14:11:46",0.329455778970519,"35","Female","right",1,1,5,5,FALSE,"E_F_Dawn_Roma_French.png P_F_Theresa_May.png"
2224,"E_F_Julie_Walters.png","E_M_Simon_Pegg.png","TRUE","pictures/stimuli/E","pictures/stimuli/E","F","M","6","5641193817bdbe00122a0f23","10/13/2022, 14:11:46",0.329455778970519,"35","Female","right",1,1,4,5,FALSE,"E_F_Julie_Walters.png E_M_Simon_Pegg.png"
5023,"P_F_nicola_sturge.png","P_M_jeremy_corbyn.png","TRUE","pictures/stimuli/P","pictures/stimuli/P","F","M","6","5641193817bdbe00122a0f23","10/13/2022, 14:11:46",0.329455778970519,"35","Female","right",1,1,5,4,FALSE,"P_F_nicola_sturge.png P_M_jeremy_corbyn.png"
14803,"P_F_nicola_sturge.png","P_M_Sajid_Javid.png","TRUE","pictures/stimuli/P","pictures/stimuli/P","F","M","6","5641193817bdbe00122a0f23","10/13/2022, 14:11:46",0.329455778970519,"35","Female","right",1,1,5,5,FALSE,"P_F_nicola_sturge.png P_M_Sajid_Javid.png"
4601,"E_M_Michael_McIntyr.png","P_M_nigel_farage.png","FALSE","pictures/stimuli/E","pictures/stimuli/P","M","M","5","5641193817bdbe00122a0f23","10/13/2022, 14:11:46",-1.98893673971091,"35","Female","right",1,1,5,5,FALSE,"E_M_Michael_McIntyr.png P_M_nigel_farage.png"
9757,"P_F_nicola_sturge.png","P_M_Tony_Blair.png","TRUE","pictures/stimuli/P","pictures/stimuli/P","F","M","6","5641193817bdbe00122a0f23","10/13/2022, 14:11:46",0.329455778970519,"35","Female","right",1,1,5,4,FALSE,"P_F_nicola_sturge.png P_M_Tony_Blair.png"
2174,"E_M_Michael_McIntyr.png","P_M_Sajid_Javid.png","FALSE","pictures/stimuli/E","pictures/stimuli/P","M","M","6","5641193817bdbe00122a0f23","10/13/2022, 14:11:46",0.329455778970519,"35","Female","right",1,1,5,5,FALSE,"E_M_Michael_McIntyr.png P_M_Sajid_Javid.png"
967,"E_F_Jennifer_Saunders.png","P_M_Sajid_Javid.png","FALSE","pictures/stimuli/E","pictures/stimuli/P","F","M","6","5641193817bdbe00122a0f23","10/13/2022, 14:11:46",0.329455778970519,"35","Female","right",1,1,4,5,FALSE,"E_F_Jennifer_Saunders.png P_M_Sajid_Javid.png"
1241,"E_M_Russell_Howard.png","P_M_keir_starmer.png","FALSE","pictures/stimuli/E","pictures/stimuli/P","M","M","6","5641193817bdbe00122a0f23","10/13/2022, 14:11:46",0.329455778970519,"35","Female","right",1,1,4,5,FALSE,"E_M_Russell_Howard.png P_M_keir_starmer.png"
1471,"E_F_Sarah_Millican.png","P_M_Gordon_Brown.png","FALSE","pictures/stimuli/E","pictures/stimuli/P","F","M","6","5641193817bdbe00122a0f23","10/13/2022, 14:11:46",0.329455778970519,"35","Female","right",1,1,5,5,FALSE,"E_F_Sarah_Millican.png P_M_Gordon_Brown.png"
983,"E_M_Russell_Howard.png","P_M_Michael_Gove.png","FALSE","pictures/stimuli/E","pictures/stimuli/P","M","M","6","5641193817bdbe00122a0f23","10/13/2022, 14:11:46",0.329455778970519,"35","Female","right",1,1,4,5,FALSE,"E_M_Russell_Howard.png P_M_Michael_Gove.png"
1673,"P_M_jeremy_corbyn.png","P_M_Tony_Blair.png","TRUE","pictures/stimuli/P","pictures/stimuli/P","M","M","6","5641193817bdbe00122a0f23","10/13/2022, 14:11:46",0.329455778970519,"35","Female","right",1,1,4,4,FALSE,"P_M_jeremy_corbyn.png P_M_Tony_Blair.png"
1067,"E_M_Peter_Kay.png","P_M_david_camer.png","FALSE","pictures/stimuli/E","pictures/stimuli/P","M","M","6","5641193817bdbe00122a0f23","10/13/2022, 14:11:46",0.329455778970519,"35","Female","right",1,1,4,5,FALSE,"E_M_Peter_Kay.png P_M_david_camer.png"
2357,"P_M_Gordon_Brown.png","P_M_keir_starmer.png","TRUE","pictures/stimuli/P","pictures/stimuli/P","M","M","6","5641193817bdbe00122a0f23","10/13/2022, 14:11:46",0.329455778970519,"35","Female","right",1,1,5,5,FALSE,"P_M_Gordon_Brown.png P_M_keir_starmer.png"
1419,"E_M_Peter_Kay.png","E_M_Simon_Pegg.png","TRUE","pictures/stimuli/E","pictures/stimuli/E","M","M","6","5641193817bdbe00122a0f23","10/13/2022, 14:11:46",0.329455778970519,"35","Female","right",1,1,4,5,FALSE,"E_M_Peter_Kay.png E_M_Simon_Pegg.png"
1273,"E_M_Michael_McIntyr.png","P_F_Theresa_May.png","FALSE","pictures/stimuli/E","pictures/stimuli/P","M","F","6","5641193817bdbe00122a0f23","10/13/2022, 14:11:46",0.329455778970519,"35","Female","right",1,1,5,5,FALSE,"E_M_Michael_McIntyr.png P_F_Theresa_May.png"
1522,"E_M_Peter_Kay.png","P_M_jeremy_corbyn.png","FALSE","pictures/stimuli/E","pictures/stimuli/P","M","M","6","5641193817bdbe00122a0f23","10/13/2022, 14:11:46",0.329455778970519,"35","Female","right",1,1,4,4,FALSE,"E_M_Peter_Kay.png P_M_jeremy_corbyn.png"
1188,"P_M_nigel_farage.png","P_M_Tony_Blair.png","TRUE","pictures/stimuli/P","pictures/stimuli/P","M","M","6","5641193817bdbe00122a0f23","10/13/2022, 14:11:46",0.329455778970519,"35","Female","right",1,1,5,4,FALSE,"P_M_nigel_farage.png P_M_Tony_Blair.png"
1075,"E_M_Ewan_McGregor.png","E_M_Peter_Kay.png","TRUE","pictures/stimuli/E","pictures/stimuli/E","M","M","6","5641193817bdbe00122a0f23","10/13/2022, 14:11:46",0.329455778970519,"35","Female","right",1,1,4,4,FALSE,"E_M_Ewan_McGregor.png E_M_Peter_Kay.png"
1373,"E_M_Peter_Kay.png","E_M_Russell_Howard.png","TRUE","pictures/stimuli/E","pictures/stimuli/E","M","M","6","5641193817bdbe00122a0f23","10/13/2022, 14:11:46",0.329455778970519,"35","Female","right",1,1,4,4,FALSE,"E_M_Peter_Kay.png E_M_Russell_Howard.png"
1231,"E_M_Ewan_McGregor.png","P_M_Gordon_Brown.png","FALSE","pictures/stimuli/E","pictures/stimuli/P","M","M","6","5641193817bdbe00122a0f23","10/13/2022, 14:11:46",0.329455778970519,"35","Female","right",1,1,4,5,FALSE,"E_M_Ewan_McGregor.png P_M_Gordon_Brown.png"
2195,"E_F_Dawn_Roma_French.png","P_M_Michael_Gove.png","FALSE","pictures/stimuli/E","pictures/stimuli/P","F","M","6","5641193817bdbe00122a0f23","10/13/2022, 14:11:46",0.329455778970519,"35","Female","right",1,1,5,5,FALSE,"E_F_Dawn_Roma_French.png P_M_Michael_Gove.png"
1153,"E_F_Julie_Walters.png","P_M_Gordon_Brown.png","FALSE","pictures/stimuli/E","pictures/stimuli/P","F","M","6","5641193817bdbe00122a0f23","10/13/2022, 14:11:46",0.329455778970519,"35","Female","right",1,1,4,5,FALSE,"E_F_Julie_Walters.png P_M_Gordon_Brown.png"
1357,"E_M_Jimmy_Carr.png","E_M_Russell_Howard.png","TRUE","pictures/stimuli/E","pictures/stimuli/E","M","M","6","5641193817bdbe00122a0f23","10/13/2022, 14:11:46",0.329455778970519,"35","Female","right",1,1,4,4,FALSE,"E_M_Jimmy_Carr.png E_M_Russell_Howard.png"
1608,"P_M_Gordon_Brown.png","P_M_Michael_Gove.png","TRUE","pictures/stimuli/P","pictures/stimuli/P","M","M","6","5641193817bdbe00122a0f23","10/13/2022, 14:11:46",0.329455778970519,"35","Female","right",1,1,5,5,FALSE,"P_M_Gordon_Brown.png P_M_Michael_Gove.png"
1386,"E_F_Dawn_Roma_French.png","P_F_nicola_sturge.png","FALSE","pictures/stimuli/E","pictures/stimuli/P","F","F","6","5641193817bdbe00122a0f23","10/13/2022, 14:11:46",0.329455778970519,"35","Female","right",1,1,5,5,FALSE,"E_F_Dawn_Roma_French.png P_F_nicola_sturge.png"
1171,"P_M_nigel_farage.png","P_M_Sajid_Javid.png","TRUE","pictures/stimuli/P","pictures/stimuli/P","M","M","6","5641193817bdbe00122a0f23","10/13/2022, 14:11:46",0.329455778970519,"35","Female","right",1,1,5,5,FALSE,"P_M_nigel_farage.png P_M_Sajid_Javid.png"
1099,"P_F_nicola_sturge.png","P_M_keir_starmer.png","TRUE","pictures/stimuli/P","pictures/stimuli/P","F","M","6","5641193817bdbe00122a0f23","10/13/2022, 14:11:46",0.329455778970519,"35","Female","right",1,1,5,5,FALSE,"P_F_nicola_sturge.png P_M_keir_starmer.png"
1167,"E_F_Jennifer_Saunders.png","P_F_nicola_sturge.png","FALSE","pictures/stimuli/E","pictures/stimuli/P","F","F","6","5641193817bdbe00122a0f23","10/13/2022, 14:11:46",0.329455778970519,"35","Female","right",1,1,4,5,FALSE,"E_F_Jennifer_Saunders.png P_F_nicola_sturge.png"
1536,"E_F_Sarah_Millican.png","P_M_Tony_Blair.png","FALSE","pictures/stimuli/E","pictures/stimuli/P","F","M","6","5641193817bdbe00122a0f23","10/13/2022, 14:11:46",0.329455778970519,"35","Female","right",1,1,5,4,FALSE,"E_F_Sarah_Millican.png P_M_Tony_Blair.png"
1670,"E_M_Russell_Howard.png","P_M_david_camer.png","FALSE","pictures/stimuli/E","pictures/stimuli/P","M","M","6","5641193817bdbe00122a0f23","10/13/2022, 14:11:46",0.329455778970519,"35","Female","right",1,1,4,5,FALSE,"E_M_Russell_Howard.png P_M_david_camer.png"
1572,"E_F_Julie_Walters.png","E_M_Russell_Howard.png","TRUE","pictures/stimuli/E","pictures/stimuli/E","F","M","6","5641193817bdbe00122a0f23","10/13/2022, 14:11:46",0.329455778970519,"35","Female","right",1,1,4,4,FALSE,"E_F_Julie_Walters.png E_M_Russell_Howard.png"
1630,"P_M_david_camer.png","P_M_Michael_Gove.png","TRUE","pictures/stimuli/P","pictures/stimuli/P","M","M","6","5641193817bdbe00122a0f23","10/13/2022, 14:11:46",0.329455778970519,"35","Female","right",1,1,5,5,FALSE,"P_M_david_camer.png P_M_Michael_Gove.png"
1793,"P_M_david_camer.png","P_M_Sajid_Javid.png","TRUE","pictures/stimuli/P","pictures/stimuli/P","M","M","6","5641193817bdbe00122a0f23","10/13/2022, 14:11:46",0.329455778970519,"35","Female","right",1,1,5,5,FALSE,"P_M_david_camer.png P_M_Sajid_Javid.png"
1815,"E_M_Peter_Kay.png","P_M_Sajid_Javid.png","FALSE","pictures/stimuli/E","pictures/stimuli/P","M","M","6","5641193817bdbe00122a0f23","10/13/2022, 14:11:46",0.329455778970519,"35","Female","right",1,1,4,5,FALSE,"E_M_Peter_Kay.png P_M_Sajid_Javid.png"
2783,"E_M_Ewan_McGregor.png","E_M_Simon_Pegg.png","TRUE","pictures/stimuli/E","pictures/stimuli/E","M","M","4","5641193817bdbe00122a0f23","10/13/2022, 14:11:46",-4.30732925839235,"35","Female","right",1,1,4,5,FALSE,"E_M_Ewan_McGregor.png E_M_Simon_Pegg.png"
1618,"E_M_Peter_Kay.png","P_M_keir_starmer.png","FALSE","pictures/stimuli/E","pictures/stimuli/P","M","M","5","5641193817bdbe00122a0f23","10/13/2022, 14:11:46",-1.98893673971091,"35","Female","right",1,1,4,5,FALSE,"E_M_Peter_Kay.png P_M_keir_starmer.png"
2311,"E_F_Dawn_Roma_French.png","E_M_Jimmy_Carr.png","TRUE","pictures/stimuli/E","pictures/stimuli/E","F","M","6","5641193817bdbe00122a0f23","10/13/2022, 14:11:46",0.329455778970519,"35","Female","right",1,1,5,4,FALSE,"E_F_Dawn_Roma_French.png E_M_Jimmy_Carr.png"
1575,"E_F_Jennifer_Saunders.png","E_M_Peter_Kay.png","TRUE","pictures/stimuli/E","pictures/stimuli/E","F","M","6","5641193817bdbe00122a0f23","10/13/2022, 14:11:46",0.329455778970519,"35","Female","right",1,1,4,4,FALSE,"E_F_Jennifer_Saunders.png E_M_Peter_Kay.png"
1429,"E_M_Simon_Pegg.png","P_M_nigel_farage.png","FALSE","pictures/stimuli/E","pictures/stimuli/P","M","M","6","5641193817bdbe00122a0f23","10/13/2022, 14:11:46",0.329455778970519,"35","Female","right",1,1,5,5,FALSE,"E_M_Simon_Pegg.png P_M_nigel_farage.png"
2113,"E_F_Jennifer_Saunders.png","E_F_Sarah_Millican.png","TRUE","pictures/stimuli/E","pictures/stimuli/E","F","F","5","5641193817bdbe00122a0f23","10/13/2022, 14:11:46",-1.98893673971091,"35","Female","right",1,1,4,5,FALSE,"E_F_Jennifer_Saunders.png E_F_Sarah_Millican.png"
1694,"E_M_Michael_McIntyr.png","P_M_david_camer.png","FALSE","pictures/stimuli/E","pictures/stimuli/P","M","M","5","5641193817bdbe00122a0f23","10/13/2022, 14:11:46",-1.98893673971091,"35","Female","right",1,1,5,5,FALSE,"E_M_Michael_McIntyr.png P_M_david_camer.png"
1570,"E_F_Sarah_Millican.png","P_F_Theresa_May.png","FALSE","pictures/stimuli/E","pictures/stimuli/P","F","F","5","5641193817bdbe00122a0f23","10/13/2022, 14:11:46",-1.98893673971091,"35","Female","right",1,1,5,5,FALSE,"E_F_Sarah_Millican.png P_F_Theresa_May.png"
1651,"E_M_Jimmy_Carr.png","P_M_Sajid_Javid.png","FALSE","pictures/stimuli/E","pictures/stimuli/P","M","M","6","5641193817bdbe00122a0f23","10/13/2022, 14:11:46",0.329455778970519,"35","Female","right",1,1,4,5,FALSE,"E_M_Jimmy_Carr.png P_M_Sajid_Javid.png"
2605,"E_F_Sarah_Millican.png","E_M_Russell_Howard.png","TRUE","pictures/stimuli/E","pictures/stimuli/E","F","M","6","5641193817bdbe00122a0f23","10/13/2022, 14:11:46",0.329455778970519,"35","Female","right",1,1,5,4,FALSE,"E_F_Sarah_Millican.png E_M_Russell_Howard.png"
1869,"E_M_Peter_Kay.png","P_M_Michael_Gove.png","FALSE","pictures/stimuli/E","pictures/stimuli/P","M","M","6","5641193817bdbe00122a0f23","10/13/2022, 14:11:46",0.329455778970519,"35","Female","right",1,1,4,5,FALSE,"E_M_Peter_Kay.png P_M_Michael_Gove.png"
1157,"E_M_Michael_McIntyr.png","E_M_Simon_Pegg.png","TRUE","pictures/stimuli/E","pictures/stimuli/E","M","M","6","5641193817bdbe00122a0f23","10/13/2022, 14:11:46",0.329455778970519,"35","Female","right",1,1,5,5,FALSE,"E_M_Michael_McIntyr.png E_M_Simon_Pegg.png"
2823,"P_M_david_camer.png","P_M_Gordon_Brown.png","TRUE","pictures/stimuli/P","pictures/stimuli/P","M","M","6","5641193817bdbe00122a0f23","10/13/2022, 14:11:46",0.329455778970519,"35","Female","right",1,1,5,5,FALSE,"P_M_david_camer.png P_M_Gordon_Brown.png"
1407,"E_F_Sarah_Millican.png","E_M_Peter_Kay.png","TRUE","pictures/stimuli/E","pictures/stimuli/E","F","M","6","5641193817bdbe00122a0f23","10/13/2022, 14:11:46",0.329455778970519,"35","Female","right",1,1,5,4,FALSE,"E_F_Sarah_Millican.png E_M_Peter_Kay.png"
1183,"E_F_Dawn_Roma_French.png","P_M_Gordon_Brown.png","FALSE","pictures/stimuli/E","pictures/stimuli/P","F","M","6","5641193817bdbe00122a0f23","10/13/2022, 14:11:46",0.329455778970519,"35","Female","right",1,1,5,5,FALSE,"E_F_Dawn_Roma_French.png P_M_Gordon_Brown.png"
1517,"E_F_Jennifer_Saunders.png","P_M_Michael_Gove.png","FALSE","pictures/stimuli/E","pictures/stimuli/P","F","M","6","5641193817bdbe00122a0f23","10/13/2022, 14:11:46",0.329455778970519,"35","Female","right",1,1,4,5,FALSE,"E_F_Jennifer_Saunders.png P_M_Michael_Gove.png"
1141,"E_M_Simon_Pegg.png","P_F_nicola_sturge.png","FALSE","pictures/stimuli/E","pictures/stimuli/P","M","F","6","5641193817bdbe00122a0f23","10/13/2022, 14:11:46",0.329455778970519,"35","Female","right",1,1,5,5,FALSE,"E_M_Simon_Pegg.png P_F_nicola_sturge.png"
1902,"E_M_Simon_Pegg.png","P_M_Michael_Gove.png","FALSE","pictures/stimuli/E","pictures/stimuli/P","M","M","6","5641193817bdbe00122a0f23","10/13/2022, 14:11:46",0.329455778970519,"35","Female","right",1,1,5,5,FALSE,"E_M_Simon_Pegg.png P_M_Michael_Gove.png"
1417,"E_F_Sarah_Millican.png","P_F_nicola_sturge.png","FALSE","pictures/stimuli/E","pictures/stimuli/P","F","F","6","5641193817bdbe00122a0f23","10/13/2022, 14:11:46",0.329455778970519,"35","Female","right",1,1,5,5,FALSE,"E_F_Sarah_Millican.png P_F_nicola_sturge.png"
1527,"E_F_Jennifer_Saunders.png","E_F_Julie_Walters.png","TRUE","pictures/stimuli/E","pictures/stimuli/E","F","F","5","5641193817bdbe00122a0f23","10/13/2022, 14:11:46",-1.98893673971091,"35","Female","right",1,1,4,4,FALSE,"E_F_Jennifer_Saunders.png E_F_Julie_Walters.png"
978,"E_M_Jimmy_Carr.png","P_F_nicola_sturge.png","FALSE","pictures/stimuli/E","pictures/stimuli/P","M","F","6","5641193817bdbe00122a0f23","10/13/2022, 14:11:46",0.329455778970519,"35","Female","right",1,1,4,5,FALSE,"E_M_Jimmy_Carr.png P_F_nicola_sturge.png"
949,"P_M_jeremy_corbyn.png","P_M_nigel_farage.png","TRUE","pictures/stimuli/P","pictures/stimuli/P","M","M","6","5641193817bdbe00122a0f23","10/13/2022, 14:11:46",0.329455778970519,"35","Female","right",1,1,4,5,FALSE,"P_M_jeremy_corbyn.png P_M_nigel_farage.png"
1181,"E_M_Ewan_McGregor.png","P_M_nigel_farage.png","FALSE","pictures/stimuli/E","pictures/stimuli/P","M","M","6","5641193817bdbe00122a0f23","10/13/2022, 14:11:46",0.329455778970519,"35","Female","right",1,1,4,5,FALSE,"E_M_Ewan_McGregor.png P_M_nigel_farage.png"
4123,"E_F_Dawn_Roma_French.png","P_M_Tony_Blair.png","FALSE","pictures/stimuli/E","pictures/stimuli/P","F","M","6","5641193817bdbe00122a0f23","10/13/2022, 14:11:46",0.329455778970519,"35","Female","right",1,1,5,4,FALSE,"E_F_Dawn_Roma_French.png P_M_Tony_Blair.png"
1123,"E_F_Jennifer_Saunders.png","E_M_Jimmy_Carr.png","TRUE","pictures/stimuli/E","pictures/stimuli/E","F","M","6","5641193817bdbe00122a0f23","10/13/2022, 14:11:46",0.329455778970519,"35","Female","right",1,1,4,4,FALSE,"E_F_Jennifer_Saunders.png E_M_Jimmy_Carr.png"
1025,"E_F_Dawn_Roma_French.png","P_M_keir_starmer.png","FALSE","pictures/stimuli/E","pictures/stimuli/P","F","M","6","5641193817bdbe00122a0f23","10/13/2022, 14:11:46",0.329455778970519,"35","Female","right",1,1,5,5,FALSE,"E_F_Dawn_Roma_French.png P_M_keir_starmer.png"
1017,"E_M_Ewan_McGregor.png","E_M_Michael_McIntyr.png","TRUE","pictures/stimuli/E","pictures/stimuli/E","M","M","6","5641193817bdbe00122a0f23","10/13/2022, 14:11:46",0.329455778970519,"35","Female","right",1,1,4,5,FALSE,"E_M_Ewan_McGregor.png E_M_Michael_McIntyr.png"
897,"E_M_Ewan_McGregor.png","E_M_Russell_Howard.png","TRUE","pictures/stimuli/E","pictures/stimuli/E","M","M","6","5641193817bdbe00122a0f23","10/13/2022, 14:11:46",0.329455778970519,"35","Female","right",1,1,4,4,FALSE,"E_M_Ewan_McGregor.png E_M_Russell_Howard.png"
1010,"P_M_david_camer.png","P_M_nigel_farage.png","TRUE","pictures/stimuli/P","pictures/stimuli/P","M","M","6","5641193817bdbe00122a0f23","10/13/2022, 14:11:46",0.329455778970519,"35","Female","right",1,1,5,5,FALSE,"P_M_david_camer.png P_M_nigel_farage.png"
8617,"E_M_Peter_Kay.png","P_M_Gordon_Brown.png","FALSE","pictures/stimuli/E","pictures/stimuli/P","M","M","5","58d3c463bfaa440001d1f3a8","10/13/2022, 14:11:46",0.131701907485794,"34","Female","right",1,1,2,2,FALSE,"E_M_Peter_Kay.png P_M_Gordon_Brown.png"
2905,"E_M_Peter_Kay.png","P_M_keir_starmer.png","FALSE","pictures/stimuli/E","pictures/stimuli/P","M","M","6","58d3c463bfaa440001d1f3a8","10/13/2022, 14:11:46",0.826795308105262,"34","Female","right",1,1,2,2,FALSE,"E_M_Peter_Kay.png P_M_keir_starmer.png"
2200,"P_F_Theresa_May.png","P_M_Gordon_Brown.png","TRUE","pictures/stimuli/P","pictures/stimuli/P","F","M","6","58d3c463bfaa440001d1f3a8","10/13/2022, 14:11:46",0.826795308105262,"34","Female","right",1,1,2,2,FALSE,"P_F_Theresa_May.png P_M_Gordon_Brown.png"
4050,"E_F_Julie_Walters.png","P_M_Sajid_Javid.png","FALSE","pictures/stimuli/E","pictures/stimuli/P","F","M","4","58d3c463bfaa440001d1f3a8","10/13/2022, 14:11:46",-0.563391493133675,"34","Female","right",1,1,2,2,FALSE,"E_F_Julie_Walters.png P_M_Sajid_Javid.png"
3002,"E_M_Simon_Pegg.png","P_F_Theresa_May.png","FALSE","pictures/stimuli/E","pictures/stimuli/P","M","F","6","58d3c463bfaa440001d1f3a8","10/13/2022, 14:11:46",0.826795308105262,"34","Female","right",1,1,2,2,FALSE,"E_M_Simon_Pegg.png P_F_Theresa_May.png"
4187,"E_F_Dawn_Roma_French.png","E_F_Julie_Walters.png","TRUE","pictures/stimuli/E","pictures/stimuli/E","F","F","4","58d3c463bfaa440001d1f3a8","10/13/2022, 14:11:46",-0.563391493133675,"34","Female","right",1,1,2,2,FALSE,"E_F_Dawn_Roma_French.png E_F_Julie_Walters.png"
2349,"E_M_Michael_McIntyr.png","P_M_Gordon_Brown.png","FALSE","pictures/stimuli/E","pictures/stimuli/P","M","M","6","58d3c463bfaa440001d1f3a8","10/13/2022, 14:11:46",0.826795308105262,"34","Female","right",1,1,2,2,FALSE,"E_M_Michael_McIntyr.png P_M_Gordon_Brown.png"
1706,"P_F_nicola_sturge.png","P_M_jeremy_corbyn.png","TRUE","pictures/stimuli/P","pictures/stimuli/P","F","M","6","58d3c463bfaa440001d1f3a8","10/13/2022, 14:11:46",0.826795308105262,"34","Female","right",1,1,2,2,FALSE,"P_F_nicola_sturge.png P_M_jeremy_corbyn.png"
3421,"E_M_Jimmy_Carr.png","P_M_Michael_Gove.png","FALSE","pictures/stimuli/E","pictures/stimuli/P","M","M","3","58d3c463bfaa440001d1f3a8","10/13/2022, 14:11:46",-1.25848489375314,"34","Female","right",1,1,2,2,FALSE,"E_M_Jimmy_Carr.png P_M_Michael_Gove.png"
1934,"E_F_Sarah_Millican.png","P_M_keir_starmer.png","FALSE","pictures/stimuli/E","pictures/stimuli/P","F","M","6","58d3c463bfaa440001d1f3a8","10/13/2022, 14:11:46",0.826795308105262,"34","Female","right",1,1,2,2,FALSE,"E_F_Sarah_Millican.png P_M_keir_starmer.png"
1666,"P_F_nicola_sturge.png","P_M_Tony_Blair.png","TRUE","pictures/stimuli/P","pictures/stimuli/P","F","M","6","58d3c463bfaa440001d1f3a8","10/13/2022, 14:11:46",0.826795308105262,"34","Female","right",1,1,2,2,FALSE,"P_F_nicola_sturge.png P_M_Tony_Blair.png"
3317,"P_M_Gordon_Brown.png","P_M_keir_starmer.png","TRUE","pictures/stimuli/P","pictures/stimuli/P","M","M","5","58d3c463bfaa440001d1f3a8","10/13/2022, 14:11:46",0.131701907485794,"34","Female","right",1,1,2,2,FALSE,"P_M_Gordon_Brown.png P_M_keir_starmer.png"
2399,"E_F_Julie_Walters.png","E_M_Peter_Kay.png","TRUE","pictures/stimuli/E","pictures/stimuli/E","F","M","6","58d3c463bfaa440001d1f3a8","10/13/2022, 14:11:46",0.826795308105262,"34","Female","right",1,1,2,2,FALSE,"E_F_Julie_Walters.png E_M_Peter_Kay.png"
2184,"E_F_Julie_Walters.png","P_F_Theresa_May.png","FALSE","pictures/stimuli/E","pictures/stimuli/P","F","F","5","58d3c463bfaa440001d1f3a8","10/13/2022, 14:11:46",0.131701907485794,"34","Female","right",1,1,2,2,FALSE,"E_F_Julie_Walters.png P_F_Theresa_May.png"
1881,"E_F_Dawn_Roma_French.png","P_M_nigel_farage.png","FALSE","pictures/stimuli/E","pictures/stimuli/P","F","M","6","58d3c463bfaa440001d1f3a8","10/13/2022, 14:11:46",0.826795308105262,"34","Female","right",1,1,2,2,FALSE,"E_F_Dawn_Roma_French.png P_M_nigel_farage.png"
1637,"E_F_Jennifer_Saunders.png","P_M_Tony_Blair.png","FALSE","pictures/stimuli/E","pictures/stimuli/P","F","M","6","58d3c463bfaa440001d1f3a8","10/13/2022, 14:11:46",0.826795308105262,"34","Female","right",1,1,2,2,FALSE,"E_F_Jennifer_Saunders.png P_M_Tony_Blair.png"
1780,"E_M_Simon_Pegg.png","P_F_nicola_sturge.png","FALSE","pictures/stimuli/E","pictures/stimuli/P","M","F","6","58d3c463bfaa440001d1f3a8","10/13/2022, 14:11:46",0.826795308105262,"34","Female","right",1,1,2,2,FALSE,"E_M_Simon_Pegg.png P_F_nicola_sturge.png"
3165,"E_F_Sarah_Millican.png","P_M_Gordon_Brown.png","FALSE","pictures/stimuli/E","pictures/stimuli/P","F","M","6","58d3c463bfaa440001d1f3a8","10/13/2022, 14:11:46",0.826795308105262,"34","Female","right",1,1,2,2,FALSE,"E_F_Sarah_Millican.png P_M_Gordon_Brown.png"
1821,"P_M_jeremy_corbyn.png","P_M_Sajid_Javid.png","TRUE","pictures/stimuli/P","pictures/stimuli/P","M","M","4","58d3c463bfaa440001d1f3a8","10/13/2022, 14:11:46",-0.563391493133675,"34","Female","right",1,1,2,2,FALSE,"P_M_jeremy_corbyn.png P_M_Sajid_Javid.png"
2725,"E_M_Russell_Howard.png","P_M_keir_starmer.png","FALSE","pictures/stimuli/E","pictures/stimuli/P","M","M","3","58d3c463bfaa440001d1f3a8","10/13/2022, 14:11:46",-1.25848489375314,"34","Female","right",1,1,2,2,FALSE,"E_M_Russell_Howard.png P_M_keir_starmer.png"
1847,"E_M_Jimmy_Carr.png","P_M_Tony_Blair.png","FALSE","pictures/stimuli/E","pictures/stimuli/P","M","M","5","58d3c463bfaa440001d1f3a8","10/13/2022, 14:11:46",0.131701907485794,"34","Female","right",1,1,2,2,FALSE,"E_M_Jimmy_Carr.png P_M_Tony_Blair.png"
2345,"E_F_Dawn_Roma_French.png","E_F_Jennifer_Saunders.png","TRUE","pictures/stimuli/E","pictures/stimuli/E","F","F","3","58d3c463bfaa440001d1f3a8","10/13/2022, 14:11:46",-1.25848489375314,"34","Female","right",1,1,2,2,FALSE,"E_F_Dawn_Roma_French.png E_F_Jennifer_Saunders.png"
3593,"E_M_Russell_Howard.png","P_M_jeremy_corbyn.png","FALSE","pictures/stimuli/E","pictures/stimuli/P","M","M","4","58d3c463bfaa440001d1f3a8","10/13/2022, 14:11:46",-0.563391493133675,"34","Female","right",1,1,2,2,FALSE,"E_M_Russell_Howard.png P_M_jeremy_corbyn.png"
3501,"E_M_Peter_Kay.png","P_M_nigel_farage.png","FALSE","pictures/stimuli/E","pictures/stimuli/P","M","M","3","58d3c463bfaa440001d1f3a8","10/13/2022, 14:11:46",-1.25848489375314,"34","Female","right",1,1,2,2,FALSE,"E_M_Peter_Kay.png P_M_nigel_farage.png"
3207,"E_M_Jimmy_Carr.png","P_M_Sajid_Javid.png","FALSE","pictures/stimuli/E","pictures/stimuli/P","M","M","5","58d3c463bfaa440001d1f3a8","10/13/2022, 14:11:46",0.131701907485794,"34","Female","right",1,1,2,2,FALSE,"E_M_Jimmy_Carr.png P_M_Sajid_Javid.png"
2834,"E_M_Michael_McIntyr.png","P_M_Michael_Gove.png","FALSE","pictures/stimuli/E","pictures/stimuli/P","M","M","5","58d3c463bfaa440001d1f3a8","10/13/2022, 14:11:46",0.131701907485794,"34","Female","right",1,1,2,2,FALSE,"E_M_Michael_McIntyr.png P_M_Michael_Gove.png"
7214,"E_F_Julie_Walters.png","E_M_Jimmy_Carr.png","TRUE","pictures/stimuli/E","pictures/stimuli/E","F","M","6","58d3c463bfaa440001d1f3a8","10/13/2022, 14:11:46",0.826795308105262,"34","Female","right",1,1,2,2,FALSE,"E_F_Julie_Walters.png E_M_Jimmy_Carr.png"
3208,"E_M_Simon_Pegg.png","P_M_jeremy_corbyn.png","FALSE","pictures/stimuli/E","pictures/stimuli/P","M","M","4","58d3c463bfaa440001d1f3a8","10/13/2022, 14:11:46",-0.563391493133675,"34","Female","right",1,1,2,2,FALSE,"E_M_Simon_Pegg.png P_M_jeremy_corbyn.png"
9108,"E_F_Sarah_Millican.png","P_M_nigel_farage.png","FALSE","pictures/stimuli/E","pictures/stimuli/P","F","M","6","58d3c463bfaa440001d1f3a8","10/13/2022, 14:11:46",0.826795308105262,"34","Female","right",1,1,2,2,FALSE,"E_F_Sarah_Millican.png P_M_nigel_farage.png"
6197,"E_M_Simon_Pegg.png","P_M_Michael_Gove.png","FALSE","pictures/stimuli/E","pictures/stimuli/P","M","M","4","58d3c463bfaa440001d1f3a8","10/13/2022, 14:11:46",-0.563391493133675,"34","Female","right",1,1,2,2,FALSE,"E_M_Simon_Pegg.png P_M_Michael_Gove.png"
4062,"E_M_Michael_McIntyr.png","E_M_Simon_Pegg.png","TRUE","pictures/stimuli/E","pictures/stimuli/E","M","M","3","58d3c463bfaa440001d1f3a8","10/13/2022, 14:11:46",-1.25848489375314,"34","Female","right",1,1,2,2,FALSE,"E_M_Michael_McIntyr.png E_M_Simon_Pegg.png"
1634,"E_F_Jennifer_Saunders.png","P_M_david_camer.png","FALSE","pictures/stimuli/E","pictures/stimuli/P","F","M","6","58d3c463bfaa440001d1f3a8","10/13/2022, 14:11:46",0.826795308105262,"34","Female","right",1,1,2,2,FALSE,"E_F_Jennifer_Saunders.png P_M_david_camer.png"
1605,"E_F_Dawn_Roma_French.png","E_M_Russell_Howard.png","TRUE","pictures/stimuli/E","pictures/stimuli/E","F","M","6","58d3c463bfaa440001d1f3a8","10/13/2022, 14:11:46",0.826795308105262,"34","Female","right",1,1,2,2,FALSE,"E_F_Dawn_Roma_French.png E_M_Russell_Howard.png"
1644,"E_F_Julie_Walters.png","P_M_david_camer.png","FALSE","pictures/stimuli/E","pictures/stimuli/P","F","M","6","58d3c463bfaa440001d1f3a8","10/13/2022, 14:11:46",0.826795308105262,"34","Female","right",1,1,2,2,FALSE,"E_F_Julie_Walters.png P_M_david_camer.png"
1689,"E_F_Dawn_Roma_French.png","E_M_Jimmy_Carr.png","TRUE","pictures/stimuli/E","pictures/stimuli/E","F","M","6","58d3c463bfaa440001d1f3a8","10/13/2022, 14:11:46",0.826795308105262,"34","Female","right",1,1,2,2,FALSE,"E_F_Dawn_Roma_French.png E_M_Jimmy_Carr.png"
1769,"P_F_nicola_sturge.png","P_M_nigel_farage.png","TRUE","pictures/stimuli/P","pictures/stimuli/P","F","M","6","58d3c463bfaa440001d1f3a8","10/13/2022, 14:11:46",0.826795308105262,"34","Female","right",1,1,2,2,FALSE,"P_F_nicola_sturge.png P_M_nigel_farage.png"
2191,"P_M_nigel_farage.png","P_M_Tony_Blair.png","TRUE","pictures/stimuli/P","pictures/stimuli/P","M","M","2","58d3c463bfaa440001d1f3a8","10/13/2022, 14:11:46",-1.95357829437261,"34","Female","right",1,1,2,2,FALSE,"P_M_nigel_farage.png P_M_Tony_Blair.png"
2058,"E_M_Jimmy_Carr.png","E_M_Simon_Pegg.png","TRUE","pictures/stimuli/E","pictures/stimuli/E","M","M","3","58d3c463bfaa440001d1f3a8","10/13/2022, 14:11:46",-1.25848489375314,"34","Female","right",1,1,2,2,FALSE,"E_M_Jimmy_Carr.png E_M_Simon_Pegg.png"
1541,"E_F_Sarah_Millican.png","E_M_Simon_Pegg.png","TRUE","pictures/stimuli/E","pictures/stimuli/E","F","M","6","58d3c463bfaa440001d1f3a8","10/13/2022, 14:11:46",0.826795308105262,"34","Female","right",1,1,2,2,FALSE,"E_F_Sarah_Millican.png E_M_Simon_Pegg.png"
4614,"E_F_Sarah_Millican.png","P_M_Sajid_Javid.png","FALSE","pictures/stimuli/E","pictures/stimuli/P","F","M","6","58d3c463bfaa440001d1f3a8","10/13/2022, 14:11:46",0.826795308105262,"34","Female","right",1,1,2,2,FALSE,"E_F_Sarah_Millican.png P_M_Sajid_Javid.png"
7069,"E_F_Julie_Walters.png","P_M_keir_starmer.png","FALSE","pictures/stimuli/E","pictures/stimuli/P","F","M","6","58d3c463bfaa440001d1f3a8","10/13/2022, 14:11:46",0.826795308105262,"34","Female","right",1,1,2,2,FALSE,"E_F_Julie_Walters.png P_M_keir_starmer.png"
52527,"E_F_Dawn_Roma_French.png","E_F_Sarah_Millican.png","TRUE","pictures/stimuli/E","pictures/stimuli/E","F","F","5","58d3c463bfaa440001d1f3a8","10/13/2022, 14:11:46",0.131701907485794,"34","Female","right",1,1,2,2,TRUE,"E_F_Dawn_Roma_French.png E_F_Sarah_Millican.png"
3519,"E_M_Ewan_McGregor.png","P_M_Sajid_Javid.png","FALSE","pictures/stimuli/E","pictures/stimuli/P","M","M","6","58d3c463bfaa440001d1f3a8","10/13/2022, 14:11:46",0.826795308105262,"34","Female","right",1,1,2,2,FALSE,"E_M_Ewan_McGregor.png P_M_Sajid_Javid.png"
3307,"E_M_Michael_McIntyr.png","E_M_Russell_Howard.png","TRUE","pictures/stimuli/E","pictures/stimuli/E","M","M","3","58d3c463bfaa440001d1f3a8","10/13/2022, 14:11:46",-1.25848489375314,"34","Female","right",1,1,2,2,FALSE,"E_M_Michael_McIntyr.png E_M_Russell_Howard.png"
2542,"E_M_Simon_Pegg.png","P_M_Tony_Blair.png","FALSE","pictures/stimuli/E","pictures/stimuli/P","M","M","5","58d3c463bfaa440001d1f3a8","10/13/2022, 14:11:46",0.131701907485794,"34","Female","right",1,1,2,2,FALSE,"E_M_Simon_Pegg.png P_M_Tony_Blair.png"
3714,"P_M_jeremy_corbyn.png","P_M_Tony_Blair.png","TRUE","pictures/stimuli/P","pictures/stimuli/P","M","M","3","58d3c463bfaa440001d1f3a8","10/13/2022, 14:11:46",-1.25848489375314,"34","Female","right",1,1,2,2,FALSE,"P_M_jeremy_corbyn.png P_M_Tony_Blair.png"
2331,"E_M_Ewan_McGregor.png","E_M_Peter_Kay.png","TRUE","pictures/stimuli/E","pictures/stimuli/E","M","M","6","58d3c463bfaa440001d1f3a8","10/13/2022, 14:11:46",0.826795308105262,"34","Female","right",1,1,2,2,FALSE,"E_M_Ewan_McGregor.png E_M_Peter_Kay.png"
5081,"E_F_Jennifer_Saunders.png","P_M_Michael_Gove.png","FALSE","pictures/stimuli/E","pictures/stimuli/P","F","M","6","58d3c463bfaa440001d1f3a8","10/13/2022, 14:11:46",0.826795308105262,"34","Female","right",1,1,2,2,FALSE,"E_F_Jennifer_Saunders.png P_M_Michael_Gove.png"
1451,"E_M_Peter_Kay.png","P_F_Theresa_May.png","FALSE","pictures/stimuli/E","pictures/stimuli/P","M","F","6","58d3c463bfaa440001d1f3a8","10/13/2022, 14:11:46",0.826795308105262,"34","Female","right",1,1,2,2,FALSE,"E_M_Peter_Kay.png P_F_Theresa_May.png"
1274,"E_F_Jennifer_Saunders.png","P_M_nigel_farage.png","FALSE","pictures/stimuli/E","pictures/stimuli/P","F","M","6","58d3c463bfaa440001d1f3a8","10/13/2022, 14:11:46",0.826795308105262,"34","Female","right",1,1,2,2,FALSE,"E_F_Jennifer_Saunders.png P_M_nigel_farage.png"
1215,"E_F_Dawn_Roma_French.png","P_M_david_camer.png","FALSE","pictures/stimuli/E","pictures/stimuli/P","F","M","6","58d3c463bfaa440001d1f3a8","10/13/2022, 14:11:46",0.826795308105262,"34","Female","right",1,1,2,2,FALSE,"E_F_Dawn_Roma_French.png P_M_david_camer.png"
1193,"E_F_Jennifer_Saunders.png","P_M_Sajid_Javid.png","FALSE","pictures/stimuli/E","pictures/stimuli/P","F","M","6","58d3c463bfaa440001d1f3a8","10/13/2022, 14:11:46",0.826795308105262,"34","Female","right",1,1,2,2,FALSE,"E_F_Jennifer_Saunders.png P_M_Sajid_Javid.png"
5831,"E_M_Peter_Kay.png","P_M_david_camer.png","FALSE","pictures/stimuli/E","pictures/stimuli/P","M","M","3","58d3c463bfaa440001d1f3a8","10/13/2022, 14:11:46",-1.25848489375314,"34","Female","right",1,1,2,2,FALSE,"E_M_Peter_Kay.png P_M_david_camer.png"
3914,"P_M_david_camer.png","P_M_Sajid_Javid.png","TRUE","pictures/stimuli/P","pictures/stimuli/P","M","M","5","58d3c463bfaa440001d1f3a8","10/13/2022, 14:11:46",0.131701907485794,"34","Female","right",1,1,2,2,FALSE,"P_M_david_camer.png P_M_Sajid_Javid.png"
5200,"E_M_Russell_Howard.png","P_F_Theresa_May.png","FALSE","pictures/stimuli/E","pictures/stimuli/P","M","F","6","58d3c463bfaa440001d1f3a8","10/13/2022, 14:11:46",0.826795308105262,"34","Female","right",1,1,2,2,FALSE,"E_M_Russell_Howard.png P_F_Theresa_May.png"
3541,"E_F_Julie_Walters.png","E_M_Russell_Howard.png","TRUE","pictures/stimuli/E","pictures/stimuli/E","F","M","6","58d3c463bfaa440001d1f3a8","10/13/2022, 14:11:46",0.826795308105262,"34","Female","right",1,1,2,2,FALSE,"E_F_Julie_Walters.png E_M_Russell_Howard.png"
14529,"E_F_Dawn_Roma_French.png","E_M_Peter_Kay.png","TRUE","pictures/stimuli/E","pictures/stimuli/E","F","M","6","58d3c463bfaa440001d1f3a8","10/13/2022, 14:11:46",0.826795308105262,"34","Female","right",1,1,2,2,FALSE,"E_F_Dawn_Roma_French.png E_M_Peter_Kay.png"
4526,"E_F_Dawn_Roma_French.png","E_M_Michael_McIntyr.png","TRUE","pictures/stimuli/E","pictures/stimuli/E","F","M","6","58d3c463bfaa440001d1f3a8","10/13/2022, 14:11:46",0.826795308105262,"34","Female","right",1,1,2,2,FALSE,"E_F_Dawn_Roma_French.png E_M_Michael_McIntyr.png"
8345,"E_M_Peter_Kay.png","E_M_Russell_Howard.png","TRUE","pictures/stimuli/E","pictures/stimuli/E","M","M","4","58d3c463bfaa440001d1f3a8","10/13/2022, 14:11:46",-0.563391493133675,"34","Female","right",1,1,2,2,FALSE,"E_M_Peter_Kay.png E_M_Russell_Howard.png"
2245,"E_M_Michael_McIntyr.png","P_F_nicola_sturge.png","FALSE","pictures/stimuli/E","pictures/stimuli/P","M","F","6","58d3c463bfaa440001d1f3a8","10/13/2022, 14:11:46",0.826795308105262,"34","Female","right",1,1,2,2,FALSE,"E_M_Michael_McIntyr.png P_F_nicola_sturge.png"
3305,"E_M_Peter_Kay.png","E_M_Simon_Pegg.png","TRUE","pictures/stimuli/E","pictures/stimuli/E","M","M","4","58d3c463bfaa440001d1f3a8","10/13/2022, 14:11:46",-0.563391493133675,"34","Female","right",1,1,2,2,FALSE,"E_M_Peter_Kay.png E_M_Simon_Pegg.png"
3841,"P_F_nicola_sturge.png","P_F_Theresa_May.png","TRUE","pictures/stimuli/P","pictures/stimuli/P","F","F","2","58d3c463bfaa440001d1f3a8","10/13/2022, 14:11:46",-1.95357829437261,"34","Female","right",1,1,2,2,FALSE,"P_F_nicola_sturge.png P_F_Theresa_May.png"
2205,"E_F_Sarah_Millican.png","E_M_Michael_McIntyr.png","TRUE","pictures/stimuli/E","pictures/stimuli/E","F","M","4","58d3c463bfaa440001d1f3a8","10/13/2022, 14:11:46",-0.563391493133675,"34","Female","right",1,1,2,2,FALSE,"E_F_Sarah_Millican.png E_M_Michael_McIntyr.png"
2303,"E_M_Michael_McIntyr.png","P_M_nigel_farage.png","FALSE","pictures/stimuli/E","pictures/stimuli/P","M","M","3","58d3c463bfaa440001d1f3a8","10/13/2022, 14:11:46",-1.25848489375314,"34","Female","right",1,1,2,2,FALSE,"E_M_Michael_McIntyr.png P_M_nigel_farage.png"
1845,"E_F_Jennifer_Saunders.png","P_M_keir_starmer.png","FALSE","pictures/stimuli/E","pictures/stimuli/P","F","M","6","58d3c463bfaa440001d1f3a8","10/13/2022, 14:11:46",0.826795308105262,"34","Female","right",1,1,2,2,FALSE,"E_F_Jennifer_Saunders.png P_M_keir_starmer.png"
1584,"E_M_Russell_Howard.png","E_M_Simon_Pegg.png","TRUE","pictures/stimuli/E","pictures/stimuli/E","M","M","4","58d3c463bfaa440001d1f3a8","10/13/2022, 14:11:46",-0.563391493133675,"34","Female","right",1,1,2,2,FALSE,"E_M_Russell_Howard.png E_M_Simon_Pegg.png"
2504,"E_M_Russell_Howard.png","P_M_david_camer.png","FALSE","pictures/stimuli/E","pictures/stimuli/P","M","M","3","58d3c463bfaa440001d1f3a8","10/13/2022, 14:11:46",-1.25848489375314,"34","Female","right",1,1,2,2,FALSE,"E_M_Russell_Howard.png P_M_david_camer.png"
1656,"E_M_Ewan_McGregor.png","E_M_Michael_McIntyr.png","TRUE","pictures/stimuli/E","pictures/stimuli/E","M","M","3","58d3c463bfaa440001d1f3a8","10/13/2022, 14:11:46",-1.25848489375314,"34","Female","right",1,1,2,2,FALSE,"E_M_Ewan_McGregor.png E_M_Michael_McIntyr.png"
3367,"E_M_Simon_Pegg.png","P_M_Gordon_Brown.png","FALSE","pictures/stimuli/E","pictures/stimuli/P","M","M","6","58d3c463bfaa440001d1f3a8","10/13/2022, 14:11:46",0.826795308105262,"34","Female","right",1,1,2,2,FALSE,"E_M_Simon_Pegg.png P_M_Gordon_Brown.png"
3444,"E_M_Jimmy_Carr.png","P_M_jeremy_corbyn.png","FALSE","pictures/stimuli/E","pictures/stimuli/P","M","M","2","58d3c463bfaa440001d1f3a8","10/13/2022, 14:11:46",-1.95357829437261,"34","Female","right",1,1,2,2,FALSE,"E_M_Jimmy_Carr.png P_M_jeremy_corbyn.png"
1733,"P_M_david_camer.png","P_M_nigel_farage.png","TRUE","pictures/stimuli/P","pictures/stimuli/P","M","M","2","58d3c463bfaa440001d1f3a8","10/13/2022, 14:11:46",-1.95357829437261,"34","Female","right",1,1,2,2,FALSE,"P_M_david_camer.png P_M_nigel_farage.png"
1626,"E_F_Jennifer_Saunders.png","E_M_Peter_Kay.png","TRUE","pictures/stimuli/E","pictures/stimuli/E","F","M","6","58d3c463bfaa440001d1f3a8","10/13/2022, 14:11:46",0.826795308105262,"34","Female","right",1,1,2,2,FALSE,"E_F_Jennifer_Saunders.png E_M_Peter_Kay.png"
2497,"P_F_nicola_sturge.png","P_M_david_camer.png","TRUE","pictures/stimuli/P","pictures/stimuli/P","F","M","5","58d3c463bfaa440001d1f3a8","10/13/2022, 14:11:46",0.131701907485794,"34","Female","right",1,1,2,2,FALSE,"P_F_nicola_sturge.png P_M_david_camer.png"
1571,"E_M_Ewan_McGregor.png","E_M_Simon_Pegg.png","TRUE","pictures/stimuli/E","pictures/stimuli/E","M","M","4","58d3c463bfaa440001d1f3a8","10/13/2022, 14:11:46",-0.563391493133675,"34","Female","right",1,1,2,2,FALSE,"E_M_Ewan_McGregor.png E_M_Simon_Pegg.png"
1744,"E_M_Jimmy_Carr.png","P_F_nicola_sturge.png","FALSE","pictures/stimuli/E","pictures/stimuli/P","M","F","6","58d3c463bfaa440001d1f3a8","10/13/2022, 14:11:46",0.826795308105262,"34","Female","right",1,1,2,2,FALSE,"E_M_Jimmy_Carr.png P_F_nicola_sturge.png"
2810,"E_F_Dawn_Roma_French.png","P_F_nicola_sturge.png","FALSE","pictures/stimuli/E","pictures/stimuli/P","F","F","5","58d3c463bfaa440001d1f3a8","10/13/2022, 14:11:46",0.131701907485794,"34","Female","right",1,1,2,2,FALSE,"E_F_Dawn_Roma_French.png P_F_nicola_sturge.png"
5046,"E_M_Ewan_McGregor.png","E_M_Russell_Howard.png","TRUE","pictures/stimuli/E","pictures/stimuli/E","M","M","3","58d3c463bfaa440001d1f3a8","10/13/2022, 14:11:46",-1.25848489375314,"34","Female","right",1,1,2,2,FALSE,"E_M_Ewan_McGregor.png E_M_Russell_Howard.png"
6525,"E_F_Sarah_Millican.png","P_M_Michael_Gove.png","FALSE","pictures/stimuli/E","pictures/stimuli/P","F","M","6","58d3c463bfaa440001d1f3a8","10/13/2022, 14:11:46",0.826795308105262,"34","Female","right",1,1,2,2,FALSE,"E_F_Sarah_Millican.png P_M_Michael_Gove.png"
2448,"P_F_nicola_sturge.png","P_M_Michael_Gove.png","TRUE","pictures/stimuli/P","pictures/stimuli/P","F","M","6","58d3c463bfaa440001d1f3a8","10/13/2022, 14:11:46",0.826795308105262,"34","Female","right",1,1,2,2,FALSE,"P_F_nicola_sturge.png P_M_Michael_Gove.png"
3878,"E_F_Dawn_Roma_French.png","P_M_jeremy_corbyn.png","FALSE","pictures/stimuli/E","pictures/stimuli/P","F","M","6","58d3c463bfaa440001d1f3a8","10/13/2022, 14:11:46",0.826795308105262,"34","Female","right",1,1,2,2,FALSE,"E_F_Dawn_Roma_French.png P_M_jeremy_corbyn.png"
3971,"E_M_Russell_Howard.png","P_M_Tony_Blair.png","FALSE","pictures/stimuli/E","pictures/stimuli/P","M","M","3","58d3c463bfaa440001d1f3a8","10/13/2022, 14:11:46",-1.25848489375314,"34","Female","right",1,1,2,2,FALSE,"E_M_Russell_Howard.png P_M_Tony_Blair.png"
2386,"E_M_Ewan_McGregor.png","P_M_keir_starmer.png","FALSE","pictures/stimuli/E","pictures/stimuli/P","M","M","4","58d3c463bfaa440001d1f3a8","10/13/2022, 14:11:46",-0.563391493133675,"34","Female","right",1,1,2,2,FALSE,"E_M_Ewan_McGregor.png P_M_keir_starmer.png"
4447,"E_M_Peter_Kay.png","P_M_Tony_Blair.png","FALSE","pictures/stimuli/E","pictures/stimuli/P","M","M","5","58d3c463bfaa440001d1f3a8","10/13/2022, 14:11:46",0.131701907485794,"34","Female","right",1,1,2,2,FALSE,"E_M_Peter_Kay.png P_M_Tony_Blair.png"
2369,"E_F_Sarah_Millican.png","E_M_Peter_Kay.png","TRUE","pictures/stimuli/E","pictures/stimuli/E","F","M","3","58d3c463bfaa440001d1f3a8","10/13/2022, 14:11:46",-1.25848489375314,"34","Female","right",1,1,2,2,FALSE,"E_F_Sarah_Millican.png E_M_Peter_Kay.png"
1654,"P_M_Gordon_Brown.png","P_M_Sajid_Javid.png","TRUE","pictures/stimuli/P","pictures/stimuli/P","M","M","6","58d3c463bfaa440001d1f3a8","10/13/2022, 14:11:46",0.826795308105262,"34","Female","right",1,1,2,2,FALSE,"P_M_Gordon_Brown.png P_M_Sajid_Javid.png"
2418,"P_M_Gordon_Brown.png","P_M_jeremy_corbyn.png","TRUE","pictures/stimuli/P","pictures/stimuli/P","M","M","4","58d3c463bfaa440001d1f3a8","10/13/2022, 14:11:46",-0.563391493133675,"34","Female","right",1,1,2,2,FALSE,"P_M_Gordon_Brown.png P_M_jeremy_corbyn.png"
2928,"P_M_Michael_Gove.png","P_M_Tony_Blair.png","TRUE","pictures/stimuli/P","pictures/stimuli/P","M","M","1","58d3c463bfaa440001d1f3a8","10/13/2022, 14:11:46",-2.64867169499208,"34","Female","right",1,1,2,2,FALSE,"P_M_Michael_Gove.png P_M_Tony_Blair.png"
1733,"E_F_Jennifer_Saunders.png","E_M_Jimmy_Carr.png","TRUE","pictures/stimuli/E","pictures/stimuli/E","F","M","6","58d3c463bfaa440001d1f3a8","10/13/2022, 14:11:46",0.826795308105262,"34","Female","right",1,1,2,2,FALSE,"E_F_Jennifer_Saunders.png E_M_Jimmy_Carr.png"
2546,"E_M_Jimmy_Carr.png","P_M_nigel_farage.png","FALSE","pictures/stimuli/E","pictures/stimuli/P","M","M","4","58d3c463bfaa440001d1f3a8","10/13/2022, 14:11:46",-0.563391493133675,"34","Female","right",1,1,2,2,FALSE,"E_M_Jimmy_Carr.png P_M_nigel_farage.png"
1841,"E_F_Jennifer_Saunders.png","E_M_Simon_Pegg.png","TRUE","pictures/stimuli/E","pictures/stimuli/E","F","M","6","58d3c463bfaa440001d1f3a8","10/13/2022, 14:11:46",0.826795308105262,"34","Female","right",1,1,2,2,FALSE,"E_F_Jennifer_Saunders.png E_M_Simon_Pegg.png"
1684,"E_M_Ewan_McGregor.png","P_M_Tony_Blair.png","FALSE","pictures/stimuli/E","pictures/stimuli/P","M","M","5","58d3c463bfaa440001d1f3a8","10/13/2022, 14:11:46",0.131701907485794,"34","Female","right",1,1,2,2,FALSE,"E_M_Ewan_McGregor.png P_M_Tony_Blair.png"
1538,"P_F_nicola_sturge.png","P_M_Gordon_Brown.png","TRUE","pictures/stimuli/P","pictures/stimuli/P","F","M","4","58d3c463bfaa440001d1f3a8","10/13/2022, 14:11:46",-0.563391493133675,"34","Female","right",1,1,2,2,FALSE,"P_F_nicola_sturge.png P_M_Gordon_Brown.png"
2113,"E_F_Jennifer_Saunders.png","E_F_Julie_Walters.png","TRUE","pictures/stimuli/E","pictures/stimuli/E","F","F","2","58d3c463bfaa440001d1f3a8","10/13/2022, 14:11:46",-1.95357829437261,"34","Female","right",1,1,2,2,FALSE,"E_F_Jennifer_Saunders.png E_F_Julie_Walters.png"
1479,"E_F_Jennifer_Saunders.png","E_M_Russell_Howard.png","TRUE","pictures/stimuli/E","pictures/stimuli/E","F","M","6","58d3c463bfaa440001d1f3a8","10/13/2022, 14:11:46",0.826795308105262,"34","Female","right",1,1,2,2,FALSE,"E_F_Jennifer_Saunders.png E_M_Russell_Howard.png"
3770,"E_F_Dawn_Roma_French.png","P_M_Sajid_Javid.png","FALSE","pictures/stimuli/E","pictures/stimuli/P","F","M","6","58d3c463bfaa440001d1f3a8","10/13/2022, 14:11:46",0.826795308105262,"34","Female","right",1,1,2,2,FALSE,"E_F_Dawn_Roma_French.png P_M_Sajid_Javid.png"
1864,"P_F_Theresa_May.png","P_M_nigel_farage.png","TRUE","pictures/stimuli/P","pictures/stimuli/P","F","M","5","58d3c463bfaa440001d1f3a8","10/13/2022, 14:11:46",0.131701907485794,"34","Female","right",1,1,2,2,FALSE,"P_F_Theresa_May.png P_M_nigel_farage.png"
2155,"E_M_Michael_McIntyr.png","P_M_david_camer.png","FALSE","pictures/stimuli/E","pictures/stimuli/P","M","M","2","58d3c463bfaa440001d1f3a8","10/13/2022, 14:11:46",-1.95357829437261,"34","Female","right",1,1,2,2,FALSE,"E_M_Michael_McIntyr.png P_M_david_camer.png"
1501,"E_M_Simon_Pegg.png","P_M_Sajid_Javid.png","FALSE","pictures/stimuli/E","pictures/stimuli/P","M","M","6","58d3c463bfaa440001d1f3a8","10/13/2022, 14:11:46",0.826795308105262,"34","Female","right",1,1,2,2,FALSE,"E_M_Simon_Pegg.png P_M_Sajid_Javid.png"
2639,"P_M_jeremy_corbyn.png","P_M_nigel_farage.png","TRUE","pictures/stimuli/P","pictures/stimuli/P","M","M","2","58d3c463bfaa440001d1f3a8","10/13/2022, 14:11:46",-1.95357829437261,"34","Female","right",1,1,2,2,FALSE,"P_M_jeremy_corbyn.png P_M_nigel_farage.png"
2648,"P_M_keir_starmer.png","P_M_Tony_Blair.png","TRUE","pictures/stimuli/P","pictures/stimuli/P","M","M","1","58d3c463bfaa440001d1f3a8","10/13/2022, 14:11:46",-2.64867169499208,"34","Female","right",1,1,2,2,FALSE,"P_M_keir_starmer.png P_M_Tony_Blair.png"
2450,"P_M_Gordon_Brown.png","P_M_Michael_Gove.png","TRUE","pictures/stimuli/P","pictures/stimuli/P","M","M","3","58d3c463bfaa440001d1f3a8","10/13/2022, 14:11:46",-1.25848489375314,"34","Female","right",1,1,2,2,FALSE,"P_M_Gordon_Brown.png P_M_Michael_Gove.png"
2247,"E_F_Julie_Walters.png","P_M_Tony_Blair.png","FALSE","pictures/stimuli/E","pictures/stimuli/P","F","M","6","58d3c463bfaa440001d1f3a8","10/13/2022, 14:11:46",0.826795308105262,"34","Female","right",1,1,2,2,FALSE,"E_F_Julie_Walters.png P_M_Tony_Blair.png"
1381,"E_F_Julie_Walters.png","E_M_Simon_Pegg.png","TRUE","pictures/stimuli/E","pictures/stimuli/E","F","M","6","58d3c463bfaa440001d1f3a8","10/13/2022, 14:11:46",0.826795308105262,"34","Female","right",1,1,2,2,FALSE,"E_F_Julie_Walters.png E_M_Simon_Pegg.png"
1350,"E_F_Julie_Walters.png","P_M_nigel_farage.png","FALSE","pictures/stimuli/E","pictures/stimuli/P","F","M","6","58d3c463bfaa440001d1f3a8","10/13/2022, 14:11:46",0.826795308105262,"34","Female","right",1,1,2,2,FALSE,"E_F_Julie_Walters.png P_M_nigel_farage.png"
1610,"P_M_Gordon_Brown.png","P_M_Tony_Blair.png","TRUE","pictures/stimuli/P","pictures/stimuli/P","M","M","4","58d3c463bfaa440001d1f3a8","10/13/2022, 14:11:46",-0.563391493133675,"34","Female","right",1,1,2,2,FALSE,"P_M_Gordon_Brown.png P_M_Tony_Blair.png"
1784,"E_M_Ewan_McGregor.png","P_M_Gordon_Brown.png","FALSE","pictures/stimuli/E","pictures/stimuli/P","M","M","5","58d3c463bfaa440001d1f3a8","10/13/2022, 14:11:46",0.131701907485794,"34","Female","right",1,1,2,2,FALSE,"E_M_Ewan_McGregor.png P_M_Gordon_Brown.png"
1539,"E_M_Peter_Kay.png","P_M_Sajid_Javid.png","FALSE","pictures/stimuli/E","pictures/stimuli/P","M","M","6","58d3c463bfaa440001d1f3a8","10/13/2022, 14:11:46",0.826795308105262,"34","Female","right",1,1,2,2,FALSE,"E_M_Peter_Kay.png P_M_Sajid_Javid.png"
1792,"E_F_Jennifer_Saunders.png","P_F_nicola_sturge.png","FALSE","pictures/stimuli/E","pictures/stimuli/P","F","F","4","58d3c463bfaa440001d1f3a8","10/13/2022, 14:11:46",-0.563391493133675,"34","Female","right",1,1,2,2,FALSE,"E_F_Jennifer_Saunders.png P_F_nicola_sturge.png"
1506,"E_M_Michael_McIntyr.png","P_M_Sajid_Javid.png","FALSE","pictures/stimuli/E","pictures/stimuli/P","M","M","6","58d3c463bfaa440001d1f3a8","10/13/2022, 14:11:46",0.826795308105262,"34","Female","right",1,1,2,2,FALSE,"E_M_Michael_McIntyr.png P_M_Sajid_Javid.png"
2187,"E_F_Julie_Walters.png","P_F_nicola_sturge.png","FALSE","pictures/stimuli/E","pictures/stimuli/P","F","F","3","58d3c463bfaa440001d1f3a8","10/13/2022, 14:11:46",-1.25848489375314,"34","Female","right",1,1,2,2,FALSE,"E_F_Julie_Walters.png P_F_nicola_sturge.png"
1536,"E_M_Russell_Howard.png","P_M_nigel_farage.png","FALSE","pictures/stimuli/E","pictures/stimuli/P","M","M","4","58d3c463bfaa440001d1f3a8","10/13/2022, 14:11:46",-0.563391493133675,"34","Female","right",1,1,2,2,FALSE,"E_M_Russell_Howard.png P_M_nigel_farage.png"
2912,"E_M_Jimmy_Carr.png","E_M_Peter_Kay.png","TRUE","pictures/stimuli/E","pictures/stimuli/E","M","M","5","58d3c463bfaa440001d1f3a8","10/13/2022, 14:11:46",0.131701907485794,"34","Female","right",1,1,2,2,FALSE,"E_M_Jimmy_Carr.png E_M_Peter_Kay.png"
3438,"E_F_Sarah_Millican.png","E_M_Ewan_McGregor.png","TRUE","pictures/stimuli/E","pictures/stimuli/E","F","M","6","58d3c463bfaa440001d1f3a8","10/13/2022, 14:11:46",0.826795308105262,"34","Female","right",1,1,2,2,FALSE,"E_F_Sarah_Millican.png E_M_Ewan_McGregor.png"
2825,"P_M_Gordon_Brown.png","P_M_nigel_farage.png","TRUE","pictures/stimuli/P","pictures/stimuli/P","M","M","4","58d3c463bfaa440001d1f3a8","10/13/2022, 14:11:46",-0.563391493133675,"34","Female","right",1,1,2,2,FALSE,"P_M_Gordon_Brown.png P_M_nigel_farage.png"
1521,"P_F_Theresa_May.png","P_M_david_camer.png","TRUE","pictures/stimuli/P","pictures/stimuli/P","F","M","6","58d3c463bfaa440001d1f3a8","10/13/2022, 14:11:46",0.826795308105262,"34","Female","right",1,1,2,2,FALSE,"P_F_Theresa_May.png P_M_david_camer.png"
1891,"P_M_david_camer.png","P_M_jeremy_corbyn.png","TRUE","pictures/stimuli/P","pictures/stimuli/P","M","M","5","58d3c463bfaa440001d1f3a8","10/13/2022, 14:11:46",0.131701907485794,"34","Female","right",1,1,2,2,FALSE,"P_M_david_camer.png P_M_jeremy_corbyn.png"
1848,"E_F_Dawn_Roma_French.png","P_F_Theresa_May.png","FALSE","pictures/stimuli/E","pictures/stimuli/P","F","F","6","58d3c463bfaa440001d1f3a8","10/13/2022, 14:11:46",0.826795308105262,"34","Female","right",1,1,2,2,FALSE,"E_F_Dawn_Roma_French.png P_F_Theresa_May.png"
1548,"P_F_Theresa_May.png","P_M_Michael_Gove.png","TRUE","pictures/stimuli/P","pictures/stimuli/P","F","M","6","58d3c463bfaa440001d1f3a8","10/13/2022, 14:11:46",0.826795308105262,"34","Female","right",1,1,2,2,FALSE,"P_F_Theresa_May.png P_M_Michael_Gove.png"
1217,"E_F_Sarah_Millican.png","P_M_david_camer.png","FALSE","pictures/stimuli/E","pictures/stimuli/P","F","M","6","58d3c463bfaa440001d1f3a8","10/13/2022, 14:11:46",0.826795308105262,"34","Female","right",1,1,2,2,FALSE,"E_F_Sarah_Millican.png P_M_david_camer.png"
1571,"E_F_Jennifer_Saunders.png","P_M_Gordon_Brown.png","FALSE","pictures/stimuli/E","pictures/stimuli/P","F","M","6","58d3c463bfaa440001d1f3a8","10/13/2022, 14:11:46",0.826795308105262,"34","Female","right",1,1,2,2,FALSE,"E_F_Jennifer_Saunders.png P_M_Gordon_Brown.png"
1368,"E_M_Michael_McIntyr.png","P_M_keir_starmer.png","FALSE","pictures/stimuli/E","pictures/stimuli/P","M","M","4","58d3c463bfaa440001d1f3a8","10/13/2022, 14:11:46",-0.563391493133675,"34","Female","right",1,1,2,2,FALSE,"E_M_Michael_McIntyr.png P_M_keir_starmer.png"
1488,"E_M_Ewan_McGregor.png","P_M_nigel_farage.png","FALSE","pictures/stimuli/E","pictures/stimuli/P","M","M","5","58d3c463bfaa440001d1f3a8","10/13/2022, 14:11:46",0.131701907485794,"34","Female","right",1,1,2,2,FALSE,"E_M_Ewan_McGregor.png P_M_nigel_farage.png"
1521,"E_M_Ewan_McGregor.png","P_F_nicola_sturge.png","FALSE","pictures/stimuli/E","pictures/stimuli/P","M","F","6","58d3c463bfaa440001d1f3a8","10/13/2022, 14:11:46",0.826795308105262,"34","Female","right",1,1,2,2,FALSE,"E_M_Ewan_McGregor.png P_F_nicola_sturge.png"
1191,"E_F_Sarah_Millican.png","P_M_Tony_Blair.png","FALSE","pictures/stimuli/E","pictures/stimuli/P","F","M","6","58d3c463bfaa440001d1f3a8","10/13/2022, 14:11:46",0.826795308105262,"34","Female","right",1,1,2,2,FALSE,"E_F_Sarah_Millican.png P_M_Tony_Blair.png"
1512,"E_M_Jimmy_Carr.png","P_F_Theresa_May.png","FALSE","pictures/stimuli/E","pictures/stimuli/P","M","F","6","58d3c463bfaa440001d1f3a8","10/13/2022, 14:11:46",0.826795308105262,"34","Female","right",1,1,2,2,FALSE,"E_M_Jimmy_Carr.png P_F_Theresa_May.png"
1085,"E_F_Jennifer_Saunders.png","E_M_Michael_McIntyr.png","TRUE","pictures/stimuli/E","pictures/stimuli/E","F","M","6","58d3c463bfaa440001d1f3a8","10/13/2022, 14:11:46",0.826795308105262,"34","Female","right",1,1,2,2,FALSE,"E_F_Jennifer_Saunders.png E_M_Michael_McIntyr.png"
2407,"E_F_Sarah_Millican.png","E_M_Russell_Howard.png","TRUE","pictures/stimuli/E","pictures/stimuli/E","F","M","6","58d3c463bfaa440001d1f3a8","10/13/2022, 14:11:46",0.826795308105262,"34","Female","right",1,1,2,2,FALSE,"E_F_Sarah_Millican.png E_M_Russell_Howard.png"
2819,"E_M_Michael_McIntyr.png","E_M_Peter_Kay.png","TRUE","pictures/stimuli/E","pictures/stimuli/E","M","M","4","58d3c463bfaa440001d1f3a8","10/13/2022, 14:11:46",-0.563391493133675,"34","Female","right",1,1,2,2,FALSE,"E_M_Michael_McIntyr.png E_M_Peter_Kay.png"
2561,"P_M_Sajid_Javid.png","P_M_Tony_Blair.png","TRUE","pictures/stimuli/P","pictures/stimuli/P","M","M","6","58d3c463bfaa440001d1f3a8","10/13/2022, 14:11:46",0.826795308105262,"34","Female","right",1,1,2,2,FALSE,"P_M_Sajid_Javid.png P_M_Tony_Blair.png"
1781,"E_M_Jimmy_Carr.png","P_M_Gordon_Brown.png","FALSE","pictures/stimuli/E","pictures/stimuli/P","M","M","5","58d3c463bfaa440001d1f3a8","10/13/2022, 14:11:46",0.131701907485794,"34","Female","right",1,1,2,2,FALSE,"E_M_Jimmy_Carr.png P_M_Gordon_Brown.png"
2253,"E_F_Sarah_Millican.png","P_F_Theresa_May.png","FALSE","pictures/stimuli/E","pictures/stimuli/P","F","F","6","58d3c463bfaa440001d1f3a8","10/13/2022, 14:11:46",0.826795308105262,"34","Female","right",1,1,2,2,FALSE,"E_F_Sarah_Millican.png P_F_Theresa_May.png"
1457,"E_F_Dawn_Roma_French.png","E_M_Ewan_McGregor.png","TRUE","pictures/stimuli/E","pictures/stimuli/E","F","M","6","58d3c463bfaa440001d1f3a8","10/13/2022, 14:11:46",0.826795308105262,"34","Female","right",1,1,2,2,FALSE,"E_F_Dawn_Roma_French.png E_M_Ewan_McGregor.png"
1848,"E_F_Julie_Walters.png","P_M_Gordon_Brown.png","FALSE","pictures/stimuli/E","pictures/stimuli/P","F","M","6","58d3c463bfaa440001d1f3a8","10/13/2022, 14:11:46",0.826795308105262,"34","Female","right",1,1,2,2,FALSE,"E_F_Julie_Walters.png P_M_Gordon_Brown.png"
1845,"E_F_Julie_Walters.png","E_M_Michael_McIntyr.png","TRUE","pictures/stimuli/E","pictures/stimuli/E","F","M","6","58d3c463bfaa440001d1f3a8","10/13/2022, 14:11:46",0.826795308105262,"34","Female","right",1,1,2,2,FALSE,"E_F_Julie_Walters.png E_M_Michael_McIntyr.png"
2035,"E_M_Russell_Howard.png","P_M_Sajid_Javid.png","FALSE","pictures/stimuli/E","pictures/stimuli/P","M","M","6","58d3c463bfaa440001d1f3a8","10/13/2022, 14:11:46",0.826795308105262,"34","Female","right",1,1,2,2,FALSE,"E_M_Russell_Howard.png P_M_Sajid_Javid.png"
1656,"P_F_Theresa_May.png","P_M_Sajid_Javid.png","TRUE","pictures/stimuli/P","pictures/stimuli/P","F","M","6","58d3c463bfaa440001d1f3a8","10/13/2022, 14:11:46",0.826795308105262,"34","Female","right",1,1,2,2,FALSE,"P_F_Theresa_May.png P_M_Sajid_Javid.png"
1852,"E_F_Dawn_Roma_French.png","P_M_keir_starmer.png","FALSE","pictures/stimuli/E","pictures/stimuli/P","F","M","6","58d3c463bfaa440001d1f3a8","10/13/2022, 14:11:46",0.826795308105262,"34","Female","right",1,1,2,2,FALSE,"E_F_Dawn_Roma_French.png P_M_keir_starmer.png"
3018,"E_M_Jimmy_Carr.png","P_M_david_camer.png","FALSE","pictures/stimuli/E","pictures/stimuli/P","M","M","3","58d3c463bfaa440001d1f3a8","10/13/2022, 14:11:46",-1.25848489375314,"34","Female","right",1,1,2,2,FALSE,"E_M_Jimmy_Carr.png P_M_david_camer.png"
1488,"E_F_Sarah_Millican.png","P_M_jeremy_corbyn.png","FALSE","pictures/stimuli/E","pictures/stimuli/P","F","M","6","58d3c463bfaa440001d1f3a8","10/13/2022, 14:11:46",0.826795308105262,"34","Female","right",1,1,2,2,FALSE,"E_F_Sarah_Millican.png P_M_jeremy_corbyn.png"
2366,"E_M_Russell_Howard.png","P_F_nicola_sturge.png","FALSE","pictures/stimuli/E","pictures/stimuli/P","M","F","6","58d3c463bfaa440001d1f3a8","10/13/2022, 14:11:46",0.826795308105262,"34","Female","right",1,1,2,2,FALSE,"E_M_Russell_Howard.png P_F_nicola_sturge.png"
2016,"E_M_Jimmy_Carr.png","E_M_Russell_Howard.png","TRUE","pictures/stimuli/E","pictures/stimuli/E","M","M","2","58d3c463bfaa440001d1f3a8","10/13/2022, 14:11:46",-1.95357829437261,"34","Female","right",1,1,2,2,FALSE,"E_M_Jimmy_Carr.png E_M_Russell_Howard.png"
2469,"E_M_Michael_McIntyr.png","P_M_jeremy_corbyn.png","FALSE","pictures/stimuli/E","pictures/stimuli/P","M","M","2","58d3c463bfaa440001d1f3a8","10/13/2022, 14:11:46",-1.95357829437261,"34","Female","right",1,1,2,2,FALSE,"E_M_Michael_McIntyr.png P_M_jeremy_corbyn.png"
1452,"E_F_Jennifer_Saunders.png","E_M_Ewan_McGregor.png","TRUE","pictures/stimuli/E","pictures/stimuli/E","F","M","6","58d3c463bfaa440001d1f3a8","10/13/2022, 14:11:46",0.826795308105262,"34","Female","right",1,1,2,2,FALSE,"E_F_Jennifer_Saunders.png E_M_Ewan_McGregor.png"
1207,"P_F_Theresa_May.png","P_M_jeremy_corbyn.png","TRUE","pictures/stimuli/P","pictures/stimuli/P","F","M","6","58d3c463bfaa440001d1f3a8","10/13/2022, 14:11:46",0.826795308105262,"34","Female","right",1,1,2,2,FALSE,"P_F_Theresa_May.png P_M_jeremy_corbyn.png"
1744,"P_M_Michael_Gove.png","P_M_Sajid_Javid.png","TRUE","pictures/stimuli/P","pictures/stimuli/P","M","M","6","58d3c463bfaa440001d1f3a8","10/13/2022, 14:11:46",0.826795308105262,"34","Female","right",1,1,2,2,FALSE,"P_M_Michael_Gove.png P_M_Sajid_Javid.png"
1623,"E_M_Jimmy_Carr.png","E_M_Michael_McIntyr.png","TRUE","pictures/stimuli/E","pictures/stimuli/E","M","M","2","58d3c463bfaa440001d1f3a8","10/13/2022, 14:11:46",-1.95357829437261,"34","Female","right",1,1,2,2,FALSE,"E_M_Jimmy_Carr.png E_M_Michael_McIntyr.png"
1307,"P_F_nicola_sturge.png","P_M_Sajid_Javid.png","TRUE","pictures/stimuli/P","pictures/stimuli/P","F","M","6","58d3c463bfaa440001d1f3a8","10/13/2022, 14:11:46",0.826795308105262,"34","Female","right",1,1,2,2,FALSE,"P_F_nicola_sturge.png P_M_Sajid_Javid.png"
3581,"P_M_jeremy_corbyn.png","P_M_Michael_Gove.png","TRUE","pictures/stimuli/P","pictures/stimuli/P","M","M","3","58d3c463bfaa440001d1f3a8","10/13/2022, 14:11:46",-1.25848489375314,"34","Female","right",1,1,2,2,FALSE,"P_M_jeremy_corbyn.png P_M_Michael_Gove.png"
1166,"E_F_Julie_Walters.png","E_M_Ewan_McGregor.png","TRUE","pictures/stimuli/E","pictures/stimuli/E","F","M","6","58d3c463bfaa440001d1f3a8","10/13/2022, 14:11:46",0.826795308105262,"34","Female","right",1,1,2,2,FALSE,"E_F_Julie_Walters.png E_M_Ewan_McGregor.png"
4202,"E_M_Michael_McIntyr.png","P_M_Tony_Blair.png","FALSE","pictures/stimuli/E","pictures/stimuli/P","M","M","3","58d3c463bfaa440001d1f3a8","10/13/2022, 14:11:46",-1.25848489375314,"34","Female","right",1,1,2,2,FALSE,"E_M_Michael_McIntyr.png P_M_Tony_Blair.png"
1900,"E_F_Julie_Walters.png","P_M_jeremy_corbyn.png","FALSE","pictures/stimuli/E","pictures/stimuli/P","F","M","6","58d3c463bfaa440001d1f3a8","10/13/2022, 14:11:46",0.826795308105262,"34","Female","right",1,1,2,2,FALSE,"E_F_Julie_Walters.png P_M_jeremy_corbyn.png"
18104,"E_F_Julie_Walters.png","E_F_Sarah_Millican.png","TRUE","pictures/stimuli/E","pictures/stimuli/E","F","F","5","58d3c463bfaa440001d1f3a8","10/13/2022, 14:11:46",0.131701907485794,"34","Female","right",1,1,2,2,FALSE,"E_F_Julie_Walters.png E_F_Sarah_Millican.png"
1677,"E_M_Jimmy_Carr.png","P_M_keir_starmer.png","FALSE","pictures/stimuli/E","pictures/stimuli/P","M","M","5","58d3c463bfaa440001d1f3a8","10/13/2022, 14:11:46",0.131701907485794,"34","Female","right",1,1,2,2,FALSE,"E_M_Jimmy_Carr.png P_M_keir_starmer.png"
1862,"E_M_Peter_Kay.png","P_M_jeremy_corbyn.png","FALSE","pictures/stimuli/E","pictures/stimuli/P","M","M","4","58d3c463bfaa440001d1f3a8","10/13/2022, 14:11:46",-0.563391493133675,"34","Female","right",1,1,2,2,FALSE,"E_M_Peter_Kay.png P_M_jeremy_corbyn.png"
1656,"P_M_david_camer.png","P_M_keir_starmer.png","TRUE","pictures/stimuli/P","pictures/stimuli/P","M","M","4","58d3c463bfaa440001d1f3a8","10/13/2022, 14:11:46",-0.563391493133675,"34","Female","right",1,1,2,2,FALSE,"P_M_david_camer.png P_M_keir_starmer.png"
1593,"P_M_keir_starmer.png","P_M_nigel_farage.png","TRUE","pictures/stimuli/P","pictures/stimuli/P","M","M","4","58d3c463bfaa440001d1f3a8","10/13/2022, 14:11:46",-0.563391493133675,"34","Female","right",1,1,2,2,FALSE,"P_M_keir_starmer.png P_M_nigel_farage.png"
3560,"E_M_Simon_Pegg.png","P_M_david_camer.png","FALSE","pictures/stimuli/E","pictures/stimuli/P","M","M","2","58d3c463bfaa440001d1f3a8","10/13/2022, 14:11:46",-1.95357829437261,"34","Female","right",1,1,2,2,FALSE,"E_M_Simon_Pegg.png P_M_david_camer.png"
1492,"E_M_Ewan_McGregor.png","P_F_Theresa_May.png","FALSE","pictures/stimuli/E","pictures/stimuli/P","M","F","6","58d3c463bfaa440001d1f3a8","10/13/2022, 14:11:46",0.826795308105262,"34","Female","right",1,1,2,2,FALSE,"E_M_Ewan_McGregor.png P_F_Theresa_May.png"
1755,"E_M_Simon_Pegg.png","P_M_nigel_farage.png","FALSE","pictures/stimuli/E","pictures/stimuli/P","M","M","5","58d3c463bfaa440001d1f3a8","10/13/2022, 14:11:46",0.131701907485794,"34","Female","right",1,1,2,2,FALSE,"E_M_Simon_Pegg.png P_M_nigel_farage.png"
1747,"E_M_Peter_Kay.png","P_M_Michael_Gove.png","FALSE","pictures/stimuli/E","pictures/stimuli/P","M","M","6","58d3c463bfaa440001d1f3a8","10/13/2022, 14:11:46",0.826795308105262,"34","Female","right",1,1,2,2,FALSE,"E_M_Peter_Kay.png P_M_Michael_Gove.png"
11366,"E_M_Simon_Pegg.png","P_M_keir_starmer.png","FALSE","pictures/stimuli/E","pictures/stimuli/P","M","M","2","58d3c463bfaa440001d1f3a8","10/13/2022, 14:11:46",-1.95357829437261,"34","Female","right",1,1,2,2,FALSE,"E_M_Simon_Pegg.png P_M_keir_starmer.png"
1726,"P_M_david_camer.png","P_M_Michael_Gove.png","TRUE","pictures/stimuli/P","pictures/stimuli/P","M","M","4","58d3c463bfaa440001d1f3a8","10/13/2022, 14:11:46",-0.563391493133675,"34","Female","right",1,1,2,2,FALSE,"P_M_david_camer.png P_M_Michael_Gove.png"
2292,"E_F_Jennifer_Saunders.png","P_F_Theresa_May.png","FALSE","pictures/stimuli/E","pictures/stimuli/P","F","F","6","58d3c463bfaa440001d1f3a8","10/13/2022, 14:11:46",0.826795308105262,"34","Female","right",1,1,2,2,FALSE,"E_F_Jennifer_Saunders.png P_F_Theresa_May.png"
2474,"E_M_Ewan_McGregor.png","P_M_david_camer.png","FALSE","pictures/stimuli/E","pictures/stimuli/P","M","M","5","58d3c463bfaa440001d1f3a8","10/13/2022, 14:11:46",0.131701907485794,"34","Female","right",1,1,2,2,FALSE,"E_M_Ewan_McGregor.png P_M_david_camer.png"
1806,"E_F_Dawn_Roma_French.png","P_M_Tony_Blair.png","FALSE","pictures/stimuli/E","pictures/stimuli/P","F","M","6","58d3c463bfaa440001d1f3a8","10/13/2022, 14:11:46",0.826795308105262,"34","Female","right",1,1,2,2,FALSE,"E_F_Dawn_Roma_French.png P_M_Tony_Blair.png"
1977,"E_F_Sarah_Millican.png","P_F_nicola_sturge.png","FALSE","pictures/stimuli/E","pictures/stimuli/P","F","F","4","58d3c463bfaa440001d1f3a8","10/13/2022, 14:11:46",-0.563391493133675,"34","Female","right",1,1,2,2,FALSE,"E_F_Sarah_Millican.png P_F_nicola_sturge.png"
1485,"P_M_keir_starmer.png","P_M_Sajid_Javid.png","TRUE","pictures/stimuli/P","pictures/stimuli/P","M","M","6","58d3c463bfaa440001d1f3a8","10/13/2022, 14:11:46",0.826795308105262,"34","Female","right",1,1,2,2,FALSE,"P_M_keir_starmer.png P_M_Sajid_Javid.png"
2298,"E_M_Michael_McIntyr.png","P_F_Theresa_May.png","FALSE","pictures/stimuli/E","pictures/stimuli/P","M","F","6","58d3c463bfaa440001d1f3a8","10/13/2022, 14:11:46",0.826795308105262,"34","Female","right",1,1,2,2,FALSE,"E_M_Michael_McIntyr.png P_F_Theresa_May.png"
1256,"E_F_Julie_Walters.png","P_M_Michael_Gove.png","FALSE","pictures/stimuli/E","pictures/stimuli/P","F","M","6","58d3c463bfaa440001d1f3a8","10/13/2022, 14:11:46",0.826795308105262,"34","Female","right",1,1,2,2,FALSE,"E_F_Julie_Walters.png P_M_Michael_Gove.png"
1963,"E_F_Jennifer_Saunders.png","P_M_jeremy_corbyn.png","FALSE","pictures/stimuli/E","pictures/stimuli/P","F","M","6","58d3c463bfaa440001d1f3a8","10/13/2022, 14:11:46",0.826795308105262,"34","Female","right",1,1,2,2,FALSE,"E_F_Jennifer_Saunders.png P_M_jeremy_corbyn.png"
2284,"P_M_jeremy_corbyn.png","P_M_keir_starmer.png","TRUE","pictures/stimuli/P","pictures/stimuli/P","M","M","2","58d3c463bfaa440001d1f3a8","10/13/2022, 14:11:46",-1.95357829437261,"34","Female","right",1,1,2,2,FALSE,"P_M_jeremy_corbyn.png P_M_keir_starmer.png"
1897,"E_M_Russell_Howard.png","P_M_Michael_Gove.png","FALSE","pictures/stimuli/E","pictures/stimuli/P","M","M","3","58d3c463bfaa440001d1f3a8","10/13/2022, 14:11:46",-1.25848489375314,"34","Female","right",1,1,2,2,FALSE,"E_M_Russell_Howard.png P_M_Michael_Gove.png"
12277,"P_M_keir_starmer.png","P_M_Michael_Gove.png","TRUE","pictures/stimuli/P","pictures/stimuli/P","M","M","3","58d3c463bfaa440001d1f3a8","10/13/2022, 14:11:46",-1.25848489375314,"34","Female","right",1,1,2,2,FALSE,"P_M_keir_starmer.png P_M_Michael_Gove.png"
3959,"E_M_Ewan_McGregor.png","P_M_Michael_Gove.png","FALSE","pictures/stimuli/E","pictures/stimuli/P","M","M","2","58d3c463bfaa440001d1f3a8","10/13/2022, 14:11:46",-1.95357829437261,"34","Female","right",1,1,2,2,FALSE,"E_M_Ewan_McGregor.png P_M_Michael_Gove.png"
1465,"E_F_Dawn_Roma_French.png","E_M_Simon_Pegg.png","TRUE","pictures/stimuli/E","pictures/stimuli/E","F","M","6","58d3c463bfaa440001d1f3a8","10/13/2022, 14:11:46",0.826795308105262,"34","Female","right",1,1,2,2,FALSE,"E_F_Dawn_Roma_French.png E_M_Simon_Pegg.png"
2199,"P_F_nicola_sturge.png","P_M_keir_starmer.png","TRUE","pictures/stimuli/P","pictures/stimuli/P","F","M","6","58d3c463bfaa440001d1f3a8","10/13/2022, 14:11:46",0.826795308105262,"34","Female","right",1,1,2,2,FALSE,"P_F_nicola_sturge.png P_M_keir_starmer.png"
1638,"P_F_Theresa_May.png","P_M_Tony_Blair.png","TRUE","pictures/stimuli/P","pictures/stimuli/P","F","M","6","58d3c463bfaa440001d1f3a8","10/13/2022, 14:11:46",0.826795308105262,"34","Female","right",1,1,2,2,FALSE,"P_F_Theresa_May.png P_M_Tony_Blair.png"
2078,"E_F_Jennifer_Saunders.png","E_F_Sarah_Millican.png","TRUE","pictures/stimuli/E","pictures/stimuli/E","F","F","3","58d3c463bfaa440001d1f3a8","10/13/2022, 14:11:46",-1.25848489375314,"34","Female","right",1,1,2,2,FALSE,"E_F_Jennifer_Saunders.png E_F_Sarah_Millican.png"
2389,"E_F_Sarah_Millican.png","E_M_Jimmy_Carr.png","TRUE","pictures/stimuli/E","pictures/stimuli/E","F","M","4","58d3c463bfaa440001d1f3a8","10/13/2022, 14:11:46",-0.563391493133675,"34","Female","right",1,1,2,2,FALSE,"E_F_Sarah_Millican.png E_M_Jimmy_Carr.png"
1514,"E_F_Dawn_Roma_French.png","P_M_Gordon_Brown.png","FALSE","pictures/stimuli/E","pictures/stimuli/P","F","M","6","58d3c463bfaa440001d1f3a8","10/13/2022, 14:11:46",0.826795308105262,"34","Female","right",1,1,2,2,FALSE,"E_F_Dawn_Roma_French.png P_M_Gordon_Brown.png"
1605,"P_M_david_camer.png","P_M_Gordon_Brown.png","TRUE","pictures/stimuli/P","pictures/stimuli/P","M","M","5","58d3c463bfaa440001d1f3a8","10/13/2022, 14:11:46",0.131701907485794,"34","Female","right",1,1,2,2,FALSE,"P_M_david_camer.png P_M_Gordon_Brown.png"
5610,"P_M_david_camer.png","P_M_Tony_Blair.png","TRUE","pictures/stimuli/P","pictures/stimuli/P","M","M","1","58d3c463bfaa440001d1f3a8","10/13/2022, 14:11:46",-2.64867169499208,"34","Female","right",1,1,2,2,FALSE,"P_M_david_camer.png P_M_Tony_Blair.png"
3113,"P_M_Michael_Gove.png","P_M_nigel_farage.png","TRUE","pictures/stimuli/P","pictures/stimuli/P","M","M","3","58d3c463bfaa440001d1f3a8","10/13/2022, 14:11:46",-1.25848489375314,"34","Female","right",1,1,2,2,FALSE,"P_M_Michael_Gove.png P_M_nigel_farage.png"
2048,"E_M_Ewan_McGregor.png","E_M_Jimmy_Carr.png","TRUE","pictures/stimuli/E","pictures/stimuli/E","M","M","3","58d3c463bfaa440001d1f3a8","10/13/2022, 14:11:46",-1.25848489375314,"34","Female","right",1,1,2,2,FALSE,"E_M_Ewan_McGregor.png E_M_Jimmy_Carr.png"
1684,"E_M_Ewan_McGregor.png","P_M_jeremy_corbyn.png","FALSE","pictures/stimuli/E","pictures/stimuli/P","M","M","4","58d3c463bfaa440001d1f3a8","10/13/2022, 14:11:46",-0.563391493133675,"34","Female","right",1,1,2,2,FALSE,"E_M_Ewan_McGregor.png P_M_jeremy_corbyn.png"
1679,"P_F_Theresa_May.png","P_M_keir_starmer.png","TRUE","pictures/stimuli/P","pictures/stimuli/P","F","M","6","58d3c463bfaa440001d1f3a8","10/13/2022, 14:11:46",0.826795308105262,"34","Female","right",1,1,2,2,FALSE,"P_F_Theresa_May.png P_M_keir_starmer.png"
2629,"E_M_Russell_Howard.png","P_M_Gordon_Brown.png","FALSE","pictures/stimuli/E","pictures/stimuli/P","M","M","6","58d3c463bfaa440001d1f3a8","10/13/2022, 14:11:46",0.826795308105262,"34","Female","right",1,1,2,2,FALSE,"E_M_Russell_Howard.png P_M_Gordon_Brown.png"
2193,"E_F_Dawn_Roma_French.png","P_M_Michael_Gove.png","FALSE","pictures/stimuli/E","pictures/stimuli/P","F","M","6","58d3c463bfaa440001d1f3a8","10/13/2022, 14:11:46",0.826795308105262,"34","Female","right",1,1,2,2,FALSE,"E_F_Dawn_Roma_French.png P_M_Michael_Gove.png"
2204,"P_M_nigel_farage.png","P_M_Sajid_Javid.png","TRUE","pictures/stimuli/P","pictures/stimuli/P","M","M","6","58d3c463bfaa440001d1f3a8","10/13/2022, 14:11:46",0.826795308105262,"34","Female","right",1,1,2,2,FALSE,"P_M_nigel_farage.png P_M_Sajid_Javid.png"
2015,"E_M_Peter_Kay.png","P_F_nicola_sturge.png","FALSE","pictures/stimuli/E","pictures/stimuli/P","M","F","6","58d3c463bfaa440001d1f3a8","10/13/2022, 14:11:46",0.826795308105262,"34","Female","right",1,1,2,2,FALSE,"E_M_Peter_Kay.png P_F_nicola_sturge.png"
