"RT","img_1","img_2","isSameProffesion","img1proffesion","img2proffesion","img1Gender","img2Gender","keyPressed","participant","time","normlised_keyPress","age","gender","handedness","isFamiliar_img1","isFamiliar_img2","vividness_img1","vividness_img2","reject_trial","pair"
5595,"E_F_Dawn_Roma_French.png","E_M_Michael_McIntyr.png","TRUE","pictures/stimuli/E","pictures/stimuli/E","F","M","5","58061b34c7b1100001138a1e","10/17/2022, 10:24:06",0.893091853051362,"32","Male","right",1,1,0,0,FALSE,"E_F_Dawn_Roma_French.png E_M_Michael_McIntyr.png"
4094,"E_F_Dawn_Roma_French.png","P_M_david_camer.png","FALSE","pictures/stimuli/E","pictures/stimuli/P","F","M","4","58061b34c7b1100001138a1e","10/17/2022, 10:24:06",-0.174124826695548,"32","Male","right",1,1,0,0,FALSE,"E_F_Dawn_Roma_French.png P_M_david_camer.png"
4093,"E_F_Julie_Walters.png","E_M_Jimmy_Carr.png","TRUE","pictures/stimuli/E","pictures/stimuli/E","F","M","5","58061b34c7b1100001138a1e","10/17/2022, 10:24:06",0.893091853051362,"32","Male","right",1,1,0,0,FALSE,"E_F_Julie_Walters.png E_M_Jimmy_Carr.png"
3088,"E_M_Ewan_McGregor.png","P_F_nicola_sturge.png","FALSE","pictures/stimuli/E","pictures/stimuli/P","M","F","3","58061b34c7b1100001138a1e","10/17/2022, 10:24:06",-1.24134150644246,"32","Male","right",1,1,0,0,FALSE,"E_M_Ewan_McGregor.png P_F_nicola_sturge.png"
4495,"P_M_jeremy_corbyn.png","P_M_Michael_Gove.png","TRUE","pictures/stimuli/P","pictures/stimuli/P","M","M","5","58061b34c7b1100001138a1e","10/17/2022, 10:24:06",0.893091853051362,"32","Male","right",1,1,0,0,FALSE,"P_M_jeremy_corbyn.png P_M_Michael_Gove.png"
2456,"P_M_david_camer.png","P_M_nigel_farage.png","TRUE","pictures/stimuli/P","pictures/stimuli/P","M","M","2","58061b34c7b1100001138a1e","10/17/2022, 10:24:06",-2.30855818618937,"32","Male","right",1,1,0,0,FALSE,"P_M_david_camer.png P_M_nigel_farage.png"
3215,"E_F_Sarah_Millican.png","E_M_Jimmy_Carr.png","TRUE","pictures/stimuli/E","pictures/stimuli/E","F","M","5","58061b34c7b1100001138a1e","10/17/2022, 10:24:06",0.893091853051362,"32","Male","right",1,1,0,0,FALSE,"E_F_Sarah_Millican.png E_M_Jimmy_Carr.png"
4930,"P_M_jeremy_corbyn.png","P_M_keir_starmer.png","TRUE","pictures/stimuli/P","pictures/stimuli/P","M","M","4","58061b34c7b1100001138a1e","10/17/2022, 10:24:06",-0.174124826695548,"32","Male","right",1,1,0,0,FALSE,"P_M_jeremy_corbyn.png P_M_keir_starmer.png"
2268,"P_M_david_camer.png","P_M_jeremy_corbyn.png","TRUE","pictures/stimuli/P","pictures/stimuli/P","M","M","5","58061b34c7b1100001138a1e","10/17/2022, 10:24:06",0.893091853051362,"32","Male","right",1,1,0,0,FALSE,"P_M_david_camer.png P_M_jeremy_corbyn.png"
3132,"E_M_Jimmy_Carr.png","E_M_Simon_Pegg.png","TRUE","pictures/stimuli/E","pictures/stimuli/E","M","M","2","58061b34c7b1100001138a1e","10/17/2022, 10:24:06",-2.30855818618937,"32","Male","right",1,1,0,0,FALSE,"E_M_Jimmy_Carr.png E_M_Simon_Pegg.png"
1990,"E_F_Julie_Walters.png","P_M_david_camer.png","FALSE","pictures/stimuli/E","pictures/stimuli/P","F","M","5","58061b34c7b1100001138a1e","10/17/2022, 10:24:06",0.893091853051362,"32","Male","right",1,1,0,0,FALSE,"E_F_Julie_Walters.png P_M_david_camer.png"
3204,"P_M_nigel_farage.png","P_M_Sajid_Javid.png","TRUE","pictures/stimuli/P","pictures/stimuli/P","M","M","3","58061b34c7b1100001138a1e","10/17/2022, 10:24:06",-1.24134150644246,"32","Male","right",1,0,0,0,TRUE,"P_M_nigel_farage.png P_M_Sajid_Javid.png"
5423,"E_F_Jennifer_Saunders.png","E_M_Simon_Pegg.png","TRUE","pictures/stimuli/E","pictures/stimuli/E","F","M","5","58061b34c7b1100001138a1e","10/17/2022, 10:24:06",0.893091853051362,"32","Male","right",1,1,0,0,FALSE,"E_F_Jennifer_Saunders.png E_M_Simon_Pegg.png"
2184,"E_M_Michael_McIntyr.png","E_M_Simon_Pegg.png","TRUE","pictures/stimuli/E","pictures/stimuli/E","M","M","3","58061b34c7b1100001138a1e","10/17/2022, 10:24:06",-1.24134150644246,"32","Male","right",1,1,0,0,FALSE,"E_M_Michael_McIntyr.png E_M_Simon_Pegg.png"
3578,"E_F_Sarah_Millican.png","E_M_Simon_Pegg.png","TRUE","pictures/stimuli/E","pictures/stimuli/E","F","M","5","58061b34c7b1100001138a1e","10/17/2022, 10:24:06",0.893091853051362,"32","Male","right",1,1,0,0,FALSE,"E_F_Sarah_Millican.png E_M_Simon_Pegg.png"
2343,"E_M_Jimmy_Carr.png","P_M_Michael_Gove.png","FALSE","pictures/stimuli/E","pictures/stimuli/P","M","M","3","58061b34c7b1100001138a1e","10/17/2022, 10:24:06",-1.24134150644246,"32","Male","right",1,1,0,0,FALSE,"E_M_Jimmy_Carr.png P_M_Michael_Gove.png"
4014,"E_M_Ewan_McGregor.png","E_M_Michael_McIntyr.png","TRUE","pictures/stimuli/E","pictures/stimuli/E","M","M","4","58061b34c7b1100001138a1e","10/17/2022, 10:24:06",-0.174124826695548,"32","Male","right",1,1,0,0,FALSE,"E_M_Ewan_McGregor.png E_M_Michael_McIntyr.png"
3024,"E_M_Ewan_McGregor.png","P_M_jeremy_corbyn.png","FALSE","pictures/stimuli/E","pictures/stimuli/P","M","M","3","58061b34c7b1100001138a1e","10/17/2022, 10:24:06",-1.24134150644246,"32","Male","right",1,1,0,0,FALSE,"E_M_Ewan_McGregor.png P_M_jeremy_corbyn.png"
4034,"P_M_Gordon_Brown.png","P_M_keir_starmer.png","TRUE","pictures/stimuli/P","pictures/stimuli/P","M","M","4","58061b34c7b1100001138a1e","10/17/2022, 10:24:06",-0.174124826695548,"32","Male","right",1,1,0,0,FALSE,"P_M_Gordon_Brown.png P_M_keir_starmer.png"
5428,"E_M_Simon_Pegg.png","P_F_nicola_sturge.png","FALSE","pictures/stimuli/E","pictures/stimuli/P","M","F","3","58061b34c7b1100001138a1e","10/17/2022, 10:24:06",-1.24134150644246,"32","Male","right",1,1,0,0,FALSE,"E_M_Simon_Pegg.png P_F_nicola_sturge.png"
6044,"E_F_Sarah_Millican.png","P_M_keir_starmer.png","FALSE","pictures/stimuli/E","pictures/stimuli/P","F","M","4","58061b34c7b1100001138a1e","10/17/2022, 10:24:06",-0.174124826695548,"32","Male","right",1,1,0,0,FALSE,"E_F_Sarah_Millican.png P_M_keir_starmer.png"
2332,"P_M_david_camer.png","P_M_Sajid_Javid.png","TRUE","pictures/stimuli/P","pictures/stimuli/P","M","M","5","58061b34c7b1100001138a1e","10/17/2022, 10:24:06",0.893091853051362,"32","Male","right",1,0,0,0,TRUE,"P_M_david_camer.png P_M_Sajid_Javid.png"
2354,"E_M_Jimmy_Carr.png","P_M_Gordon_Brown.png","FALSE","pictures/stimuli/E","pictures/stimuli/P","M","M","3","58061b34c7b1100001138a1e","10/17/2022, 10:24:06",-1.24134150644246,"32","Male","right",1,1,0,0,FALSE,"E_M_Jimmy_Carr.png P_M_Gordon_Brown.png"
2703,"E_M_Simon_Pegg.png","P_M_jeremy_corbyn.png","FALSE","pictures/stimuli/E","pictures/stimuli/P","M","M","4","58061b34c7b1100001138a1e","10/17/2022, 10:24:06",-0.174124826695548,"32","Male","right",1,1,0,0,FALSE,"E_M_Simon_Pegg.png P_M_jeremy_corbyn.png"
3937,"E_M_Peter_Kay.png","P_M_Gordon_Brown.png","FALSE","pictures/stimuli/E","pictures/stimuli/P","M","M","4","58061b34c7b1100001138a1e","10/17/2022, 10:24:06",-0.174124826695548,"32","Male","right",1,1,0,0,FALSE,"E_M_Peter_Kay.png P_M_Gordon_Brown.png"
4293,"E_M_Michael_McIntyr.png","P_M_keir_starmer.png","FALSE","pictures/stimuli/E","pictures/stimuli/P","M","M","3","58061b34c7b1100001138a1e","10/17/2022, 10:24:06",-1.24134150644246,"32","Male","right",1,1,0,0,FALSE,"E_M_Michael_McIntyr.png P_M_keir_starmer.png"
2184,"E_M_Peter_Kay.png","P_F_Theresa_May.png","FALSE","pictures/stimuli/E","pictures/stimuli/P","M","F","5","58061b34c7b1100001138a1e","10/17/2022, 10:24:06",0.893091853051362,"32","Male","right",1,1,0,0,FALSE,"E_M_Peter_Kay.png P_F_Theresa_May.png"
6463,"E_M_Ewan_McGregor.png","E_M_Simon_Pegg.png","TRUE","pictures/stimuli/E","pictures/stimuli/E","M","M","2","58061b34c7b1100001138a1e","10/17/2022, 10:24:06",-2.30855818618937,"32","Male","right",1,1,0,0,FALSE,"E_M_Ewan_McGregor.png E_M_Simon_Pegg.png"
2254,"E_M_Ewan_McGregor.png","P_M_Gordon_Brown.png","FALSE","pictures/stimuli/E","pictures/stimuli/P","M","M","3","58061b34c7b1100001138a1e","10/17/2022, 10:24:06",-1.24134150644246,"32","Male","right",1,1,0,0,FALSE,"E_M_Ewan_McGregor.png P_M_Gordon_Brown.png"
2760,"E_F_Sarah_Millican.png","P_F_nicola_sturge.png","FALSE","pictures/stimuli/E","pictures/stimuli/P","F","F","4","58061b34c7b1100001138a1e","10/17/2022, 10:24:06",-0.174124826695548,"32","Male","right",1,1,0,0,FALSE,"E_F_Sarah_Millican.png P_F_nicola_sturge.png"
2671,"P_F_Theresa_May.png","P_M_Michael_Gove.png","TRUE","pictures/stimuli/P","pictures/stimuli/P","F","M","4","58061b34c7b1100001138a1e","10/17/2022, 10:24:06",-0.174124826695548,"32","Male","right",1,1,0,0,FALSE,"P_F_Theresa_May.png P_M_Michael_Gove.png"
2607,"E_F_Jennifer_Saunders.png","E_M_Ewan_McGregor.png","TRUE","pictures/stimuli/E","pictures/stimuli/E","F","M","5","58061b34c7b1100001138a1e","10/17/2022, 10:24:06",0.893091853051362,"32","Male","right",1,1,0,0,FALSE,"E_F_Jennifer_Saunders.png E_M_Ewan_McGregor.png"
5671,"E_M_Jimmy_Carr.png","E_M_Michael_McIntyr.png","TRUE","pictures/stimuli/E","pictures/stimuli/E","M","M","2","58061b34c7b1100001138a1e","10/17/2022, 10:24:06",-2.30855818618937,"32","Male","right",1,1,0,0,FALSE,"E_M_Jimmy_Carr.png E_M_Michael_McIntyr.png"
2181,"P_M_jeremy_corbyn.png","P_M_nigel_farage.png","TRUE","pictures/stimuli/P","pictures/stimuli/P","M","M","5","58061b34c7b1100001138a1e","10/17/2022, 10:24:06",0.893091853051362,"32","Male","right",1,1,0,0,FALSE,"P_M_jeremy_corbyn.png P_M_nigel_farage.png"
3414,"E_M_Peter_Kay.png","P_M_david_camer.png","FALSE","pictures/stimuli/E","pictures/stimuli/P","M","M","2","58061b34c7b1100001138a1e","10/17/2022, 10:24:06",-2.30855818618937,"32","Male","right",1,1,0,0,FALSE,"E_M_Peter_Kay.png P_M_david_camer.png"
1754,"P_M_david_camer.png","P_M_Michael_Gove.png","TRUE","pictures/stimuli/P","pictures/stimuli/P","M","M","3","58061b34c7b1100001138a1e","10/17/2022, 10:24:06",-1.24134150644246,"32","Male","right",1,1,0,0,FALSE,"P_M_david_camer.png P_M_Michael_Gove.png"
2863,"P_M_david_camer.png","P_M_Gordon_Brown.png","TRUE","pictures/stimuli/P","pictures/stimuli/P","M","M","3","58061b34c7b1100001138a1e","10/17/2022, 10:24:06",-1.24134150644246,"32","Male","right",1,1,0,0,FALSE,"P_M_david_camer.png P_M_Gordon_Brown.png"
1692,"E_M_Jimmy_Carr.png","P_M_Sajid_Javid.png","FALSE","pictures/stimuli/E","pictures/stimuli/P","M","M","5","58061b34c7b1100001138a1e","10/17/2022, 10:24:06",0.893091853051362,"32","Male","right",1,0,0,0,TRUE,"E_M_Jimmy_Carr.png P_M_Sajid_Javid.png"
2704,"P_F_Theresa_May.png","P_M_Tony_Blair(12).png","TRUE","pictures/stimuli/P","pictures/stimuli/P","F","M","3","58061b34c7b1100001138a1e","10/17/2022, 10:24:06",-1.24134150644246,"32","Male","right",1,1,0,0,FALSE,"P_F_Theresa_May.png P_M_Tony_Blair(12).png"
1861,"E_F_Julie_Walters.png","P_M_jeremy_corbyn.png","FALSE","pictures/stimuli/E","pictures/stimuli/P","F","M","5","58061b34c7b1100001138a1e","10/17/2022, 10:24:06",0.893091853051362,"32","Male","right",1,1,0,0,FALSE,"E_F_Julie_Walters.png P_M_jeremy_corbyn.png"
2126,"E_F_Dawn_Roma_French.png","P_M_Michael_Gove.png","FALSE","pictures/stimuli/E","pictures/stimuli/P","F","M","5","58061b34c7b1100001138a1e","10/17/2022, 10:24:06",0.893091853051362,"32","Male","right",1,1,0,0,FALSE,"E_F_Dawn_Roma_French.png P_M_Michael_Gove.png"
2147,"P_M_keir_starmer.png","P_M_Tony_Blair(12).png","TRUE","pictures/stimuli/P","pictures/stimuli/P","M","M","3","58061b34c7b1100001138a1e","10/17/2022, 10:24:06",-1.24134150644246,"32","Male","right",1,1,0,0,FALSE,"P_M_keir_starmer.png P_M_Tony_Blair(12).png"
2035,"E_M_Jimmy_Carr.png","P_M_jeremy_corbyn.png","FALSE","pictures/stimuli/E","pictures/stimuli/P","M","M","4","58061b34c7b1100001138a1e","10/17/2022, 10:24:06",-0.174124826695548,"32","Male","right",1,1,0,0,FALSE,"E_M_Jimmy_Carr.png P_M_jeremy_corbyn.png"
2375,"E_F_Dawn_Roma_French.png","P_M_keir_starmer.png","FALSE","pictures/stimuli/E","pictures/stimuli/P","F","M","5","58061b34c7b1100001138a1e","10/17/2022, 10:24:06",0.893091853051362,"32","Male","right",1,1,0,0,FALSE,"E_F_Dawn_Roma_French.png P_M_keir_starmer.png"
8631,"E_F_Jennifer_Saunders.png","E_F_Julie_Walters.png","TRUE","pictures/stimuli/E","pictures/stimuli/E","F","F","2","58061b34c7b1100001138a1e","10/17/2022, 10:24:06",-2.30855818618937,"32","Male","right",1,1,0,0,FALSE,"E_F_Jennifer_Saunders.png E_F_Julie_Walters.png"
3541,"E_M_Ewan_McGregor.png","E_M_Russell_Howard.png","TRUE","pictures/stimuli/E","pictures/stimuli/E","M","M","2","58061b34c7b1100001138a1e","10/17/2022, 10:24:06",-2.30855818618937,"32","Male","right",1,1,0,0,FALSE,"E_M_Ewan_McGregor.png E_M_Russell_Howard.png"
2063,"E_M_Peter_Kay.png","P_F_nicola_sturge.png","FALSE","pictures/stimuli/E","pictures/stimuli/P","M","F","3","58061b34c7b1100001138a1e","10/17/2022, 10:24:06",-1.24134150644246,"32","Male","right",1,1,0,0,FALSE,"E_M_Peter_Kay.png P_F_nicola_sturge.png"
3425,"P_F_nicola_sturge.png","P_F_Theresa_May.png","TRUE","pictures/stimuli/P","pictures/stimuli/P","F","F","3","58061b34c7b1100001138a1e","10/17/2022, 10:24:06",-1.24134150644246,"32","Male","right",1,1,0,0,FALSE,"P_F_nicola_sturge.png P_F_Theresa_May.png"
2023,"E_M_Simon_Pegg.png","P_M_Michael_Gove.png","FALSE","pictures/stimuli/E","pictures/stimuli/P","M","M","4","58061b34c7b1100001138a1e","10/17/2022, 10:24:06",-0.174124826695548,"32","Male","right",1,1,0,0,FALSE,"E_M_Simon_Pegg.png P_M_Michael_Gove.png"
3341,"E_M_Peter_Kay.png","P_M_jeremy_corbyn.png","FALSE","pictures/stimuli/E","pictures/stimuli/P","M","M","5","58061b34c7b1100001138a1e","10/17/2022, 10:24:06",0.893091853051362,"32","Male","right",1,1,0,0,FALSE,"E_M_Peter_Kay.png P_M_jeremy_corbyn.png"
2474,"E_F_Sarah_Millican.png","P_M_Michael_Gove.png","FALSE","pictures/stimuli/E","pictures/stimuli/P","F","M","4","58061b34c7b1100001138a1e","10/17/2022, 10:24:06",-0.174124826695548,"32","Male","right",1,1,0,0,FALSE,"E_F_Sarah_Millican.png P_M_Michael_Gove.png"
2165,"E_M_Russell_Howard.png","P_M_jeremy_corbyn.png","FALSE","pictures/stimuli/E","pictures/stimuli/P","M","M","4","58061b34c7b1100001138a1e","10/17/2022, 10:24:06",-0.174124826695548,"32","Male","right",1,1,0,0,FALSE,"E_M_Russell_Howard.png P_M_jeremy_corbyn.png"
1855,"E_M_Jimmy_Carr.png","P_M_Tony_Blair(12).png","FALSE","pictures/stimuli/E","pictures/stimuli/P","M","M","3","58061b34c7b1100001138a1e","10/17/2022, 10:24:06",-1.24134150644246,"32","Male","right",1,1,0,0,FALSE,"E_M_Jimmy_Carr.png P_M_Tony_Blair(12).png"
2259,"E_M_Simon_Pegg.png","P_M_david_camer.png","FALSE","pictures/stimuli/E","pictures/stimuli/P","M","M","4","58061b34c7b1100001138a1e","10/17/2022, 10:24:06",-0.174124826695548,"32","Male","right",1,1,0,0,FALSE,"E_M_Simon_Pegg.png P_M_david_camer.png"
3178,"E_M_Michael_McIntyr.png","P_F_nicola_sturge.png","FALSE","pictures/stimuli/E","pictures/stimuli/P","M","F","4","58061b34c7b1100001138a1e","10/17/2022, 10:24:06",-0.174124826695548,"32","Male","right",1,1,0,0,FALSE,"E_M_Michael_McIntyr.png P_F_nicola_sturge.png"
4169,"E_F_Sarah_Millican.png","P_F_Theresa_May.png","FALSE","pictures/stimuli/E","pictures/stimuli/P","F","F","4","58061b34c7b1100001138a1e","10/17/2022, 10:24:06",-0.174124826695548,"32","Male","right",1,1,0,0,FALSE,"E_F_Sarah_Millican.png P_F_Theresa_May.png"
4140,"P_F_nicola_sturge.png","P_M_Michael_Gove.png","TRUE","pictures/stimuli/P","pictures/stimuli/P","F","M","4","58061b34c7b1100001138a1e","10/17/2022, 10:24:06",-0.174124826695548,"32","Male","right",1,1,0,0,FALSE,"P_F_nicola_sturge.png P_M_Michael_Gove.png"
4438,"E_F_Julie_Walters.png","P_M_keir_starmer.png","FALSE","pictures/stimuli/E","pictures/stimuli/P","F","M","3","58061b34c7b1100001138a1e","10/17/2022, 10:24:06",-1.24134150644246,"32","Male","right",1,1,0,0,FALSE,"E_F_Julie_Walters.png P_M_keir_starmer.png"
2639,"E_F_Jennifer_Saunders.png","E_F_Sarah_Millican.png","TRUE","pictures/stimuli/E","pictures/stimuli/E","F","F","5","58061b34c7b1100001138a1e","10/17/2022, 10:24:06",0.893091853051362,"32","Male","right",1,1,0,0,FALSE,"E_F_Jennifer_Saunders.png E_F_Sarah_Millican.png"
2299,"E_M_Ewan_McGregor.png","P_M_david_camer.png","FALSE","pictures/stimuli/E","pictures/stimuli/P","M","M","4","58061b34c7b1100001138a1e","10/17/2022, 10:24:06",-0.174124826695548,"32","Male","right",1,1,0,0,FALSE,"E_M_Ewan_McGregor.png P_M_david_camer.png"
3192,"E_F_Dawn_Roma_French.png","P_M_nigel_farage.png","FALSE","pictures/stimuli/E","pictures/stimuli/P","F","M","5","58061b34c7b1100001138a1e","10/17/2022, 10:24:06",0.893091853051362,"32","Male","right",1,1,0,0,FALSE,"E_F_Dawn_Roma_French.png P_M_nigel_farage.png"
2683,"P_F_nicola_sturge.png","P_M_jeremy_corbyn.png","TRUE","pictures/stimuli/P","pictures/stimuli/P","F","M","5","58061b34c7b1100001138a1e","10/17/2022, 10:24:06",0.893091853051362,"32","Male","right",1,1,0,0,FALSE,"P_F_nicola_sturge.png P_M_jeremy_corbyn.png"
3383,"E_F_Jennifer_Saunders.png","P_M_Sajid_Javid.png","FALSE","pictures/stimuli/E","pictures/stimuli/P","F","M","6","58061b34c7b1100001138a1e","10/17/2022, 10:24:06",1.96030853279827,"32","Male","right",1,0,0,0,TRUE,"E_F_Jennifer_Saunders.png P_M_Sajid_Javid.png"
1948,"E_M_Russell_Howard.png","P_M_nigel_farage.png","FALSE","pictures/stimuli/E","pictures/stimuli/P","M","M","5","58061b34c7b1100001138a1e","10/17/2022, 10:24:06",0.893091853051362,"32","Male","right",1,1,0,0,FALSE,"E_M_Russell_Howard.png P_M_nigel_farage.png"
2785,"E_M_Michael_McIntyr.png","P_M_Tony_Blair(12).png","FALSE","pictures/stimuli/E","pictures/stimuli/P","M","M","3","58061b34c7b1100001138a1e","10/17/2022, 10:24:06",-1.24134150644246,"32","Male","right",1,1,0,0,FALSE,"E_M_Michael_McIntyr.png P_M_Tony_Blair(12).png"
2047,"E_F_Julie_Walters.png","P_F_Theresa_May.png","FALSE","pictures/stimuli/E","pictures/stimuli/P","F","F","3","58061b34c7b1100001138a1e","10/17/2022, 10:24:06",-1.24134150644246,"32","Male","right",1,1,0,0,FALSE,"E_F_Julie_Walters.png P_F_Theresa_May.png"
1663,"E_F_Dawn_Roma_French.png","P_M_Sajid_Javid.png","FALSE","pictures/stimuli/E","pictures/stimuli/P","F","M","6","58061b34c7b1100001138a1e","10/17/2022, 10:24:06",1.96030853279827,"32","Male","right",1,0,0,0,TRUE,"E_F_Dawn_Roma_French.png P_M_Sajid_Javid.png"
2576,"P_F_Theresa_May.png","P_M_david_camer.png","TRUE","pictures/stimuli/P","pictures/stimuli/P","F","M","5","58061b34c7b1100001138a1e","10/17/2022, 10:24:06",0.893091853051362,"32","Male","right",1,1,0,0,FALSE,"P_F_Theresa_May.png P_M_david_camer.png"
1911,"P_F_Theresa_May.png","P_M_keir_starmer.png","TRUE","pictures/stimuli/P","pictures/stimuli/P","F","M","5","58061b34c7b1100001138a1e","10/17/2022, 10:24:06",0.893091853051362,"32","Male","right",1,1,0,0,FALSE,"P_F_Theresa_May.png P_M_keir_starmer.png"
3753,"E_F_Dawn_Roma_French.png","E_M_Simon_Pegg.png","TRUE","pictures/stimuli/E","pictures/stimuli/E","F","M","5","58061b34c7b1100001138a1e","10/17/2022, 10:24:06",0.893091853051362,"32","Male","right",1,1,0,0,FALSE,"E_F_Dawn_Roma_French.png E_M_Simon_Pegg.png"
3046,"E_F_Julie_Walters.png","E_F_Sarah_Millican.png","TRUE","pictures/stimuli/E","pictures/stimuli/E","F","F","5","58061b34c7b1100001138a1e","10/17/2022, 10:24:06",0.893091853051362,"32","Male","right",1,1,0,0,FALSE,"E_F_Julie_Walters.png E_F_Sarah_Millican.png"
4055,"E_M_Peter_Kay.png","E_M_Simon_Pegg.png","TRUE","pictures/stimuli/E","pictures/stimuli/E","M","M","5","58061b34c7b1100001138a1e","10/17/2022, 10:24:06",0.893091853051362,"32","Male","right",1,1,0,0,FALSE,"E_M_Peter_Kay.png E_M_Simon_Pegg.png"
8536,"E_M_Michael_McIntyr.png","P_F_Theresa_May.png","FALSE","pictures/stimuli/E","pictures/stimuli/P","M","F","4","58061b34c7b1100001138a1e","10/17/2022, 10:24:06",-0.174124826695548,"32","Male","right",1,1,0,0,FALSE,"E_M_Michael_McIntyr.png P_F_Theresa_May.png"
2241,"E_M_Jimmy_Carr.png","P_M_keir_starmer.png","FALSE","pictures/stimuli/E","pictures/stimuli/P","M","M","3","58061b34c7b1100001138a1e","10/17/2022, 10:24:06",-1.24134150644246,"32","Male","right",1,1,0,0,FALSE,"E_M_Jimmy_Carr.png P_M_keir_starmer.png"
1867,"E_F_Julie_Walters.png","E_M_Russell_Howard.png","TRUE","pictures/stimuli/E","pictures/stimuli/E","F","M","5","58061b34c7b1100001138a1e","10/17/2022, 10:24:06",0.893091853051362,"32","Male","right",1,1,0,0,FALSE,"E_F_Julie_Walters.png E_M_Russell_Howard.png"
2368,"P_M_Sajid_Javid.png","P_M_Tony_Blair(12).png","TRUE","pictures/stimuli/P","pictures/stimuli/P","M","M","4","58061b34c7b1100001138a1e","10/17/2022, 10:24:06",-0.174124826695548,"32","Male","right",0,1,0,0,TRUE,"P_M_Sajid_Javid.png P_M_Tony_Blair(12).png"
2222,"P_M_Gordon_Brown.png","P_M_jeremy_corbyn.png","TRUE","pictures/stimuli/P","pictures/stimuli/P","M","M","4","58061b34c7b1100001138a1e","10/17/2022, 10:24:06",-0.174124826695548,"32","Male","right",1,1,0,0,FALSE,"P_M_Gordon_Brown.png P_M_jeremy_corbyn.png"
2270,"E_F_Dawn_Roma_French.png","P_M_jeremy_corbyn.png","FALSE","pictures/stimuli/E","pictures/stimuli/P","F","M","5","58061b34c7b1100001138a1e","10/17/2022, 10:24:06",0.893091853051362,"32","Male","right",1,1,0,0,FALSE,"E_F_Dawn_Roma_French.png P_M_jeremy_corbyn.png"
1672,"E_F_Sarah_Millican.png","P_M_Tony_Blair(12).png","FALSE","pictures/stimuli/E","pictures/stimuli/P","F","M","5","58061b34c7b1100001138a1e","10/17/2022, 10:24:06",0.893091853051362,"32","Male","right",1,1,0,0,FALSE,"E_F_Sarah_Millican.png P_M_Tony_Blair(12).png"
2935,"P_M_keir_starmer.png","P_M_nigel_farage.png","TRUE","pictures/stimuli/P","pictures/stimuli/P","M","M","4","58061b34c7b1100001138a1e","10/17/2022, 10:24:06",-0.174124826695548,"32","Male","right",1,1,0,0,FALSE,"P_M_keir_starmer.png P_M_nigel_farage.png"
3775,"E_F_Julie_Walters.png","P_M_Tony_Blair(12).png","FALSE","pictures/stimuli/E","pictures/stimuli/P","F","M","5","58061b34c7b1100001138a1e","10/17/2022, 10:24:06",0.893091853051362,"32","Male","right",1,1,0,0,FALSE,"E_F_Julie_Walters.png P_M_Tony_Blair(12).png"
2842,"E_M_Ewan_McGregor.png","P_M_Michael_Gove.png","FALSE","pictures/stimuli/E","pictures/stimuli/P","M","M","5","58061b34c7b1100001138a1e","10/17/2022, 10:24:06",0.893091853051362,"32","Male","right",1,1,0,0,FALSE,"E_M_Ewan_McGregor.png P_M_Michael_Gove.png"
1934,"E_M_Peter_Kay.png","P_M_Michael_Gove.png","FALSE","pictures/stimuli/E","pictures/stimuli/P","M","M","3","58061b34c7b1100001138a1e","10/17/2022, 10:24:06",-1.24134150644246,"32","Male","right",1,1,0,0,FALSE,"E_M_Peter_Kay.png P_M_Michael_Gove.png"
2539,"E_F_Dawn_Roma_French.png","E_F_Sarah_Millican.png","TRUE","pictures/stimuli/E","pictures/stimuli/E","F","F","5","58061b34c7b1100001138a1e","10/17/2022, 10:24:06",0.893091853051362,"32","Male","right",1,1,0,0,FALSE,"E_F_Dawn_Roma_French.png E_F_Sarah_Millican.png"
2468,"E_M_Michael_McIntyr.png","E_M_Peter_Kay.png","TRUE","pictures/stimuli/E","pictures/stimuli/E","M","M","4","58061b34c7b1100001138a1e","10/17/2022, 10:24:06",-0.174124826695548,"32","Male","right",1,1,0,0,FALSE,"E_M_Michael_McIntyr.png E_M_Peter_Kay.png"
1749,"E_M_Ewan_McGregor.png","P_M_Tony_Blair(12).png","FALSE","pictures/stimuli/E","pictures/stimuli/P","M","M","4","58061b34c7b1100001138a1e","10/17/2022, 10:24:06",-0.174124826695548,"32","Male","right",1,1,0,0,FALSE,"E_M_Ewan_McGregor.png P_M_Tony_Blair(12).png"
2479,"E_F_Julie_Walters.png","P_M_nigel_farage.png","FALSE","pictures/stimuli/E","pictures/stimuli/P","F","M","6","58061b34c7b1100001138a1e","10/17/2022, 10:24:06",1.96030853279827,"32","Male","right",1,1,0,0,FALSE,"E_F_Julie_Walters.png P_M_nigel_farage.png"
2049,"E_M_Simon_Pegg.png","P_M_keir_starmer.png","FALSE","pictures/stimuli/E","pictures/stimuli/P","M","M","4","58061b34c7b1100001138a1e","10/17/2022, 10:24:06",-0.174124826695548,"32","Male","right",1,1,0,0,FALSE,"E_M_Simon_Pegg.png P_M_keir_starmer.png"
2802,"E_F_Sarah_Millican.png","P_M_nigel_farage.png","FALSE","pictures/stimuli/E","pictures/stimuli/P","F","M","4","58061b34c7b1100001138a1e","10/17/2022, 10:24:06",-0.174124826695548,"32","Male","right",1,1,0,0,FALSE,"E_F_Sarah_Millican.png P_M_nigel_farage.png"
1871,"E_M_Michael_McIntyr.png","P_M_Michael_Gove.png","FALSE","pictures/stimuli/E","pictures/stimuli/P","M","M","3","58061b34c7b1100001138a1e","10/17/2022, 10:24:06",-1.24134150644246,"32","Male","right",1,1,0,0,FALSE,"E_M_Michael_McIntyr.png P_M_Michael_Gove.png"
1596,"E_M_Russell_Howard.png","P_M_keir_starmer.png","FALSE","pictures/stimuli/E","pictures/stimuli/P","M","M","3","58061b34c7b1100001138a1e","10/17/2022, 10:24:06",-1.24134150644246,"32","Male","right",1,1,0,0,FALSE,"E_M_Russell_Howard.png P_M_keir_starmer.png"
1718,"E_M_Russell_Howard.png","P_M_Gordon_Brown.png","FALSE","pictures/stimuli/E","pictures/stimuli/P","M","M","3","58061b34c7b1100001138a1e","10/17/2022, 10:24:06",-1.24134150644246,"32","Male","right",1,1,0,0,FALSE,"E_M_Russell_Howard.png P_M_Gordon_Brown.png"
2427,"E_F_Jennifer_Saunders.png","P_M_david_camer.png","FALSE","pictures/stimuli/E","pictures/stimuli/P","F","M","5","58061b34c7b1100001138a1e","10/17/2022, 10:24:06",0.893091853051362,"32","Male","right",1,1,0,0,FALSE,"E_F_Jennifer_Saunders.png P_M_david_camer.png"
1878,"E_F_Sarah_Millican.png","E_M_Peter_Kay.png","TRUE","pictures/stimuli/E","pictures/stimuli/E","F","M","4","58061b34c7b1100001138a1e","10/17/2022, 10:24:06",-0.174124826695548,"32","Male","right",1,1,0,0,FALSE,"E_F_Sarah_Millican.png E_M_Peter_Kay.png"
1838,"E_M_Michael_McIntyr.png","P_M_jeremy_corbyn.png","FALSE","pictures/stimuli/E","pictures/stimuli/P","M","M","5","58061b34c7b1100001138a1e","10/17/2022, 10:24:06",0.893091853051362,"32","Male","right",1,1,0,0,FALSE,"E_M_Michael_McIntyr.png P_M_jeremy_corbyn.png"
2862,"E_M_Russell_Howard.png","P_M_david_camer.png","FALSE","pictures/stimuli/E","pictures/stimuli/P","M","M","4","58061b34c7b1100001138a1e","10/17/2022, 10:24:06",-0.174124826695548,"32","Male","right",1,1,0,0,FALSE,"E_M_Russell_Howard.png P_M_david_camer.png"
1951,"E_M_Jimmy_Carr.png","P_M_nigel_farage.png","FALSE","pictures/stimuli/E","pictures/stimuli/P","M","M","3","58061b34c7b1100001138a1e","10/17/2022, 10:24:06",-1.24134150644246,"32","Male","right",1,1,0,0,FALSE,"E_M_Jimmy_Carr.png P_M_nigel_farage.png"
2634,"E_F_Julie_Walters.png","E_M_Peter_Kay.png","TRUE","pictures/stimuli/E","pictures/stimuli/E","F","M","6","58061b34c7b1100001138a1e","10/17/2022, 10:24:06",1.96030853279827,"32","Male","right",1,1,0,0,FALSE,"E_F_Julie_Walters.png E_M_Peter_Kay.png"
4066,"E_F_Jennifer_Saunders.png","P_M_Gordon_Brown.png","FALSE","pictures/stimuli/E","pictures/stimuli/P","F","M","5","58061b34c7b1100001138a1e","10/17/2022, 10:24:06",0.893091853051362,"32","Male","right",1,1,0,0,FALSE,"E_F_Jennifer_Saunders.png P_M_Gordon_Brown.png"
2156,"P_M_jeremy_corbyn.png","P_M_Tony_Blair(12).png","TRUE","pictures/stimuli/P","pictures/stimuli/P","M","M","4","58061b34c7b1100001138a1e","10/17/2022, 10:24:06",-0.174124826695548,"32","Male","right",1,1,0,0,FALSE,"P_M_jeremy_corbyn.png P_M_Tony_Blair(12).png"
1711,"P_M_keir_starmer.png","P_M_Sajid_Javid.png","TRUE","pictures/stimuli/P","pictures/stimuli/P","M","M","5","58061b34c7b1100001138a1e","10/17/2022, 10:24:06",0.893091853051362,"32","Male","right",1,0,0,0,TRUE,"P_M_keir_starmer.png P_M_Sajid_Javid.png"
1908,"E_F_Julie_Walters.png","P_M_Sajid_Javid.png","FALSE","pictures/stimuli/E","pictures/stimuli/P","F","M","6","58061b34c7b1100001138a1e","10/17/2022, 10:24:06",1.96030853279827,"32","Male","right",1,0,0,0,TRUE,"E_F_Julie_Walters.png P_M_Sajid_Javid.png"
2131,"E_F_Sarah_Millican.png","P_M_david_camer.png","FALSE","pictures/stimuli/E","pictures/stimuli/P","F","M","4","58061b34c7b1100001138a1e","10/17/2022, 10:24:06",-0.174124826695548,"32","Male","right",1,1,0,0,FALSE,"E_F_Sarah_Millican.png P_M_david_camer.png"
1844,"E_M_Ewan_McGregor.png","P_M_keir_starmer.png","FALSE","pictures/stimuli/E","pictures/stimuli/P","M","M","3","58061b34c7b1100001138a1e","10/17/2022, 10:24:06",-1.24134150644246,"32","Male","right",1,1,0,0,FALSE,"E_M_Ewan_McGregor.png P_M_keir_starmer.png"
1727,"P_M_jeremy_corbyn.png","P_M_Sajid_Javid.png","TRUE","pictures/stimuli/P","pictures/stimuli/P","M","M","5","58061b34c7b1100001138a1e","10/17/2022, 10:24:06",0.893091853051362,"32","Male","right",1,0,0,0,TRUE,"P_M_jeremy_corbyn.png P_M_Sajid_Javid.png"
2364,"P_F_nicola_sturge.png","P_M_Gordon_Brown.png","TRUE","pictures/stimuli/P","pictures/stimuli/P","F","M","5","58061b34c7b1100001138a1e","10/17/2022, 10:24:06",0.893091853051362,"32","Male","right",1,1,0,0,FALSE,"P_F_nicola_sturge.png P_M_Gordon_Brown.png"
2254,"E_M_Peter_Kay.png","P_M_Sajid_Javid.png","FALSE","pictures/stimuli/E","pictures/stimuli/P","M","M","5","58061b34c7b1100001138a1e","10/17/2022, 10:24:06",0.893091853051362,"32","Male","right",1,0,0,0,TRUE,"E_M_Peter_Kay.png P_M_Sajid_Javid.png"
2279,"E_F_Dawn_Roma_French.png","E_F_Jennifer_Saunders.png","TRUE","pictures/stimuli/E","pictures/stimuli/E","F","F","3","58061b34c7b1100001138a1e","10/17/2022, 10:24:06",-1.24134150644246,"32","Male","right",1,1,0,0,FALSE,"E_F_Dawn_Roma_French.png E_F_Jennifer_Saunders.png"
2091,"E_F_Sarah_Millican.png","E_M_Russell_Howard.png","TRUE","pictures/stimuli/E","pictures/stimuli/E","F","M","4","58061b34c7b1100001138a1e","10/17/2022, 10:24:06",-0.174124826695548,"32","Male","right",1,1,0,0,FALSE,"E_F_Sarah_Millican.png E_M_Russell_Howard.png"
1566,"E_M_Peter_Kay.png","P_M_nigel_farage.png","FALSE","pictures/stimuli/E","pictures/stimuli/P","M","M","3","58061b34c7b1100001138a1e","10/17/2022, 10:24:06",-1.24134150644246,"32","Male","right",1,1,0,0,FALSE,"E_M_Peter_Kay.png P_M_nigel_farage.png"
6262,"E_F_Julie_Walters.png","E_M_Michael_McIntyr.png","TRUE","pictures/stimuli/E","pictures/stimuli/E","F","M","5","58061b34c7b1100001138a1e","10/17/2022, 10:24:06",0.893091853051362,"32","Male","right",1,1,0,0,FALSE,"E_F_Julie_Walters.png E_M_Michael_McIntyr.png"
4039,"E_F_Dawn_Roma_French.png","E_M_Jimmy_Carr.png","TRUE","pictures/stimuli/E","pictures/stimuli/E","F","M","4","58061b34c7b1100001138a1e","10/17/2022, 10:24:06",-0.174124826695548,"32","Male","right",1,1,0,0,FALSE,"E_F_Dawn_Roma_French.png E_M_Jimmy_Carr.png"
4775,"E_M_Russell_Howard.png","E_M_Simon_Pegg.png","TRUE","pictures/stimuli/E","pictures/stimuli/E","M","M","4","58061b34c7b1100001138a1e","10/17/2022, 10:24:06",-0.174124826695548,"32","Male","right",1,1,0,0,FALSE,"E_M_Russell_Howard.png E_M_Simon_Pegg.png"
2359,"P_M_Gordon_Brown.png","P_M_Tony_Blair(12).png","TRUE","pictures/stimuli/P","pictures/stimuli/P","M","M","3","58061b34c7b1100001138a1e","10/17/2022, 10:24:06",-1.24134150644246,"32","Male","right",1,1,0,0,FALSE,"P_M_Gordon_Brown.png P_M_Tony_Blair(12).png"
1562,"E_F_Sarah_Millican.png","E_M_Michael_McIntyr.png","TRUE","pictures/stimuli/E","pictures/stimuli/E","F","M","5","58061b34c7b1100001138a1e","10/17/2022, 10:24:06",0.893091853051362,"32","Male","right",1,1,0,0,FALSE,"E_F_Sarah_Millican.png E_M_Michael_McIntyr.png"
2199,"P_M_Michael_Gove.png","P_M_Tony_Blair(12).png","TRUE","pictures/stimuli/P","pictures/stimuli/P","M","M","3","58061b34c7b1100001138a1e","10/17/2022, 10:24:06",-1.24134150644246,"32","Male","right",1,1,0,0,FALSE,"P_M_Michael_Gove.png P_M_Tony_Blair(12).png"
2088,"E_M_Russell_Howard.png","P_M_Sajid_Javid.png","FALSE","pictures/stimuli/E","pictures/stimuli/P","M","M","5","58061b34c7b1100001138a1e","10/17/2022, 10:24:06",0.893091853051362,"32","Male","right",1,0,0,0,TRUE,"E_M_Russell_Howard.png P_M_Sajid_Javid.png"
1870,"P_F_nicola_sturge.png","P_M_nigel_farage.png","TRUE","pictures/stimuli/P","pictures/stimuli/P","F","M","5","58061b34c7b1100001138a1e","10/17/2022, 10:24:06",0.893091853051362,"32","Male","right",1,1,0,0,FALSE,"P_F_nicola_sturge.png P_M_nigel_farage.png"
2849,"P_M_Gordon_Brown.png","P_M_Michael_Gove.png","TRUE","pictures/stimuli/P","pictures/stimuli/P","M","M","4","58061b34c7b1100001138a1e","10/17/2022, 10:24:06",-0.174124826695548,"32","Male","right",1,1,0,0,FALSE,"P_M_Gordon_Brown.png P_M_Michael_Gove.png"
2031,"E_M_Michael_McIntyr.png","P_M_david_camer.png","FALSE","pictures/stimuli/E","pictures/stimuli/P","M","M","3","58061b34c7b1100001138a1e","10/17/2022, 10:24:06",-1.24134150644246,"32","Male","right",1,1,0,0,FALSE,"E_M_Michael_McIntyr.png P_M_david_camer.png"
4190,"E_M_Russell_Howard.png","P_F_Theresa_May.png","FALSE","pictures/stimuli/E","pictures/stimuli/P","M","F","5","58061b34c7b1100001138a1e","10/17/2022, 10:24:06",0.893091853051362,"32","Male","right",1,1,0,0,FALSE,"E_M_Russell_Howard.png P_F_Theresa_May.png"
1567,"E_F_Julie_Walters.png","P_M_Gordon_Brown.png","FALSE","pictures/stimuli/E","pictures/stimuli/P","F","M","5","58061b34c7b1100001138a1e","10/17/2022, 10:24:06",0.893091853051362,"32","Male","right",1,1,0,0,FALSE,"E_F_Julie_Walters.png P_M_Gordon_Brown.png"
2802,"P_F_Theresa_May.png","P_M_Sajid_Javid.png","TRUE","pictures/stimuli/P","pictures/stimuli/P","F","M","5","58061b34c7b1100001138a1e","10/17/2022, 10:24:06",0.893091853051362,"32","Male","right",1,0,0,0,TRUE,"P_F_Theresa_May.png P_M_Sajid_Javid.png"
2647,"E_M_Simon_Pegg.png","P_M_Tony_Blair(12).png","FALSE","pictures/stimuli/E","pictures/stimuli/P","M","M","3","58061b34c7b1100001138a1e","10/17/2022, 10:24:06",-1.24134150644246,"32","Male","right",1,1,0,0,FALSE,"E_M_Simon_Pegg.png P_M_Tony_Blair(12).png"
3125,"E_M_Ewan_McGregor.png","P_M_nigel_farage.png","FALSE","pictures/stimuli/E","pictures/stimuli/P","M","M","5","58061b34c7b1100001138a1e","10/17/2022, 10:24:06",0.893091853051362,"32","Male","right",1,1,0,0,FALSE,"E_M_Ewan_McGregor.png P_M_nigel_farage.png"
1743,"E_M_Simon_Pegg.png","P_M_Sajid_Javid.png","FALSE","pictures/stimuli/E","pictures/stimuli/P","M","M","5","58061b34c7b1100001138a1e","10/17/2022, 10:24:06",0.893091853051362,"32","Male","right",1,0,0,0,TRUE,"E_M_Simon_Pegg.png P_M_Sajid_Javid.png"
1624,"P_M_david_camer.png","P_M_Tony_Blair(12).png","TRUE","pictures/stimuli/P","pictures/stimuli/P","M","M","4","58061b34c7b1100001138a1e","10/17/2022, 10:24:06",-0.174124826695548,"32","Male","right",1,1,0,0,FALSE,"P_M_david_camer.png P_M_Tony_Blair(12).png"
1507,"E_M_Peter_Kay.png","E_M_Russell_Howard.png","TRUE","pictures/stimuli/E","pictures/stimuli/E","M","M","5","58061b34c7b1100001138a1e","10/17/2022, 10:24:06",0.893091853051362,"32","Male","right",1,1,0,0,FALSE,"E_M_Peter_Kay.png E_M_Russell_Howard.png"
2243,"E_M_Jimmy_Carr.png","P_F_Theresa_May.png","FALSE","pictures/stimuli/E","pictures/stimuli/P","M","F","4","58061b34c7b1100001138a1e","10/17/2022, 10:24:06",-0.174124826695548,"32","Male","right",1,1,0,0,FALSE,"E_M_Jimmy_Carr.png P_F_Theresa_May.png"
1684,"E_F_Jennifer_Saunders.png","P_M_keir_starmer.png","FALSE","pictures/stimuli/E","pictures/stimuli/P","F","M","5","58061b34c7b1100001138a1e","10/17/2022, 10:24:06",0.893091853051362,"32","Male","right",1,1,0,0,FALSE,"E_F_Jennifer_Saunders.png P_M_keir_starmer.png"
2307,"P_F_nicola_sturge.png","P_M_Tony_Blair(12).png","TRUE","pictures/stimuli/P","pictures/stimuli/P","F","M","4","58061b34c7b1100001138a1e","10/17/2022, 10:24:06",-0.174124826695548,"32","Male","right",1,1,0,0,FALSE,"P_F_nicola_sturge.png P_M_Tony_Blair(12).png"
2022,"E_M_Michael_McIntyr.png","P_M_nigel_farage.png","FALSE","pictures/stimuli/E","pictures/stimuli/P","M","M","3","58061b34c7b1100001138a1e","10/17/2022, 10:24:06",-1.24134150644246,"32","Male","right",1,1,0,0,FALSE,"E_M_Michael_McIntyr.png P_M_nigel_farage.png"
1489,"E_F_Jennifer_Saunders.png","P_M_Tony_Blair(12).png","FALSE","pictures/stimuli/E","pictures/stimuli/P","F","M","5","58061b34c7b1100001138a1e","10/17/2022, 10:24:06",0.893091853051362,"32","Male","right",1,1,0,0,FALSE,"E_F_Jennifer_Saunders.png P_M_Tony_Blair(12).png"
1923,"E_M_Ewan_McGregor.png","P_F_Theresa_May.png","FALSE","pictures/stimuli/E","pictures/stimuli/P","M","F","5","58061b34c7b1100001138a1e","10/17/2022, 10:24:06",0.893091853051362,"32","Male","right",1,1,0,0,FALSE,"E_M_Ewan_McGregor.png P_F_Theresa_May.png"
1835,"P_M_Michael_Gove.png","P_M_Sajid_Javid.png","TRUE","pictures/stimuli/P","pictures/stimuli/P","M","M","4","58061b34c7b1100001138a1e","10/17/2022, 10:24:06",-0.174124826695548,"32","Male","right",1,0,0,0,TRUE,"P_M_Michael_Gove.png P_M_Sajid_Javid.png"
4963,"E_M_Jimmy_Carr.png","E_M_Peter_Kay.png","TRUE","pictures/stimuli/E","pictures/stimuli/E","M","M","3","58061b34c7b1100001138a1e","10/17/2022, 10:24:06",-1.24134150644246,"32","Male","right",1,1,0,0,FALSE,"E_M_Jimmy_Carr.png E_M_Peter_Kay.png"
3354,"E_F_Dawn_Roma_French.png","E_M_Peter_Kay.png","TRUE","pictures/stimuli/E","pictures/stimuli/E","F","M","4","58061b34c7b1100001138a1e","10/17/2022, 10:24:06",-0.174124826695548,"32","Male","right",1,1,0,0,FALSE,"E_F_Dawn_Roma_French.png E_M_Peter_Kay.png"
1431,"E_F_Jennifer_Saunders.png","E_M_Michael_McIntyr.png","TRUE","pictures/stimuli/E","pictures/stimuli/E","F","M","5","58061b34c7b1100001138a1e","10/17/2022, 10:24:06",0.893091853051362,"32","Male","right",1,1,0,0,FALSE,"E_F_Jennifer_Saunders.png E_M_Michael_McIntyr.png"
2828,"P_F_Theresa_May.png","P_M_Gordon_Brown.png","TRUE","pictures/stimuli/P","pictures/stimuli/P","F","M","4","58061b34c7b1100001138a1e","10/17/2022, 10:24:06",-0.174124826695548,"32","Male","right",1,1,0,0,FALSE,"P_F_Theresa_May.png P_M_Gordon_Brown.png"
1751,"E_F_Dawn_Roma_French.png","E_M_Russell_Howard.png","TRUE","pictures/stimuli/E","pictures/stimuli/E","F","M","5","58061b34c7b1100001138a1e","10/17/2022, 10:24:06",0.893091853051362,"32","Male","right",1,1,0,0,FALSE,"E_F_Dawn_Roma_French.png E_M_Russell_Howard.png"
1454,"P_M_Gordon_Brown.png","P_M_Sajid_Javid.png","TRUE","pictures/stimuli/P","pictures/stimuli/P","M","M","5","58061b34c7b1100001138a1e","10/17/2022, 10:24:06",0.893091853051362,"32","Male","right",1,0,0,0,TRUE,"P_M_Gordon_Brown.png P_M_Sajid_Javid.png"
2178,"E_F_Sarah_Millican.png","P_M_Sajid_Javid.png","FALSE","pictures/stimuli/E","pictures/stimuli/P","F","M","4","58061b34c7b1100001138a1e","10/17/2022, 10:24:06",-0.174124826695548,"32","Male","right",1,0,0,0,TRUE,"E_F_Sarah_Millican.png P_M_Sajid_Javid.png"
2351,"E_F_Dawn_Roma_French.png","P_M_Gordon_Brown.png","FALSE","pictures/stimuli/E","pictures/stimuli/P","F","M","5","58061b34c7b1100001138a1e","10/17/2022, 10:24:06",0.893091853051362,"32","Male","right",1,1,0,0,FALSE,"E_F_Dawn_Roma_French.png P_M_Gordon_Brown.png"
4116,"E_M_Simon_Pegg.png","P_M_nigel_farage.png","FALSE","pictures/stimuli/E","pictures/stimuli/P","M","M","3","58061b34c7b1100001138a1e","10/17/2022, 10:24:06",-1.24134150644246,"32","Male","right",1,1,0,0,FALSE,"E_M_Simon_Pegg.png P_M_nigel_farage.png"
3173,"E_F_Jennifer_Saunders.png","P_M_nigel_farage.png","FALSE","pictures/stimuli/E","pictures/stimuli/P","F","M","6","58061b34c7b1100001138a1e","10/17/2022, 10:24:06",1.96030853279827,"32","Male","right",1,1,0,0,FALSE,"E_F_Jennifer_Saunders.png P_M_nigel_farage.png"
3258,"P_M_keir_starmer.png","P_M_Michael_Gove.png","TRUE","pictures/stimuli/P","pictures/stimuli/P","M","M","5","58061b34c7b1100001138a1e","10/17/2022, 10:24:06",0.893091853051362,"32","Male","right",1,1,0,0,FALSE,"P_M_keir_starmer.png P_M_Michael_Gove.png"
2130,"E_M_Peter_Kay.png","P_M_Tony_Blair(12).png","FALSE","pictures/stimuli/E","pictures/stimuli/P","M","M","5","58061b34c7b1100001138a1e","10/17/2022, 10:24:06",0.893091853051362,"32","Male","right",1,1,0,0,FALSE,"E_M_Peter_Kay.png P_M_Tony_Blair(12).png"
4733,"E_M_Russell_Howard.png","P_F_nicola_sturge.png","FALSE","pictures/stimuli/E","pictures/stimuli/P","M","F","4","58061b34c7b1100001138a1e","10/17/2022, 10:24:06",-0.174124826695548,"32","Male","right",1,1,0,0,FALSE,"E_M_Russell_Howard.png P_F_nicola_sturge.png"
2743,"E_M_Ewan_McGregor.png","E_M_Jimmy_Carr.png","TRUE","pictures/stimuli/E","pictures/stimuli/E","M","M","5","58061b34c7b1100001138a1e","10/17/2022, 10:24:06",0.893091853051362,"32","Male","right",1,1,0,0,FALSE,"E_M_Ewan_McGregor.png E_M_Jimmy_Carr.png"
5295,"E_F_Jennifer_Saunders.png","P_M_Michael_Gove.png","FALSE","pictures/stimuli/E","pictures/stimuli/P","F","M","5","58061b34c7b1100001138a1e","10/17/2022, 10:24:06",0.893091853051362,"32","Male","right",1,1,0,0,FALSE,"E_F_Jennifer_Saunders.png P_M_Michael_Gove.png"
2080,"E_F_Dawn_Roma_French.png","P_M_Tony_Blair(12).png","FALSE","pictures/stimuli/E","pictures/stimuli/P","F","M","5","58061b34c7b1100001138a1e","10/17/2022, 10:24:06",0.893091853051362,"32","Male","right",1,1,0,0,FALSE,"E_F_Dawn_Roma_French.png P_M_Tony_Blair(12).png"
2214,"E_F_Jennifer_Saunders.png","P_F_nicola_sturge.png","FALSE","pictures/stimuli/E","pictures/stimuli/P","F","F","4","58061b34c7b1100001138a1e","10/17/2022, 10:24:06",-0.174124826695548,"32","Male","right",1,1,0,0,FALSE,"E_F_Jennifer_Saunders.png P_F_nicola_sturge.png"
7665,"E_F_Jennifer_Saunders.png","E_M_Russell_Howard.png","TRUE","pictures/stimuli/E","pictures/stimuli/E","F","M","3","58061b34c7b1100001138a1e","10/17/2022, 10:24:06",-1.24134150644246,"32","Male","right",1,1,0,0,FALSE,"E_F_Jennifer_Saunders.png E_M_Russell_Howard.png"
1967,"E_F_Jennifer_Saunders.png","P_F_Theresa_May.png","FALSE","pictures/stimuli/E","pictures/stimuli/P","F","F","4","58061b34c7b1100001138a1e","10/17/2022, 10:24:06",-0.174124826695548,"32","Male","right",1,1,0,0,FALSE,"E_F_Jennifer_Saunders.png P_F_Theresa_May.png"
1643,"E_M_Michael_McIntyr.png","E_M_Russell_Howard.png","TRUE","pictures/stimuli/E","pictures/stimuli/E","M","M","4","58061b34c7b1100001138a1e","10/17/2022, 10:24:06",-0.174124826695548,"32","Male","right",1,1,0,0,FALSE,"E_M_Michael_McIntyr.png E_M_Russell_Howard.png"
3407,"E_M_Jimmy_Carr.png","E_M_Russell_Howard.png","TRUE","pictures/stimuli/E","pictures/stimuli/E","M","M","4","58061b34c7b1100001138a1e","10/17/2022, 10:24:06",-0.174124826695548,"32","Male","right",1,1,0,0,FALSE,"E_M_Jimmy_Carr.png E_M_Russell_Howard.png"
2824,"E_F_Jennifer_Saunders.png","E_M_Peter_Kay.png","TRUE","pictures/stimuli/E","pictures/stimuli/E","F","M","5","58061b34c7b1100001138a1e","10/17/2022, 10:24:06",0.893091853051362,"32","Male","right",1,1,0,0,FALSE,"E_F_Jennifer_Saunders.png E_M_Peter_Kay.png"
1592,"E_F_Julie_Walters.png","E_M_Ewan_McGregor.png","TRUE","pictures/stimuli/E","pictures/stimuli/E","F","M","5","58061b34c7b1100001138a1e","10/17/2022, 10:24:06",0.893091853051362,"32","Male","right",1,1,0,0,FALSE,"E_F_Julie_Walters.png E_M_Ewan_McGregor.png"
3703,"P_M_nigel_farage.png","P_M_Tony_Blair(12).png","TRUE","pictures/stimuli/P","pictures/stimuli/P","M","M","4","58061b34c7b1100001138a1e","10/17/2022, 10:24:06",-0.174124826695548,"32","Male","right",1,1,0,0,FALSE,"P_M_nigel_farage.png P_M_Tony_Blair(12).png"
1484,"E_F_Julie_Walters.png","P_M_Michael_Gove.png","FALSE","pictures/stimuli/E","pictures/stimuli/P","F","M","5","58061b34c7b1100001138a1e","10/17/2022, 10:24:06",0.893091853051362,"32","Male","right",1,1,0,0,FALSE,"E_F_Julie_Walters.png P_M_Michael_Gove.png"
2199,"E_M_Russell_Howard.png","P_M_Michael_Gove.png","FALSE","pictures/stimuli/E","pictures/stimuli/P","M","M","4","58061b34c7b1100001138a1e","10/17/2022, 10:24:06",-0.174124826695548,"32","Male","right",1,1,0,0,FALSE,"E_M_Russell_Howard.png P_M_Michael_Gove.png"
2311,"E_M_Simon_Pegg.png","P_F_Theresa_May.png","FALSE","pictures/stimuli/E","pictures/stimuli/P","M","F","4","58061b34c7b1100001138a1e","10/17/2022, 10:24:06",-0.174124826695548,"32","Male","right",1,1,0,0,FALSE,"E_M_Simon_Pegg.png P_F_Theresa_May.png"
2239,"E_F_Jennifer_Saunders.png","P_M_jeremy_corbyn.png","FALSE","pictures/stimuli/E","pictures/stimuli/P","F","M","5","58061b34c7b1100001138a1e","10/17/2022, 10:24:06",0.893091853051362,"32","Male","right",1,1,0,0,FALSE,"E_F_Jennifer_Saunders.png P_M_jeremy_corbyn.png"
2351,"E_F_Sarah_Millican.png","P_M_Gordon_Brown.png","FALSE","pictures/stimuli/E","pictures/stimuli/P","F","M","5","58061b34c7b1100001138a1e","10/17/2022, 10:24:06",0.893091853051362,"32","Male","right",1,1,0,0,FALSE,"E_F_Sarah_Millican.png P_M_Gordon_Brown.png"
3400,"P_M_Gordon_Brown.png","P_M_nigel_farage.png","TRUE","pictures/stimuli/P","pictures/stimuli/P","M","M","4","58061b34c7b1100001138a1e","10/17/2022, 10:24:06",-0.174124826695548,"32","Male","right",1,1,0,0,FALSE,"P_M_Gordon_Brown.png P_M_nigel_farage.png"
1992,"P_F_Theresa_May.png","P_M_jeremy_corbyn.png","TRUE","pictures/stimuli/P","pictures/stimuli/P","F","M","5","58061b34c7b1100001138a1e","10/17/2022, 10:24:06",0.893091853051362,"32","Male","right",1,1,0,0,FALSE,"P_F_Theresa_May.png P_M_jeremy_corbyn.png"
4004,"E_M_Ewan_McGregor.png","E_M_Peter_Kay.png","TRUE","pictures/stimuli/E","pictures/stimuli/E","M","M","5","58061b34c7b1100001138a1e","10/17/2022, 10:24:06",0.893091853051362,"32","Male","right",1,1,0,0,FALSE,"E_M_Ewan_McGregor.png E_M_Peter_Kay.png"
3254,"E_F_Sarah_Millican.png","P_M_jeremy_corbyn.png","FALSE","pictures/stimuli/E","pictures/stimuli/P","F","M","5","58061b34c7b1100001138a1e","10/17/2022, 10:24:06",0.893091853051362,"32","Male","right",1,1,0,0,FALSE,"E_F_Sarah_Millican.png P_M_jeremy_corbyn.png"
1927,"E_F_Jennifer_Saunders.png","E_M_Jimmy_Carr.png","TRUE","pictures/stimuli/E","pictures/stimuli/E","F","M","5","58061b34c7b1100001138a1e","10/17/2022, 10:24:06",0.893091853051362,"32","Male","right",1,1,0,0,FALSE,"E_F_Jennifer_Saunders.png E_M_Jimmy_Carr.png"
3295,"E_F_Dawn_Roma_French.png","P_F_nicola_sturge.png","FALSE","pictures/stimuli/E","pictures/stimuli/P","F","F","4","58061b34c7b1100001138a1e","10/17/2022, 10:24:06",-0.174124826695548,"32","Male","right",1,1,0,0,FALSE,"E_F_Dawn_Roma_French.png P_F_nicola_sturge.png"
1863,"E_F_Dawn_Roma_French.png","E_M_Ewan_McGregor.png","TRUE","pictures/stimuli/E","pictures/stimuli/E","F","M","5","58061b34c7b1100001138a1e","10/17/2022, 10:24:06",0.893091853051362,"32","Male","right",1,1,0,0,FALSE,"E_F_Dawn_Roma_French.png E_M_Ewan_McGregor.png"
3967,"E_F_Dawn_Roma_French.png","E_F_Julie_Walters.png","TRUE","pictures/stimuli/E","pictures/stimuli/E","F","F","4","58061b34c7b1100001138a1e","10/17/2022, 10:24:06",-0.174124826695548,"32","Male","right",1,1,0,0,FALSE,"E_F_Dawn_Roma_French.png E_F_Julie_Walters.png"
2025,"E_M_Ewan_McGregor.png","P_M_Sajid_Javid.png","FALSE","pictures/stimuli/E","pictures/stimuli/P","M","M","5","58061b34c7b1100001138a1e","10/17/2022, 10:24:06",0.893091853051362,"32","Male","right",1,0,0,0,TRUE,"E_M_Ewan_McGregor.png P_M_Sajid_Javid.png"
2847,"P_M_david_camer.png","P_M_keir_starmer.png","TRUE","pictures/stimuli/P","pictures/stimuli/P","M","M","3","58061b34c7b1100001138a1e","10/17/2022, 10:24:06",-1.24134150644246,"32","Male","right",1,1,0,0,FALSE,"P_M_david_camer.png P_M_keir_starmer.png"
2117,"E_M_Peter_Kay.png","P_M_keir_starmer.png","FALSE","pictures/stimuli/E","pictures/stimuli/P","M","M","3","58061b34c7b1100001138a1e","10/17/2022, 10:24:06",-1.24134150644246,"32","Male","right",1,1,0,0,FALSE,"E_M_Peter_Kay.png P_M_keir_starmer.png"
1703,"E_M_Simon_Pegg.png","P_M_Gordon_Brown.png","FALSE","pictures/stimuli/E","pictures/stimuli/P","M","M","3","58061b34c7b1100001138a1e","10/17/2022, 10:24:06",-1.24134150644246,"32","Male","right",1,1,0,0,FALSE,"E_M_Simon_Pegg.png P_M_Gordon_Brown.png"
1647,"E_M_Russell_Howard.png","P_M_Tony_Blair(12).png","FALSE","pictures/stimuli/E","pictures/stimuli/P","M","M","3","58061b34c7b1100001138a1e","10/17/2022, 10:24:06",-1.24134150644246,"32","Male","right",1,1,0,0,FALSE,"E_M_Russell_Howard.png P_M_Tony_Blair(12).png"
1871,"P_M_Michael_Gove.png","P_M_nigel_farage.png","TRUE","pictures/stimuli/P","pictures/stimuli/P","M","M","3","58061b34c7b1100001138a1e","10/17/2022, 10:24:06",-1.24134150644246,"32","Male","right",1,1,0,0,FALSE,"P_M_Michael_Gove.png P_M_nigel_farage.png"
3050,"E_M_Michael_McIntyr.png","P_M_Gordon_Brown.png","FALSE","pictures/stimuli/E","pictures/stimuli/P","M","M","3","58061b34c7b1100001138a1e","10/17/2022, 10:24:06",-1.24134150644246,"32","Male","right",1,1,0,0,FALSE,"E_M_Michael_McIntyr.png P_M_Gordon_Brown.png"
1402,"E_F_Dawn_Roma_French.png","P_F_Theresa_May.png","FALSE","pictures/stimuli/E","pictures/stimuli/P","F","F","4","58061b34c7b1100001138a1e","10/17/2022, 10:24:06",-0.174124826695548,"32","Male","right",1,1,0,0,FALSE,"E_F_Dawn_Roma_French.png P_F_Theresa_May.png"
1487,"E_M_Michael_McIntyr.png","P_M_Sajid_Javid.png","FALSE","pictures/stimuli/E","pictures/stimuli/P","M","M","4","58061b34c7b1100001138a1e","10/17/2022, 10:24:06",-0.174124826695548,"32","Male","right",1,0,0,0,TRUE,"E_M_Michael_McIntyr.png P_M_Sajid_Javid.png"
2327,"E_F_Julie_Walters.png","E_M_Simon_Pegg.png","TRUE","pictures/stimuli/E","pictures/stimuli/E","F","M","5","58061b34c7b1100001138a1e","10/17/2022, 10:24:06",0.893091853051362,"32","Male","right",1,1,0,0,FALSE,"E_F_Julie_Walters.png E_M_Simon_Pegg.png"
1948,"P_F_nicola_sturge.png","P_M_keir_starmer.png","TRUE","pictures/stimuli/P","pictures/stimuli/P","F","M","3","58061b34c7b1100001138a1e","10/17/2022, 10:24:06",-1.24134150644246,"32","Male","right",1,1,0,0,FALSE,"P_F_nicola_sturge.png P_M_keir_starmer.png"
2023,"P_F_nicola_sturge.png","P_M_david_camer.png","TRUE","pictures/stimuli/P","pictures/stimuli/P","F","M","4","58061b34c7b1100001138a1e","10/17/2022, 10:24:06",-0.174124826695548,"32","Male","right",1,1,0,0,FALSE,"P_F_nicola_sturge.png P_M_david_camer.png"
2270,"E_M_Jimmy_Carr.png","P_M_david_camer.png","FALSE","pictures/stimuli/E","pictures/stimuli/P","M","M","4","58061b34c7b1100001138a1e","10/17/2022, 10:24:06",-0.174124826695548,"32","Male","right",1,1,0,0,FALSE,"E_M_Jimmy_Carr.png P_M_david_camer.png"
3308,"E_F_Julie_Walters.png","P_F_nicola_sturge.png","FALSE","pictures/stimuli/E","pictures/stimuli/P","F","F","4","58061b34c7b1100001138a1e","10/17/2022, 10:24:06",-0.174124826695548,"32","Male","right",1,1,0,0,FALSE,"E_F_Julie_Walters.png P_F_nicola_sturge.png"
1606,"E_F_Sarah_Millican.png","E_M_Ewan_McGregor.png","TRUE","pictures/stimuli/E","pictures/stimuli/E","F","M","5","58061b34c7b1100001138a1e","10/17/2022, 10:24:06",0.893091853051362,"32","Male","right",1,1,0,0,FALSE,"E_F_Sarah_Millican.png E_M_Ewan_McGregor.png"
1333,"P_F_nicola_sturge.png","P_M_Sajid_Javid.png","TRUE","pictures/stimuli/P","pictures/stimuli/P","F","M","5","58061b34c7b1100001138a1e","10/17/2022, 10:24:06",0.893091853051362,"32","Male","right",1,0,0,0,TRUE,"P_F_nicola_sturge.png P_M_Sajid_Javid.png"
2482,"P_F_Theresa_May.png","P_M_nigel_farage.png","TRUE","pictures/stimuli/P","pictures/stimuli/P","F","M","5","58061b34c7b1100001138a1e","10/17/2022, 10:24:06",0.893091853051362,"32","Male","right",1,1,0,0,FALSE,"P_F_Theresa_May.png P_M_nigel_farage.png"
1700,"E_M_Jimmy_Carr.png","P_F_nicola_sturge.png","FALSE","pictures/stimuli/E","pictures/stimuli/P","M","F","4","58061b34c7b1100001138a1e","10/17/2022, 10:24:06",-0.174124826695548,"32","Male","right",1,1,0,0,FALSE,"E_M_Jimmy_Carr.png P_F_nicola_sturge.png"
6102,"P_F_Theresa_May.png","P_M_david_camer.png","TRUE","pictures/stimuli/P","pictures/stimuli/P","F","M","6","5a5926b876d1c60001ab1ed7","10/17/2022, 10:11:56",0.63176038291334,"27","Female","left",1,1,0,0,FALSE,"P_F_Theresa_May.png P_M_david_camer.png"
3080,"E_F_Julie_Walters.png","P_M_nigel_farage.png","FALSE","pictures/stimuli/E","pictures/stimuli/P","F","M","6","5a5926b876d1c60001ab1ed7","10/17/2022, 10:11:56",0.63176038291334,"27","Female","left",1,1,0,0,FALSE,"E_F_Julie_Walters.png P_M_nigel_farage.png"
5986,"E_F_Julie_Walters.png","E_F_Sarah_Millican.png","TRUE","pictures/stimuli/E","pictures/stimuli/E","F","F","5","5a5926b876d1c60001ab1ed7","10/17/2022, 10:11:56",-0.5336228477035,"27","Female","left",1,0,0,0,TRUE,"E_F_Julie_Walters.png E_F_Sarah_Millican.png"
4132,"E_F_Julie_Walters.png","P_M_Gordon_Brown.png","FALSE","pictures/stimuli/E","pictures/stimuli/P","F","M","6","5a5926b876d1c60001ab1ed7","10/17/2022, 10:11:56",0.63176038291334,"27","Female","left",1,1,0,0,FALSE,"E_F_Julie_Walters.png P_M_Gordon_Brown.png"
4942,"E_M_Russell_Howard.png","P_M_jeremy_corbyn.png","FALSE","pictures/stimuli/E","pictures/stimuli/P","M","M","3","5a5926b876d1c60001ab1ed7","10/17/2022, 10:11:56",-2.86438930893718,"27","Female","left",1,0,0,0,TRUE,"E_M_Russell_Howard.png P_M_jeremy_corbyn.png"
2947,"E_F_Sarah_Millican.png","P_M_keir_starmer.png","FALSE","pictures/stimuli/E","pictures/stimuli/P","F","M","6","5a5926b876d1c60001ab1ed7","10/17/2022, 10:11:56",0.63176038291334,"27","Female","left",0,1,0,0,TRUE,"E_F_Sarah_Millican.png P_M_keir_starmer.png"
5943,"P_M_Gordon_Brown.png","P_M_Tony_Blair(12).png","TRUE","pictures/stimuli/P","pictures/stimuli/P","M","M","6","5a5926b876d1c60001ab1ed7","10/17/2022, 10:11:56",0.63176038291334,"27","Female","left",1,1,0,0,FALSE,"P_M_Gordon_Brown.png P_M_Tony_Blair(12).png"
4375,"E_F_Julie_Walters.png","P_M_david_camer.png","FALSE","pictures/stimuli/E","pictures/stimuli/P","F","M","5","5a5926b876d1c60001ab1ed7","10/17/2022, 10:11:56",-0.5336228477035,"27","Female","left",1,1,0,0,FALSE,"E_F_Julie_Walters.png P_M_david_camer.png"
3786,"E_F_Dawn_Roma_French.png","P_M_keir_starmer.png","FALSE","pictures/stimuli/E","pictures/stimuli/P","F","M","4","5a5926b876d1c60001ab1ed7","10/17/2022, 10:11:56",-1.69900607832034,"27","Female","left",1,1,0,0,FALSE,"E_F_Dawn_Roma_French.png P_M_keir_starmer.png"
3720,"E_M_Ewan_McGregor.png","P_M_Michael_Gove.png","FALSE","pictures/stimuli/E","pictures/stimuli/P","M","M","5","5a5926b876d1c60001ab1ed7","10/17/2022, 10:11:56",-0.5336228477035,"27","Female","left",1,1,0,0,FALSE,"E_M_Ewan_McGregor.png P_M_Michael_Gove.png"
4714,"E_F_Jennifer_Saunders.png","P_M_Gordon_Brown.png","FALSE","pictures/stimuli/E","pictures/stimuli/P","F","M","5","5a5926b876d1c60001ab1ed7","10/17/2022, 10:11:56",-0.5336228477035,"27","Female","left",1,1,0,0,FALSE,"E_F_Jennifer_Saunders.png P_M_Gordon_Brown.png"
3058,"E_M_Ewan_McGregor.png","P_F_Theresa_May.png","FALSE","pictures/stimuli/E","pictures/stimuli/P","M","F","6","5a5926b876d1c60001ab1ed7","10/17/2022, 10:11:56",0.63176038291334,"27","Female","left",1,1,0,0,FALSE,"E_M_Ewan_McGregor.png P_F_Theresa_May.png"
3177,"E_F_Jennifer_Saunders.png","E_F_Sarah_Millican.png","TRUE","pictures/stimuli/E","pictures/stimuli/E","F","F","4","5a5926b876d1c60001ab1ed7","10/17/2022, 10:11:56",-1.69900607832034,"27","Female","left",1,0,0,0,TRUE,"E_F_Jennifer_Saunders.png E_F_Sarah_Millican.png"
5008,"E_M_Ewan_McGregor.png","P_M_jeremy_corbyn.png","FALSE","pictures/stimuli/E","pictures/stimuli/P","M","M","5","5a5926b876d1c60001ab1ed7","10/17/2022, 10:11:56",-0.5336228477035,"27","Female","left",1,0,0,0,TRUE,"E_M_Ewan_McGregor.png P_M_jeremy_corbyn.png"
2690,"E_M_Ewan_McGregor.png","P_M_nigel_farage.png","FALSE","pictures/stimuli/E","pictures/stimuli/P","M","M","6","5a5926b876d1c60001ab1ed7","10/17/2022, 10:11:56",0.63176038291334,"27","Female","left",1,1,0,0,FALSE,"E_M_Ewan_McGregor.png P_M_nigel_farage.png"
5798,"E_F_Julie_Walters.png","E_M_Jimmy_Carr.png","TRUE","pictures/stimuli/E","pictures/stimuli/E","F","M","4","5a5926b876d1c60001ab1ed7","10/17/2022, 10:11:56",-1.69900607832034,"27","Female","left",1,1,0,0,FALSE,"E_F_Julie_Walters.png E_M_Jimmy_Carr.png"
3133,"E_F_Dawn_Roma_French.png","P_F_Theresa_May.png","FALSE","pictures/stimuli/E","pictures/stimuli/P","F","F","6","5a5926b876d1c60001ab1ed7","10/17/2022, 10:11:56",0.63176038291334,"27","Female","left",1,1,0,0,FALSE,"E_F_Dawn_Roma_French.png P_F_Theresa_May.png"
3302,"E_F_Jennifer_Saunders.png","P_M_Tony_Blair(12).png","FALSE","pictures/stimuli/E","pictures/stimuli/P","F","M","5","5a5926b876d1c60001ab1ed7","10/17/2022, 10:11:56",-0.5336228477035,"27","Female","left",1,1,0,0,FALSE,"E_F_Jennifer_Saunders.png P_M_Tony_Blair(12).png"
4567,"E_M_Ewan_McGregor.png","E_M_Jimmy_Carr.png","TRUE","pictures/stimuli/E","pictures/stimuli/E","M","M","4","5a5926b876d1c60001ab1ed7","10/17/2022, 10:11:56",-1.69900607832034,"27","Female","left",1,1,0,0,FALSE,"E_M_Ewan_McGregor.png E_M_Jimmy_Carr.png"
2729,"E_F_Dawn_Roma_French.png","E_F_Jennifer_Saunders.png","TRUE","pictures/stimuli/E","pictures/stimuli/E","F","F","3","5a5926b876d1c60001ab1ed7","10/17/2022, 10:11:56",-2.86438930893718,"27","Female","left",1,1,0,0,FALSE,"E_F_Dawn_Roma_French.png E_F_Jennifer_Saunders.png"
3036,"E_F_Jennifer_Saunders.png","P_M_jeremy_corbyn.png","FALSE","pictures/stimuli/E","pictures/stimuli/P","F","M","6","5a5926b876d1c60001ab1ed7","10/17/2022, 10:11:56",0.63176038291334,"27","Female","left",1,0,0,0,TRUE,"E_F_Jennifer_Saunders.png P_M_jeremy_corbyn.png"
2773,"E_F_Dawn_Roma_French.png","P_M_Sajid_Javid.png","FALSE","pictures/stimuli/E","pictures/stimuli/P","F","M","6","5a5926b876d1c60001ab1ed7","10/17/2022, 10:11:56",0.63176038291334,"27","Female","left",1,1,0,0,FALSE,"E_F_Dawn_Roma_French.png P_M_Sajid_Javid.png"
2780,"E_F_Julie_Walters.png","P_M_Sajid_Javid.png","FALSE","pictures/stimuli/E","pictures/stimuli/P","F","M","6","5a5926b876d1c60001ab1ed7","10/17/2022, 10:11:56",0.63176038291334,"27","Female","left",1,1,0,0,FALSE,"E_F_Julie_Walters.png P_M_Sajid_Javid.png"
3641,"P_M_Michael_Gove.png","P_M_nigel_farage.png","TRUE","pictures/stimuli/P","pictures/stimuli/P","M","M","4","5a5926b876d1c60001ab1ed7","10/17/2022, 10:11:56",-1.69900607832034,"27","Female","left",1,1,0,0,FALSE,"P_M_Michael_Gove.png P_M_nigel_farage.png"
2236,"E_F_Julie_Walters.png","P_M_keir_starmer.png","FALSE","pictures/stimuli/E","pictures/stimuli/P","F","M","6","5a5926b876d1c60001ab1ed7","10/17/2022, 10:11:56",0.63176038291334,"27","Female","left",1,1,0,0,FALSE,"E_F_Julie_Walters.png P_M_keir_starmer.png"
4244,"E_F_Sarah_Millican.png","E_M_Peter_Kay.png","TRUE","pictures/stimuli/E","pictures/stimuli/E","F","M","6","5a5926b876d1c60001ab1ed7","10/17/2022, 10:11:56",0.63176038291334,"27","Female","left",0,1,0,0,TRUE,"E_F_Sarah_Millican.png E_M_Peter_Kay.png"
2853,"E_F_Dawn_Roma_French.png","E_M_Simon_Pegg.png","TRUE","pictures/stimuli/E","pictures/stimuli/E","F","M","6","5a5926b876d1c60001ab1ed7","10/17/2022, 10:11:56",0.63176038291334,"27","Female","left",1,1,0,0,FALSE,"E_F_Dawn_Roma_French.png E_M_Simon_Pegg.png"
2139,"E_F_Sarah_Millican.png","P_M_Sajid_Javid.png","FALSE","pictures/stimuli/E","pictures/stimuli/P","F","M","6","5a5926b876d1c60001ab1ed7","10/17/2022, 10:11:56",0.63176038291334,"27","Female","left",0,1,0,0,TRUE,"E_F_Sarah_Millican.png P_M_Sajid_Javid.png"
2905,"E_F_Sarah_Millican.png","E_M_Jimmy_Carr.png","TRUE","pictures/stimuli/E","pictures/stimuli/E","F","M","6","5a5926b876d1c60001ab1ed7","10/17/2022, 10:11:56",0.63176038291334,"27","Female","left",0,1,0,0,TRUE,"E_F_Sarah_Millican.png E_M_Jimmy_Carr.png"
2676,"E_F_Sarah_Millican.png","P_F_Theresa_May.png","FALSE","pictures/stimuli/E","pictures/stimuli/P","F","F","6","5a5926b876d1c60001ab1ed7","10/17/2022, 10:11:56",0.63176038291334,"27","Female","left",0,1,0,0,TRUE,"E_F_Sarah_Millican.png P_F_Theresa_May.png"
4170,"P_M_Michael_Gove.png","P_M_Sajid_Javid.png","TRUE","pictures/stimuli/P","pictures/stimuli/P","M","M","6","5a5926b876d1c60001ab1ed7","10/17/2022, 10:11:56",0.63176038291334,"27","Female","left",1,1,0,0,FALSE,"P_M_Michael_Gove.png P_M_Sajid_Javid.png"
2574,"E_M_Russell_Howard.png","P_M_Sajid_Javid.png","FALSE","pictures/stimuli/E","pictures/stimuli/P","M","M","6","5a5926b876d1c60001ab1ed7","10/17/2022, 10:11:56",0.63176038291334,"27","Female","left",1,1,0,0,FALSE,"E_M_Russell_Howard.png P_M_Sajid_Javid.png"
6075,"E_M_Michael_McIntyr.png","P_F_nicola_sturge.png","FALSE","pictures/stimuli/E","pictures/stimuli/P","M","F","3","5a5926b876d1c60001ab1ed7","10/17/2022, 10:11:56",-2.86438930893718,"27","Female","left",1,1,0,0,FALSE,"E_M_Michael_McIntyr.png P_F_nicola_sturge.png"
3589,"E_M_Simon_Pegg.png","P_M_Sajid_Javid.png","FALSE","pictures/stimuli/E","pictures/stimuli/P","M","M","5","5a5926b876d1c60001ab1ed7","10/17/2022, 10:11:56",-0.5336228477035,"27","Female","left",1,1,0,0,FALSE,"E_M_Simon_Pegg.png P_M_Sajid_Javid.png"
4707,"E_M_Jimmy_Carr.png","P_M_Michael_Gove.png","FALSE","pictures/stimuli/E","pictures/stimuli/P","M","M","5","5a5926b876d1c60001ab1ed7","10/17/2022, 10:11:56",-0.5336228477035,"27","Female","left",1,1,0,0,FALSE,"E_M_Jimmy_Carr.png P_M_Michael_Gove.png"
2581,"P_F_nicola_sturge.png","P_M_david_camer.png","TRUE","pictures/stimuli/P","pictures/stimuli/P","F","M","4","5a5926b876d1c60001ab1ed7","10/17/2022, 10:11:56",-1.69900607832034,"27","Female","left",1,1,0,0,FALSE,"P_F_nicola_sturge.png P_M_david_camer.png"
2610,"E_M_Michael_McIntyr.png","P_M_jeremy_corbyn.png","FALSE","pictures/stimuli/E","pictures/stimuli/P","M","M","6","5a5926b876d1c60001ab1ed7","10/17/2022, 10:11:56",0.63176038291334,"27","Female","left",1,0,0,0,TRUE,"E_M_Michael_McIntyr.png P_M_jeremy_corbyn.png"
6201,"E_M_Simon_Pegg.png","P_M_keir_starmer.png","FALSE","pictures/stimuli/E","pictures/stimuli/P","M","M","4","5a5926b876d1c60001ab1ed7","10/17/2022, 10:11:56",-1.69900607832034,"27","Female","left",1,1,0,0,FALSE,"E_M_Simon_Pegg.png P_M_keir_starmer.png"
2243,"P_F_nicola_sturge.png","P_M_Tony_Blair(12).png","TRUE","pictures/stimuli/P","pictures/stimuli/P","F","M","6","5a5926b876d1c60001ab1ed7","10/17/2022, 10:11:56",0.63176038291334,"27","Female","left",1,1,0,0,FALSE,"P_F_nicola_sturge.png P_M_Tony_Blair(12).png"
3699,"E_M_Jimmy_Carr.png","E_M_Russell_Howard.png","TRUE","pictures/stimuli/E","pictures/stimuli/E","M","M","6","5a5926b876d1c60001ab1ed7","10/17/2022, 10:11:56",0.63176038291334,"27","Female","left",1,1,0,0,FALSE,"E_M_Jimmy_Carr.png E_M_Russell_Howard.png"
4023,"E_F_Dawn_Roma_French.png","P_F_nicola_sturge.png","FALSE","pictures/stimuli/E","pictures/stimuli/P","F","F","5","5a5926b876d1c60001ab1ed7","10/17/2022, 10:11:56",-0.5336228477035,"27","Female","left",1,1,0,0,FALSE,"E_F_Dawn_Roma_French.png P_F_nicola_sturge.png"
4383,"E_M_Jimmy_Carr.png","E_M_Michael_McIntyr.png","TRUE","pictures/stimuli/E","pictures/stimuli/E","M","M","4","5a5926b876d1c60001ab1ed7","10/17/2022, 10:11:56",-1.69900607832034,"27","Female","left",1,1,0,0,FALSE,"E_M_Jimmy_Carr.png E_M_Michael_McIntyr.png"
2376,"E_M_Ewan_McGregor.png","P_M_Gordon_Brown.png","FALSE","pictures/stimuli/E","pictures/stimuli/P","M","M","6","5a5926b876d1c60001ab1ed7","10/17/2022, 10:11:56",0.63176038291334,"27","Female","left",1,1,0,0,FALSE,"E_M_Ewan_McGregor.png P_M_Gordon_Brown.png"
2727,"E_M_Simon_Pegg.png","P_M_Michael_Gove.png","FALSE","pictures/stimuli/E","pictures/stimuli/P","M","M","4","5a5926b876d1c60001ab1ed7","10/17/2022, 10:11:56",-1.69900607832034,"27","Female","left",1,1,0,0,FALSE,"E_M_Simon_Pegg.png P_M_Michael_Gove.png"
2817,"E_M_Peter_Kay.png","P_F_nicola_sturge.png","FALSE","pictures/stimuli/E","pictures/stimuli/P","M","F","4","5a5926b876d1c60001ab1ed7","10/17/2022, 10:11:56",-1.69900607832034,"27","Female","left",1,1,0,0,FALSE,"E_M_Peter_Kay.png P_F_nicola_sturge.png"
5450,"E_M_Russell_Howard.png","P_M_david_camer.png","FALSE","pictures/stimuli/E","pictures/stimuli/P","M","M","3","5a5926b876d1c60001ab1ed7","10/17/2022, 10:11:56",-2.86438930893718,"27","Female","left",1,1,0,0,FALSE,"E_M_Russell_Howard.png P_M_david_camer.png"
2898,"P_M_jeremy_corbyn.png","P_M_Tony_Blair(12).png","TRUE","pictures/stimuli/P","pictures/stimuli/P","M","M","6","5a5926b876d1c60001ab1ed7","10/17/2022, 10:11:56",0.63176038291334,"27","Female","left",0,1,0,0,TRUE,"P_M_jeremy_corbyn.png P_M_Tony_Blair(12).png"
3479,"E_M_Simon_Pegg.png","P_M_david_camer.png","FALSE","pictures/stimuli/E","pictures/stimuli/P","M","M","2","5a5926b876d1c60001ab1ed7","10/17/2022, 10:11:56",-4.02977253955402,"27","Female","left",1,1,0,0,FALSE,"E_M_Simon_Pegg.png P_M_david_camer.png"
2538,"P_F_Theresa_May.png","P_M_Gordon_Brown.png","TRUE","pictures/stimuli/P","pictures/stimuli/P","F","M","6","5a5926b876d1c60001ab1ed7","10/17/2022, 10:11:56",0.63176038291334,"27","Female","left",1,1,0,0,FALSE,"P_F_Theresa_May.png P_M_Gordon_Brown.png"
5428,"E_F_Julie_Walters.png","E_M_Michael_McIntyr.png","TRUE","pictures/stimuli/E","pictures/stimuli/E","F","M","5","5a5926b876d1c60001ab1ed7","10/17/2022, 10:11:56",-0.5336228477035,"27","Female","left",1,1,0,0,FALSE,"E_F_Julie_Walters.png E_M_Michael_McIntyr.png"
2970,"P_F_Theresa_May.png","P_M_keir_starmer.png","TRUE","pictures/stimuli/P","pictures/stimuli/P","F","M","6","5a5926b876d1c60001ab1ed7","10/17/2022, 10:11:56",0.63176038291334,"27","Female","left",1,1,0,0,FALSE,"P_F_Theresa_May.png P_M_keir_starmer.png"
2920,"E_M_Russell_Howard.png","P_F_Theresa_May.png","FALSE","pictures/stimuli/E","pictures/stimuli/P","M","F","6","5a5926b876d1c60001ab1ed7","10/17/2022, 10:11:56",0.63176038291334,"27","Female","left",1,1,0,0,FALSE,"E_M_Russell_Howard.png P_F_Theresa_May.png"
2256,"P_F_Theresa_May.png","P_M_Tony_Blair(12).png","TRUE","pictures/stimuli/P","pictures/stimuli/P","F","M","6","5a5926b876d1c60001ab1ed7","10/17/2022, 10:11:56",0.63176038291334,"27","Female","left",1,1,0,0,FALSE,"P_F_Theresa_May.png P_M_Tony_Blair(12).png"
3612,"E_M_Michael_McIntyr.png","P_M_Gordon_Brown.png","FALSE","pictures/stimuli/E","pictures/stimuli/P","M","M","5","5a5926b876d1c60001ab1ed7","10/17/2022, 10:11:56",-0.5336228477035,"27","Female","left",1,1,0,0,FALSE,"E_M_Michael_McIntyr.png P_M_Gordon_Brown.png"
3030,"P_M_david_camer.png","P_M_keir_starmer.png","TRUE","pictures/stimuli/P","pictures/stimuli/P","M","M","6","5a5926b876d1c60001ab1ed7","10/17/2022, 10:11:56",0.63176038291334,"27","Female","left",1,1,0,0,FALSE,"P_M_david_camer.png P_M_keir_starmer.png"
2198,"P_F_Theresa_May.png","P_M_Sajid_Javid.png","TRUE","pictures/stimuli/P","pictures/stimuli/P","F","M","6","5a5926b876d1c60001ab1ed7","10/17/2022, 10:11:56",0.63176038291334,"27","Female","left",1,1,0,0,FALSE,"P_F_Theresa_May.png P_M_Sajid_Javid.png"
4258,"E_F_Julie_Walters.png","E_M_Russell_Howard.png","TRUE","pictures/stimuli/E","pictures/stimuli/E","F","M","6","5a5926b876d1c60001ab1ed7","10/17/2022, 10:11:56",0.63176038291334,"27","Female","left",1,1,0,0,FALSE,"E_F_Julie_Walters.png E_M_Russell_Howard.png"
3677,"E_M_Ewan_McGregor.png","P_M_david_camer.png","FALSE","pictures/stimuli/E","pictures/stimuli/P","M","M","5","5a5926b876d1c60001ab1ed7","10/17/2022, 10:11:56",-0.5336228477035,"27","Female","left",1,1,0,0,FALSE,"E_M_Ewan_McGregor.png P_M_david_camer.png"
3368,"E_M_Jimmy_Carr.png","P_M_Gordon_Brown.png","FALSE","pictures/stimuli/E","pictures/stimuli/P","M","M","5","5a5926b876d1c60001ab1ed7","10/17/2022, 10:11:56",-0.5336228477035,"27","Female","left",1,1,0,0,FALSE,"E_M_Jimmy_Carr.png P_M_Gordon_Brown.png"
4340,"E_F_Dawn_Roma_French.png","E_M_Jimmy_Carr.png","TRUE","pictures/stimuli/E","pictures/stimuli/E","F","M","6","5a5926b876d1c60001ab1ed7","10/17/2022, 10:11:56",0.63176038291334,"27","Female","left",1,1,0,0,FALSE,"E_F_Dawn_Roma_French.png E_M_Jimmy_Carr.png"
3118,"E_M_Jimmy_Carr.png","P_F_nicola_sturge.png","FALSE","pictures/stimuli/E","pictures/stimuli/P","M","F","5","5a5926b876d1c60001ab1ed7","10/17/2022, 10:11:56",-0.5336228477035,"27","Female","left",1,1,0,0,FALSE,"E_M_Jimmy_Carr.png P_F_nicola_sturge.png"
2523,"E_F_Julie_Walters.png","E_M_Simon_Pegg.png","TRUE","pictures/stimuli/E","pictures/stimuli/E","F","M","6","5a5926b876d1c60001ab1ed7","10/17/2022, 10:11:56",0.63176038291334,"27","Female","left",1,1,0,0,FALSE,"E_F_Julie_Walters.png E_M_Simon_Pegg.png"
2236,"E_M_Jimmy_Carr.png","P_M_Sajid_Javid.png","FALSE","pictures/stimuli/E","pictures/stimuli/P","M","M","6","5a5926b876d1c60001ab1ed7","10/17/2022, 10:11:56",0.63176038291334,"27","Female","left",1,1,0,0,FALSE,"E_M_Jimmy_Carr.png P_M_Sajid_Javid.png"
2375,"E_F_Jennifer_Saunders.png","P_M_nigel_farage.png","FALSE","pictures/stimuli/E","pictures/stimuli/P","F","M","6","5a5926b876d1c60001ab1ed7","10/17/2022, 10:11:56",0.63176038291334,"27","Female","left",1,1,0,0,FALSE,"E_F_Jennifer_Saunders.png P_M_nigel_farage.png"
3251,"P_M_david_camer.png","P_M_Tony_Blair(12).png","TRUE","pictures/stimuli/P","pictures/stimuli/P","M","M","6","5a5926b876d1c60001ab1ed7","10/17/2022, 10:11:56",0.63176038291334,"27","Female","left",1,1,0,0,FALSE,"P_M_david_camer.png P_M_Tony_Blair(12).png"
2251,"E_F_Sarah_Millican.png","P_F_nicola_sturge.png","FALSE","pictures/stimuli/E","pictures/stimuli/P","F","F","6","5a5926b876d1c60001ab1ed7","10/17/2022, 10:11:56",0.63176038291334,"27","Female","left",0,1,0,0,TRUE,"E_F_Sarah_Millican.png P_F_nicola_sturge.png"
3972,"E_F_Dawn_Roma_French.png","E_F_Julie_Walters.png","TRUE","pictures/stimuli/E","pictures/stimuli/E","F","F","5","5a5926b876d1c60001ab1ed7","10/17/2022, 10:11:56",-0.5336228477035,"27","Female","left",1,1,0,0,FALSE,"E_F_Dawn_Roma_French.png E_F_Julie_Walters.png"
2464,"E_M_Peter_Kay.png","P_M_keir_starmer.png","FALSE","pictures/stimuli/E","pictures/stimuli/P","M","M","3","5a5926b876d1c60001ab1ed7","10/17/2022, 10:11:56",-2.86438930893718,"27","Female","left",1,1,0,0,FALSE,"E_M_Peter_Kay.png P_M_keir_starmer.png"
4699,"E_M_Michael_McIntyr.png","E_M_Russell_Howard.png","TRUE","pictures/stimuli/E","pictures/stimuli/E","M","M","6","5a5926b876d1c60001ab1ed7","10/17/2022, 10:11:56",0.63176038291334,"27","Female","left",1,1,0,0,FALSE,"E_M_Michael_McIntyr.png E_M_Russell_Howard.png"
3890,"E_F_Dawn_Roma_French.png","E_M_Ewan_McGregor.png","TRUE","pictures/stimuli/E","pictures/stimuli/E","F","M","6","5a5926b876d1c60001ab1ed7","10/17/2022, 10:11:56",0.63176038291334,"27","Female","left",1,1,0,0,FALSE,"E_F_Dawn_Roma_French.png E_M_Ewan_McGregor.png"
2494,"P_M_nigel_farage.png","P_M_Tony_Blair(12).png","TRUE","pictures/stimuli/P","pictures/stimuli/P","M","M","6","5a5926b876d1c60001ab1ed7","10/17/2022, 10:11:56",0.63176038291334,"27","Female","left",1,1,0,0,FALSE,"P_M_nigel_farage.png P_M_Tony_Blair(12).png"
3941,"P_M_Gordon_Brown.png","P_M_keir_starmer.png","TRUE","pictures/stimuli/P","pictures/stimuli/P","M","M","6","5a5926b876d1c60001ab1ed7","10/17/2022, 10:11:56",0.63176038291334,"27","Female","left",1,1,0,0,FALSE,"P_M_Gordon_Brown.png P_M_keir_starmer.png"
2325,"P_F_nicola_sturge.png","P_M_Sajid_Javid.png","TRUE","pictures/stimuli/P","pictures/stimuli/P","F","M","5","5a5926b876d1c60001ab1ed7","10/17/2022, 10:11:56",-0.5336228477035,"27","Female","left",1,1,0,0,FALSE,"P_F_nicola_sturge.png P_M_Sajid_Javid.png"
3044,"E_F_Sarah_Millican.png","E_M_Ewan_McGregor.png","TRUE","pictures/stimuli/E","pictures/stimuli/E","F","M","6","5a5926b876d1c60001ab1ed7","10/17/2022, 10:11:56",0.63176038291334,"27","Female","left",0,1,0,0,TRUE,"E_F_Sarah_Millican.png E_M_Ewan_McGregor.png"
2949,"P_F_nicola_sturge.png","P_M_nigel_farage.png","TRUE","pictures/stimuli/P","pictures/stimuli/P","F","M","6","5a5926b876d1c60001ab1ed7","10/17/2022, 10:11:56",0.63176038291334,"27","Female","left",1,1,0,0,FALSE,"P_F_nicola_sturge.png P_M_nigel_farage.png"
1985,"P_F_nicola_sturge.png","P_M_jeremy_corbyn.png","TRUE","pictures/stimuli/P","pictures/stimuli/P","F","M","6","5a5926b876d1c60001ab1ed7","10/17/2022, 10:11:56",0.63176038291334,"27","Female","left",1,0,0,0,TRUE,"P_F_nicola_sturge.png P_M_jeremy_corbyn.png"
2384,"E_M_Jimmy_Carr.png","P_M_jeremy_corbyn.png","FALSE","pictures/stimuli/E","pictures/stimuli/P","M","M","6","5a5926b876d1c60001ab1ed7","10/17/2022, 10:11:56",0.63176038291334,"27","Female","left",1,0,0,0,TRUE,"E_M_Jimmy_Carr.png P_M_jeremy_corbyn.png"
3096,"P_M_david_camer.png","P_M_Michael_Gove.png","TRUE","pictures/stimuli/P","pictures/stimuli/P","M","M","5","5a5926b876d1c60001ab1ed7","10/17/2022, 10:11:56",-0.5336228477035,"27","Female","left",1,1,0,0,FALSE,"P_M_david_camer.png P_M_Michael_Gove.png"
1942,"P_M_Gordon_Brown.png","P_M_Sajid_Javid.png","TRUE","pictures/stimuli/P","pictures/stimuli/P","M","M","6","5a5926b876d1c60001ab1ed7","10/17/2022, 10:11:56",0.63176038291334,"27","Female","left",1,1,0,0,FALSE,"P_M_Gordon_Brown.png P_M_Sajid_Javid.png"
2265,"E_F_Dawn_Roma_French.png","P_M_Gordon_Brown.png","FALSE","pictures/stimuli/E","pictures/stimuli/P","F","M","6","5a5926b876d1c60001ab1ed7","10/17/2022, 10:11:56",0.63176038291334,"27","Female","left",1,1,0,0,FALSE,"E_F_Dawn_Roma_French.png P_M_Gordon_Brown.png"
3508,"E_F_Jennifer_Saunders.png","E_M_Jimmy_Carr.png","TRUE","pictures/stimuli/E","pictures/stimuli/E","F","M","5","5a5926b876d1c60001ab1ed7","10/17/2022, 10:11:56",-0.5336228477035,"27","Female","left",1,1,0,0,FALSE,"E_F_Jennifer_Saunders.png E_M_Jimmy_Carr.png"
2943,"E_F_Jennifer_Saunders.png","E_M_Peter_Kay.png","TRUE","pictures/stimuli/E","pictures/stimuli/E","F","M","6","5a5926b876d1c60001ab1ed7","10/17/2022, 10:11:56",0.63176038291334,"27","Female","left",1,1,0,0,FALSE,"E_F_Jennifer_Saunders.png E_M_Peter_Kay.png"
2786,"E_F_Sarah_Millican.png","P_M_david_camer.png","FALSE","pictures/stimuli/E","pictures/stimuli/P","F","M","6","5a5926b876d1c60001ab1ed7","10/17/2022, 10:11:56",0.63176038291334,"27","Female","left",0,1,0,0,TRUE,"E_F_Sarah_Millican.png P_M_david_camer.png"
3111,"P_F_nicola_sturge.png","P_M_Michael_Gove.png","TRUE","pictures/stimuli/P","pictures/stimuli/P","F","M","6","5a5926b876d1c60001ab1ed7","10/17/2022, 10:11:56",0.63176038291334,"27","Female","left",1,1,0,0,FALSE,"P_F_nicola_sturge.png P_M_Michael_Gove.png"
4422,"E_F_Dawn_Roma_French.png","P_M_Michael_Gove.png","FALSE","pictures/stimuli/E","pictures/stimuli/P","F","M","6","5a5926b876d1c60001ab1ed7","10/17/2022, 10:11:56",0.63176038291334,"27","Female","left",1,1,0,0,FALSE,"E_F_Dawn_Roma_French.png P_M_Michael_Gove.png"
3692,"E_F_Julie_Walters.png","P_F_Theresa_May.png","FALSE","pictures/stimuli/E","pictures/stimuli/P","F","F","6","5a5926b876d1c60001ab1ed7","10/17/2022, 10:11:56",0.63176038291334,"27","Female","left",1,1,0,0,FALSE,"E_F_Julie_Walters.png P_F_Theresa_May.png"
2976,"E_F_Sarah_Millican.png","P_M_nigel_farage.png","FALSE","pictures/stimuli/E","pictures/stimuli/P","F","M","6","5a5926b876d1c60001ab1ed7","10/17/2022, 10:11:56",0.63176038291334,"27","Female","left",0,1,0,0,TRUE,"E_F_Sarah_Millican.png P_M_nigel_farage.png"
3373,"E_F_Dawn_Roma_French.png","E_M_Michael_McIntyr.png","TRUE","pictures/stimuli/E","pictures/stimuli/E","F","M","5","5a5926b876d1c60001ab1ed7","10/17/2022, 10:11:56",-0.5336228477035,"27","Female","left",1,1,0,0,FALSE,"E_F_Dawn_Roma_French.png E_M_Michael_McIntyr.png"
2967,"E_F_Sarah_Millican.png","E_M_Michael_McIntyr.png","TRUE","pictures/stimuli/E","pictures/stimuli/E","F","M","6","5a5926b876d1c60001ab1ed7","10/17/2022, 10:11:56",0.63176038291334,"27","Female","left",0,1,0,0,TRUE,"E_F_Sarah_Millican.png E_M_Michael_McIntyr.png"
2887,"E_M_Peter_Kay.png","E_M_Russell_Howard.png","TRUE","pictures/stimuli/E","pictures/stimuli/E","M","M","6","5a5926b876d1c60001ab1ed7","10/17/2022, 10:11:56",0.63176038291334,"27","Female","left",1,1,0,0,FALSE,"E_M_Peter_Kay.png E_M_Russell_Howard.png"
3028,"E_F_Sarah_Millican.png","P_M_Gordon_Brown.png","FALSE","pictures/stimuli/E","pictures/stimuli/P","F","M","6","5a5926b876d1c60001ab1ed7","10/17/2022, 10:11:56",0.63176038291334,"27","Female","left",0,1,0,0,TRUE,"E_F_Sarah_Millican.png P_M_Gordon_Brown.png"
2751,"E_M_Peter_Kay.png","P_M_Sajid_Javid.png","FALSE","pictures/stimuli/E","pictures/stimuli/P","M","M","6","5a5926b876d1c60001ab1ed7","10/17/2022, 10:11:56",0.63176038291334,"27","Female","left",1,1,0,0,FALSE,"E_M_Peter_Kay.png P_M_Sajid_Javid.png"
3331,"E_M_Ewan_McGregor.png","E_M_Peter_Kay.png","TRUE","pictures/stimuli/E","pictures/stimuli/E","M","M","6","5a5926b876d1c60001ab1ed7","10/17/2022, 10:11:56",0.63176038291334,"27","Female","left",1,1,0,0,FALSE,"E_M_Ewan_McGregor.png E_M_Peter_Kay.png"
2609,"P_M_keir_starmer.png","P_M_Sajid_Javid.png","TRUE","pictures/stimuli/P","pictures/stimuli/P","M","M","6","5a5926b876d1c60001ab1ed7","10/17/2022, 10:11:56",0.63176038291334,"27","Female","left",1,1,0,0,FALSE,"P_M_keir_starmer.png P_M_Sajid_Javid.png"
6103,"E_F_Jennifer_Saunders.png","P_M_keir_starmer.png","FALSE","pictures/stimuli/E","pictures/stimuli/P","F","M","5","5a5926b876d1c60001ab1ed7","10/17/2022, 10:11:56",-0.5336228477035,"27","Female","left",1,1,0,0,FALSE,"E_F_Jennifer_Saunders.png P_M_keir_starmer.png"
2605,"E_F_Sarah_Millican.png","P_M_jeremy_corbyn.png","FALSE","pictures/stimuli/E","pictures/stimuli/P","F","M","6","5a5926b876d1c60001ab1ed7","10/17/2022, 10:11:56",0.63176038291334,"27","Female","left",0,0,0,0,TRUE,"E_F_Sarah_Millican.png P_M_jeremy_corbyn.png"
2499,"P_M_jeremy_corbyn.png","P_M_Sajid_Javid.png","TRUE","pictures/stimuli/P","pictures/stimuli/P","M","M","6","5a5926b876d1c60001ab1ed7","10/17/2022, 10:11:56",0.63176038291334,"27","Female","left",0,1,0,0,TRUE,"P_M_jeremy_corbyn.png P_M_Sajid_Javid.png"
6284,"E_M_Peter_Kay.png","P_F_Theresa_May.png","FALSE","pictures/stimuli/E","pictures/stimuli/P","M","F","5","5a5926b876d1c60001ab1ed7","10/17/2022, 10:11:56",-0.5336228477035,"27","Female","left",1,1,0,0,FALSE,"E_M_Peter_Kay.png P_F_Theresa_May.png"
3458,"P_M_keir_starmer.png","P_M_Tony_Blair(12).png","TRUE","pictures/stimuli/P","pictures/stimuli/P","M","M","6","5a5926b876d1c60001ab1ed7","10/17/2022, 10:11:56",0.63176038291334,"27","Female","left",1,1,0,0,FALSE,"P_M_keir_starmer.png P_M_Tony_Blair(12).png"
3274,"E_F_Sarah_Millican.png","E_M_Simon_Pegg.png","TRUE","pictures/stimuli/E","pictures/stimuli/E","F","M","6","5a5926b876d1c60001ab1ed7","10/17/2022, 10:11:56",0.63176038291334,"27","Female","left",0,1,0,0,TRUE,"E_F_Sarah_Millican.png E_M_Simon_Pegg.png"
4789,"P_F_Theresa_May.png","P_M_Michael_Gove.png","TRUE","pictures/stimuli/P","pictures/stimuli/P","F","M","4","5a5926b876d1c60001ab1ed7","10/17/2022, 10:11:56",-1.69900607832034,"27","Female","left",1,1,0,0,FALSE,"P_F_Theresa_May.png P_M_Michael_Gove.png"
4381,"E_M_Michael_McIntyr.png","P_M_Michael_Gove.png","FALSE","pictures/stimuli/E","pictures/stimuli/P","M","M","5","5a5926b876d1c60001ab1ed7","10/17/2022, 10:11:56",-0.5336228477035,"27","Female","left",1,1,0,0,FALSE,"E_M_Michael_McIntyr.png P_M_Michael_Gove.png"
2822,"P_M_david_camer.png","P_M_Sajid_Javid.png","TRUE","pictures/stimuli/P","pictures/stimuli/P","M","M","6","5a5926b876d1c60001ab1ed7","10/17/2022, 10:11:56",0.63176038291334,"27","Female","left",1,1,0,0,FALSE,"P_M_david_camer.png P_M_Sajid_Javid.png"
3289,"E_F_Dawn_Roma_French.png","E_M_Peter_Kay.png","TRUE","pictures/stimuli/E","pictures/stimuli/E","F","M","2","5a5926b876d1c60001ab1ed7","10/17/2022, 10:11:56",-4.02977253955402,"27","Female","left",1,1,0,0,FALSE,"E_F_Dawn_Roma_French.png E_M_Peter_Kay.png"
4234,"E_M_Jimmy_Carr.png","P_M_nigel_farage.png","FALSE","pictures/stimuli/E","pictures/stimuli/P","M","M","5","5a5926b876d1c60001ab1ed7","10/17/2022, 10:11:56",-0.5336228477035,"27","Female","left",1,1,0,0,FALSE,"E_M_Jimmy_Carr.png P_M_nigel_farage.png"
2757,"E_F_Dawn_Roma_French.png","P_M_Tony_Blair(12).png","FALSE","pictures/stimuli/E","pictures/stimuli/P","F","M","6","5a5926b876d1c60001ab1ed7","10/17/2022, 10:11:56",0.63176038291334,"27","Female","left",1,1,0,0,FALSE,"E_F_Dawn_Roma_French.png P_M_Tony_Blair(12).png"
4464,"E_M_Peter_Kay.png","P_M_nigel_farage.png","FALSE","pictures/stimuli/E","pictures/stimuli/P","M","M","6","5a5926b876d1c60001ab1ed7","10/17/2022, 10:11:56",0.63176038291334,"27","Female","left",1,1,0,0,FALSE,"E_M_Peter_Kay.png P_M_nigel_farage.png"
3431,"E_M_Simon_Pegg.png","P_M_jeremy_corbyn.png","FALSE","pictures/stimuli/E","pictures/stimuli/P","M","M","4","5a5926b876d1c60001ab1ed7","10/17/2022, 10:11:56",-1.69900607832034,"27","Female","left",1,0,0,0,TRUE,"E_M_Simon_Pegg.png P_M_jeremy_corbyn.png"
3509,"E_M_Russell_Howard.png","P_M_Tony_Blair(12).png","FALSE","pictures/stimuli/E","pictures/stimuli/P","M","M","5","5a5926b876d1c60001ab1ed7","10/17/2022, 10:11:56",-0.5336228477035,"27","Female","left",1,1,0,0,FALSE,"E_M_Russell_Howard.png P_M_Tony_Blair(12).png"
4131,"E_F_Jennifer_Saunders.png","E_M_Michael_McIntyr.png","TRUE","pictures/stimuli/E","pictures/stimuli/E","F","M","6","5a5926b876d1c60001ab1ed7","10/17/2022, 10:11:56",0.63176038291334,"27","Female","left",1,1,0,0,FALSE,"E_F_Jennifer_Saunders.png E_M_Michael_McIntyr.png"
3098,"P_F_nicola_sturge.png","P_M_Gordon_Brown.png","TRUE","pictures/stimuli/P","pictures/stimuli/P","F","M","6","5a5926b876d1c60001ab1ed7","10/17/2022, 10:11:56",0.63176038291334,"27","Female","left",1,1,0,0,FALSE,"P_F_nicola_sturge.png P_M_Gordon_Brown.png"
4088,"E_M_Simon_Pegg.png","P_F_Theresa_May.png","FALSE","pictures/stimuli/E","pictures/stimuli/P","M","F","5","5a5926b876d1c60001ab1ed7","10/17/2022, 10:11:56",-0.5336228477035,"27","Female","left",1,1,0,0,FALSE,"E_M_Simon_Pegg.png P_F_Theresa_May.png"
3747,"E_M_Michael_McIntyr.png","P_M_keir_starmer.png","FALSE","pictures/stimuli/E","pictures/stimuli/P","M","M","5","5a5926b876d1c60001ab1ed7","10/17/2022, 10:11:56",-0.5336228477035,"27","Female","left",1,1,0,0,FALSE,"E_M_Michael_McIntyr.png P_M_keir_starmer.png"
2960,"E_M_Peter_Kay.png","P_M_Michael_Gove.png","FALSE","pictures/stimuli/E","pictures/stimuli/P","M","M","6","5a5926b876d1c60001ab1ed7","10/17/2022, 10:11:56",0.63176038291334,"27","Female","left",1,1,0,0,FALSE,"E_M_Peter_Kay.png P_M_Michael_Gove.png"
2908,"E_M_Ewan_McGregor.png","P_M_Sajid_Javid.png","FALSE","pictures/stimuli/E","pictures/stimuli/P","M","M","6","5a5926b876d1c60001ab1ed7","10/17/2022, 10:11:56",0.63176038291334,"27","Female","left",1,1,0,0,FALSE,"E_M_Ewan_McGregor.png P_M_Sajid_Javid.png"
4094,"E_M_Simon_Pegg.png","P_F_nicola_sturge.png","FALSE","pictures/stimuli/E","pictures/stimuli/P","M","F","6","5a5926b876d1c60001ab1ed7","10/17/2022, 10:11:56",0.63176038291334,"27","Female","left",1,1,0,0,FALSE,"E_M_Simon_Pegg.png P_F_nicola_sturge.png"
3570,"E_M_Michael_McIntyr.png","E_M_Peter_Kay.png","TRUE","pictures/stimuli/E","pictures/stimuli/E","M","M","5","5a5926b876d1c60001ab1ed7","10/17/2022, 10:11:56",-0.5336228477035,"27","Female","left",1,1,0,0,FALSE,"E_M_Michael_McIntyr.png E_M_Peter_Kay.png"
4037,"E_M_Michael_McIntyr.png","P_M_david_camer.png","FALSE","pictures/stimuli/E","pictures/stimuli/P","M","M","5","5a5926b876d1c60001ab1ed7","10/17/2022, 10:11:56",-0.5336228477035,"27","Female","left",1,1,0,0,FALSE,"E_M_Michael_McIntyr.png P_M_david_camer.png"
3825,"P_M_Michael_Gove.png","P_M_Tony_Blair(12).png","TRUE","pictures/stimuli/P","pictures/stimuli/P","M","M","5","5a5926b876d1c60001ab1ed7","10/17/2022, 10:11:56",-0.5336228477035,"27","Female","left",1,1,0,0,FALSE,"P_M_Michael_Gove.png P_M_Tony_Blair(12).png"
2791,"E_M_Peter_Kay.png","P_M_Tony_Blair(12).png","FALSE","pictures/stimuli/E","pictures/stimuli/P","M","M","6","5a5926b876d1c60001ab1ed7","10/17/2022, 10:11:56",0.63176038291334,"27","Female","left",1,1,0,0,FALSE,"E_M_Peter_Kay.png P_M_Tony_Blair(12).png"
4154,"E_M_Ewan_McGregor.png","E_M_Michael_McIntyr.png","TRUE","pictures/stimuli/E","pictures/stimuli/E","M","M","4","5a5926b876d1c60001ab1ed7","10/17/2022, 10:11:56",-1.69900607832034,"27","Female","left",1,1,0,0,FALSE,"E_M_Ewan_McGregor.png E_M_Michael_McIntyr.png"
2668,"E_F_Julie_Walters.png","E_M_Ewan_McGregor.png","TRUE","pictures/stimuli/E","pictures/stimuli/E","F","M","6","5a5926b876d1c60001ab1ed7","10/17/2022, 10:11:56",0.63176038291334,"27","Female","left",1,1,0,0,FALSE,"E_F_Julie_Walters.png E_M_Ewan_McGregor.png"
2825,"E_M_Michael_McIntyr.png","P_M_nigel_farage.png","FALSE","pictures/stimuli/E","pictures/stimuli/P","M","M","6","5a5926b876d1c60001ab1ed7","10/17/2022, 10:11:56",0.63176038291334,"27","Female","left",1,1,0,0,FALSE,"E_M_Michael_McIntyr.png P_M_nigel_farage.png"
2719,"E_F_Jennifer_Saunders.png","E_M_Simon_Pegg.png","TRUE","pictures/stimuli/E","pictures/stimuli/E","F","M","5","5a5926b876d1c60001ab1ed7","10/17/2022, 10:11:56",-0.5336228477035,"27","Female","left",1,1,0,0,FALSE,"E_F_Jennifer_Saunders.png E_M_Simon_Pegg.png"
2633,"E_F_Julie_Walters.png","P_M_jeremy_corbyn.png","FALSE","pictures/stimuli/E","pictures/stimuli/P","F","M","6","5a5926b876d1c60001ab1ed7","10/17/2022, 10:11:56",0.63176038291334,"27","Female","left",1,0,0,0,TRUE,"E_F_Julie_Walters.png P_M_jeremy_corbyn.png"
3030,"E_M_Russell_Howard.png","P_M_nigel_farage.png","FALSE","pictures/stimuli/E","pictures/stimuli/P","M","M","6","5a5926b876d1c60001ab1ed7","10/17/2022, 10:11:56",0.63176038291334,"27","Female","left",1,1,0,0,FALSE,"E_M_Russell_Howard.png P_M_nigel_farage.png"
5068,"E_M_Simon_Pegg.png","P_M_Gordon_Brown.png","FALSE","pictures/stimuli/E","pictures/stimuli/P","M","M","5","5a5926b876d1c60001ab1ed7","10/17/2022, 10:11:56",-0.5336228477035,"27","Female","left",1,1,0,0,FALSE,"E_M_Simon_Pegg.png P_M_Gordon_Brown.png"
3243,"P_F_Theresa_May.png","P_M_jeremy_corbyn.png","TRUE","pictures/stimuli/P","pictures/stimuli/P","F","M","6","5a5926b876d1c60001ab1ed7","10/17/2022, 10:11:56",0.63176038291334,"27","Female","left",1,0,0,0,TRUE,"P_F_Theresa_May.png P_M_jeremy_corbyn.png"
2883,"E_M_Jimmy_Carr.png","P_M_Tony_Blair(12).png","FALSE","pictures/stimuli/E","pictures/stimuli/P","M","M","6","5a5926b876d1c60001ab1ed7","10/17/2022, 10:11:56",0.63176038291334,"27","Female","left",1,1,0,0,FALSE,"E_M_Jimmy_Carr.png P_M_Tony_Blair(12).png"
4655,"E_M_Ewan_McGregor.png","P_M_Tony_Blair(12).png","FALSE","pictures/stimuli/E","pictures/stimuli/P","M","M","6","5a5926b876d1c60001ab1ed7","10/17/2022, 10:11:56",0.63176038291334,"27","Female","left",1,1,0,0,FALSE,"E_M_Ewan_McGregor.png P_M_Tony_Blair(12).png"
3422,"E_M_Jimmy_Carr.png","E_M_Simon_Pegg.png","TRUE","pictures/stimuli/E","pictures/stimuli/E","M","M","6","5a5926b876d1c60001ab1ed7","10/17/2022, 10:11:56",0.63176038291334,"27","Female","left",1,1,0,0,FALSE,"E_M_Jimmy_Carr.png E_M_Simon_Pegg.png"
3294,"E_F_Jennifer_Saunders.png","P_M_Michael_Gove.png","FALSE","pictures/stimuli/E","pictures/stimuli/P","F","M","4","5a5926b876d1c60001ab1ed7","10/17/2022, 10:11:56",-1.69900607832034,"27","Female","left",1,1,0,0,FALSE,"E_F_Jennifer_Saunders.png P_M_Michael_Gove.png"
3546,"E_M_Jimmy_Carr.png","P_M_keir_starmer.png","FALSE","pictures/stimuli/E","pictures/stimuli/P","M","M","6","5a5926b876d1c60001ab1ed7","10/17/2022, 10:11:56",0.63176038291334,"27","Female","left",1,1,0,0,FALSE,"E_M_Jimmy_Carr.png P_M_keir_starmer.png"
3328,"E_M_Russell_Howard.png","P_M_keir_starmer.png","FALSE","pictures/stimuli/E","pictures/stimuli/P","M","M","6","5a5926b876d1c60001ab1ed7","10/17/2022, 10:11:56",0.63176038291334,"27","Female","left",1,1,0,0,FALSE,"E_M_Russell_Howard.png P_M_keir_starmer.png"
2671,"P_M_jeremy_corbyn.png","P_M_nigel_farage.png","TRUE","pictures/stimuli/P","pictures/stimuli/P","M","M","6","5a5926b876d1c60001ab1ed7","10/17/2022, 10:11:56",0.63176038291334,"27","Female","left",0,1,0,0,TRUE,"P_M_jeremy_corbyn.png P_M_nigel_farage.png"
3721,"P_F_nicola_sturge.png","P_M_keir_starmer.png","TRUE","pictures/stimuli/P","pictures/stimuli/P","F","M","5","5a5926b876d1c60001ab1ed7","10/17/2022, 10:11:56",-0.5336228477035,"27","Female","left",1,1,0,0,FALSE,"P_F_nicola_sturge.png P_M_keir_starmer.png"
3070,"E_M_Russell_Howard.png","P_M_Michael_Gove.png","FALSE","pictures/stimuli/E","pictures/stimuli/P","M","M","6","5a5926b876d1c60001ab1ed7","10/17/2022, 10:11:56",0.63176038291334,"27","Female","left",1,1,0,0,FALSE,"E_M_Russell_Howard.png P_M_Michael_Gove.png"
3828,"E_F_Jennifer_Saunders.png","E_F_Julie_Walters.png","TRUE","pictures/stimuli/E","pictures/stimuli/E","F","F","6","5a5926b876d1c60001ab1ed7","10/17/2022, 10:11:56",0.63176038291334,"27","Female","left",1,1,0,0,FALSE,"E_F_Jennifer_Saunders.png E_F_Julie_Walters.png"
4267,"E_M_Simon_Pegg.png","P_M_Tony_Blair(12).png","FALSE","pictures/stimuli/E","pictures/stimuli/P","M","M","5","5a5926b876d1c60001ab1ed7","10/17/2022, 10:11:56",-0.5336228477035,"27","Female","left",1,1,0,0,FALSE,"E_M_Simon_Pegg.png P_M_Tony_Blair(12).png"
2990,"E_F_Sarah_Millican.png","P_M_Tony_Blair(12).png","FALSE","pictures/stimuli/E","pictures/stimuli/P","F","M","6","5a5926b876d1c60001ab1ed7","10/17/2022, 10:11:56",0.63176038291334,"27","Female","left",0,1,0,0,TRUE,"E_F_Sarah_Millican.png P_M_Tony_Blair(12).png"
4076,"E_M_Ewan_McGregor.png","P_F_nicola_sturge.png","FALSE","pictures/stimuli/E","pictures/stimuli/P","M","F","5","5a5926b876d1c60001ab1ed7","10/17/2022, 10:11:56",-0.5336228477035,"27","Female","left",1,1,0,0,FALSE,"E_M_Ewan_McGregor.png P_F_nicola_sturge.png"
3983,"E_F_Jennifer_Saunders.png","P_F_nicola_sturge.png","FALSE","pictures/stimuli/E","pictures/stimuli/P","F","F","6","5a5926b876d1c60001ab1ed7","10/17/2022, 10:11:56",0.63176038291334,"27","Female","left",1,1,0,0,FALSE,"E_F_Jennifer_Saunders.png P_F_nicola_sturge.png"
2728,"E_F_Sarah_Millican.png","E_M_Russell_Howard.png","TRUE","pictures/stimuli/E","pictures/stimuli/E","F","M","6","5a5926b876d1c60001ab1ed7","10/17/2022, 10:11:56",0.63176038291334,"27","Female","left",0,1,0,0,TRUE,"E_F_Sarah_Millican.png E_M_Russell_Howard.png"
4404,"E_M_Peter_Kay.png","P_M_david_camer.png","FALSE","pictures/stimuli/E","pictures/stimuli/P","M","M","4","5a5926b876d1c60001ab1ed7","10/17/2022, 10:11:56",-1.69900607832034,"27","Female","left",1,1,0,0,FALSE,"E_M_Peter_Kay.png P_M_david_camer.png"
2925,"E_M_Peter_Kay.png","E_M_Simon_Pegg.png","TRUE","pictures/stimuli/E","pictures/stimuli/E","M","M","6","5a5926b876d1c60001ab1ed7","10/17/2022, 10:11:56",0.63176038291334,"27","Female","left",1,1,0,0,FALSE,"E_M_Peter_Kay.png E_M_Simon_Pegg.png"
5779,"P_M_Sajid_Javid.png","P_M_Tony_Blair(12).png","TRUE","pictures/stimuli/P","pictures/stimuli/P","M","M","6","5a5926b876d1c60001ab1ed7","10/17/2022, 10:11:56",0.63176038291334,"27","Female","left",1,1,0,0,FALSE,"P_M_Sajid_Javid.png P_M_Tony_Blair(12).png"
2580,"E_F_Dawn_Roma_French.png","E_F_Sarah_Millican.png","TRUE","pictures/stimuli/E","pictures/stimuli/E","F","F","6","5a5926b876d1c60001ab1ed7","10/17/2022, 10:11:56",0.63176038291334,"27","Female","left",1,0,0,0,TRUE,"E_F_Dawn_Roma_French.png E_F_Sarah_Millican.png"
5896,"E_F_Julie_Walters.png","E_M_Peter_Kay.png","TRUE","pictures/stimuli/E","pictures/stimuli/E","F","M","5","5a5926b876d1c60001ab1ed7","10/17/2022, 10:11:56",-0.5336228477035,"27","Female","left",1,1,0,0,FALSE,"E_F_Julie_Walters.png E_M_Peter_Kay.png"
2505,"E_M_Ewan_McGregor.png","P_M_keir_starmer.png","FALSE","pictures/stimuli/E","pictures/stimuli/P","M","M","6","5a5926b876d1c60001ab1ed7","10/17/2022, 10:11:56",0.63176038291334,"27","Female","left",1,1,0,0,FALSE,"E_M_Ewan_McGregor.png P_M_keir_starmer.png"
3395,"E_F_Dawn_Roma_French.png","P_M_jeremy_corbyn.png","FALSE","pictures/stimuli/E","pictures/stimuli/P","F","M","6","5a5926b876d1c60001ab1ed7","10/17/2022, 10:11:56",0.63176038291334,"27","Female","left",1,0,0,0,TRUE,"E_F_Dawn_Roma_French.png P_M_jeremy_corbyn.png"
2842,"E_M_Simon_Pegg.png","P_M_nigel_farage.png","FALSE","pictures/stimuli/E","pictures/stimuli/P","M","M","6","5a5926b876d1c60001ab1ed7","10/17/2022, 10:11:56",0.63176038291334,"27","Female","left",1,1,0,0,FALSE,"E_M_Simon_Pegg.png P_M_nigel_farage.png"
3218,"E_M_Russell_Howard.png","P_F_nicola_sturge.png","FALSE","pictures/stimuli/E","pictures/stimuli/P","M","F","5","5a5926b876d1c60001ab1ed7","10/17/2022, 10:11:56",-0.5336228477035,"27","Female","left",1,1,0,0,FALSE,"E_M_Russell_Howard.png P_F_nicola_sturge.png"
3305,"E_F_Julie_Walters.png","P_M_Tony_Blair(12).png","FALSE","pictures/stimuli/E","pictures/stimuli/P","F","M","6","5a5926b876d1c60001ab1ed7","10/17/2022, 10:11:56",0.63176038291334,"27","Female","left",1,1,0,0,FALSE,"E_F_Julie_Walters.png P_M_Tony_Blair(12).png"
3143,"P_M_keir_starmer.png","P_M_nigel_farage.png","TRUE","pictures/stimuli/P","pictures/stimuli/P","M","M","6","5a5926b876d1c60001ab1ed7","10/17/2022, 10:11:56",0.63176038291334,"27","Female","left",1,1,0,0,FALSE,"P_M_keir_starmer.png P_M_nigel_farage.png"
2611,"P_M_nigel_farage.png","P_M_Sajid_Javid.png","TRUE","pictures/stimuli/P","pictures/stimuli/P","M","M","6","5a5926b876d1c60001ab1ed7","10/17/2022, 10:11:56",0.63176038291334,"27","Female","left",1,1,0,0,FALSE,"P_M_nigel_farage.png P_M_Sajid_Javid.png"
2599,"E_F_Sarah_Millican.png","P_M_Michael_Gove.png","FALSE","pictures/stimuli/E","pictures/stimuli/P","F","M","6","5a5926b876d1c60001ab1ed7","10/17/2022, 10:11:56",0.63176038291334,"27","Female","left",0,1,0,0,TRUE,"E_F_Sarah_Millican.png P_M_Michael_Gove.png"
3397,"E_M_Jimmy_Carr.png","P_F_Theresa_May.png","FALSE","pictures/stimuli/E","pictures/stimuli/P","M","F","6","5a5926b876d1c60001ab1ed7","10/17/2022, 10:11:56",0.63176038291334,"27","Female","left",1,1,0,0,FALSE,"E_M_Jimmy_Carr.png P_F_Theresa_May.png"
4237,"E_F_Jennifer_Saunders.png","P_M_david_camer.png","FALSE","pictures/stimuli/E","pictures/stimuli/P","F","M","5","5a5926b876d1c60001ab1ed7","10/17/2022, 10:11:56",-0.5336228477035,"27","Female","left",1,1,0,0,FALSE,"E_F_Jennifer_Saunders.png P_M_david_camer.png"
3081,"P_F_Theresa_May.png","P_M_nigel_farage.png","TRUE","pictures/stimuli/P","pictures/stimuli/P","F","M","6","5a5926b876d1c60001ab1ed7","10/17/2022, 10:11:56",0.63176038291334,"27","Female","left",1,1,0,0,FALSE,"P_F_Theresa_May.png P_M_nigel_farage.png"
4052,"E_F_Jennifer_Saunders.png","E_M_Ewan_McGregor.png","TRUE","pictures/stimuli/E","pictures/stimuli/E","F","M","6","5a5926b876d1c60001ab1ed7","10/17/2022, 10:11:56",0.63176038291334,"27","Female","left",1,1,0,0,FALSE,"E_F_Jennifer_Saunders.png E_M_Ewan_McGregor.png"
3343,"E_M_Peter_Kay.png","P_M_Gordon_Brown.png","FALSE","pictures/stimuli/E","pictures/stimuli/P","M","M","5","5a5926b876d1c60001ab1ed7","10/17/2022, 10:11:56",-0.5336228477035,"27","Female","left",1,1,0,0,FALSE,"E_M_Peter_Kay.png P_M_Gordon_Brown.png"
2804,"P_M_Gordon_Brown.png","P_M_jeremy_corbyn.png","TRUE","pictures/stimuli/P","pictures/stimuli/P","M","M","6","5a5926b876d1c60001ab1ed7","10/17/2022, 10:11:56",0.63176038291334,"27","Female","left",1,0,0,0,TRUE,"P_M_Gordon_Brown.png P_M_jeremy_corbyn.png"
4947,"E_F_Julie_Walters.png","P_F_nicola_sturge.png","FALSE","pictures/stimuli/E","pictures/stimuli/P","F","F","5","5a5926b876d1c60001ab1ed7","10/17/2022, 10:11:56",-0.5336228477035,"27","Female","left",1,1,0,0,FALSE,"E_F_Julie_Walters.png P_F_nicola_sturge.png"
3226,"E_F_Dawn_Roma_French.png","E_M_Russell_Howard.png","TRUE","pictures/stimuli/E","pictures/stimuli/E","F","M","6","5a5926b876d1c60001ab1ed7","10/17/2022, 10:11:56",0.63176038291334,"27","Female","left",1,1,0,0,FALSE,"E_F_Dawn_Roma_French.png E_M_Russell_Howard.png"
3349,"E_F_Julie_Walters.png","P_M_Michael_Gove.png","FALSE","pictures/stimuli/E","pictures/stimuli/P","F","M","6","5a5926b876d1c60001ab1ed7","10/17/2022, 10:11:56",0.63176038291334,"27","Female","left",1,1,0,0,FALSE,"E_F_Julie_Walters.png P_M_Michael_Gove.png"
2814,"E_M_Russell_Howard.png","P_M_Gordon_Brown.png","FALSE","pictures/stimuli/E","pictures/stimuli/P","M","M","6","5a5926b876d1c60001ab1ed7","10/17/2022, 10:11:56",0.63176038291334,"27","Female","left",1,1,0,0,FALSE,"E_M_Russell_Howard.png P_M_Gordon_Brown.png"
4290,"E_M_Michael_McIntyr.png","P_F_Theresa_May.png","FALSE","pictures/stimuli/E","pictures/stimuli/P","M","F","6","5a5926b876d1c60001ab1ed7","10/17/2022, 10:11:56",0.63176038291334,"27","Female","left",1,1,0,0,FALSE,"E_M_Michael_McIntyr.png P_F_Theresa_May.png"
3863,"E_F_Jennifer_Saunders.png","P_F_Theresa_May.png","FALSE","pictures/stimuli/E","pictures/stimuli/P","F","F","4","5a5926b876d1c60001ab1ed7","10/17/2022, 10:11:56",-1.69900607832034,"27","Female","left",1,1,0,0,FALSE,"E_F_Jennifer_Saunders.png P_F_Theresa_May.png"
3623,"P_M_jeremy_corbyn.png","P_M_keir_starmer.png","TRUE","pictures/stimuli/P","pictures/stimuli/P","M","M","6","5a5926b876d1c60001ab1ed7","10/17/2022, 10:11:56",0.63176038291334,"27","Female","left",0,1,0,0,TRUE,"P_M_jeremy_corbyn.png P_M_keir_starmer.png"
2825,"P_M_keir_starmer.png","P_M_Michael_Gove.png","TRUE","pictures/stimuli/P","pictures/stimuli/P","M","M","6","5a5926b876d1c60001ab1ed7","10/17/2022, 10:11:56",0.63176038291334,"27","Female","left",1,1,0,0,FALSE,"P_M_keir_starmer.png P_M_Michael_Gove.png"
3519,"E_M_Peter_Kay.png","P_M_jeremy_corbyn.png","FALSE","pictures/stimuli/E","pictures/stimuli/P","M","M","6","5a5926b876d1c60001ab1ed7","10/17/2022, 10:11:56",0.63176038291334,"27","Female","left",1,0,0,0,TRUE,"E_M_Peter_Kay.png P_M_jeremy_corbyn.png"
3977,"E_M_Michael_McIntyr.png","E_M_Simon_Pegg.png","TRUE","pictures/stimuli/E","pictures/stimuli/E","M","M","6","5a5926b876d1c60001ab1ed7","10/17/2022, 10:11:56",0.63176038291334,"27","Female","left",1,1,0,0,FALSE,"E_M_Michael_McIntyr.png E_M_Simon_Pegg.png"
3252,"P_M_david_camer.png","P_M_nigel_farage.png","TRUE","pictures/stimuli/P","pictures/stimuli/P","M","M","6","5a5926b876d1c60001ab1ed7","10/17/2022, 10:11:56",0.63176038291334,"27","Female","left",1,1,0,0,FALSE,"P_M_david_camer.png P_M_nigel_farage.png"
5215,"E_F_Dawn_Roma_French.png","P_M_david_camer.png","FALSE","pictures/stimuli/E","pictures/stimuli/P","F","M","5","5a5926b876d1c60001ab1ed7","10/17/2022, 10:11:56",-0.5336228477035,"27","Female","left",1,1,0,0,FALSE,"E_F_Dawn_Roma_French.png P_M_david_camer.png"
3456,"E_M_Jimmy_Carr.png","P_M_david_camer.png","FALSE","pictures/stimuli/E","pictures/stimuli/P","M","M","5","5a5926b876d1c60001ab1ed7","10/17/2022, 10:11:56",-0.5336228477035,"27","Female","left",1,1,0,0,FALSE,"E_M_Jimmy_Carr.png P_M_david_camer.png"
3248,"P_F_nicola_sturge.png","P_F_Theresa_May.png","TRUE","pictures/stimuli/P","pictures/stimuli/P","F","F","6","5a5926b876d1c60001ab1ed7","10/17/2022, 10:11:56",0.63176038291334,"27","Female","left",1,1,0,0,FALSE,"P_F_nicola_sturge.png P_F_Theresa_May.png"
2948,"P_M_david_camer.png","P_M_jeremy_corbyn.png","TRUE","pictures/stimuli/P","pictures/stimuli/P","M","M","6","5a5926b876d1c60001ab1ed7","10/17/2022, 10:11:56",0.63176038291334,"27","Female","left",1,0,0,0,TRUE,"P_M_david_camer.png P_M_jeremy_corbyn.png"
4056,"E_F_Jennifer_Saunders.png","E_M_Russell_Howard.png","TRUE","pictures/stimuli/E","pictures/stimuli/E","F","M","4","5a5926b876d1c60001ab1ed7","10/17/2022, 10:11:56",-1.69900607832034,"27","Female","left",1,1,0,0,FALSE,"E_F_Jennifer_Saunders.png E_M_Russell_Howard.png"
3641,"P_M_david_camer.png","P_M_Gordon_Brown.png","TRUE","pictures/stimuli/P","pictures/stimuli/P","M","M","6","5a5926b876d1c60001ab1ed7","10/17/2022, 10:11:56",0.63176038291334,"27","Female","left",1,1,0,0,FALSE,"P_M_david_camer.png P_M_Gordon_Brown.png"
3301,"E_M_Russell_Howard.png","E_M_Simon_Pegg.png","TRUE","pictures/stimuli/E","pictures/stimuli/E","M","M","4","5a5926b876d1c60001ab1ed7","10/17/2022, 10:11:56",-1.69900607832034,"27","Female","left",1,1,0,0,FALSE,"E_M_Russell_Howard.png E_M_Simon_Pegg.png"
2739,"P_M_Gordon_Brown.png","P_M_Michael_Gove.png","TRUE","pictures/stimuli/P","pictures/stimuli/P","M","M","6","5a5926b876d1c60001ab1ed7","10/17/2022, 10:11:56",0.63176038291334,"27","Female","left",1,1,0,0,FALSE,"P_M_Gordon_Brown.png P_M_Michael_Gove.png"
3267,"E_F_Dawn_Roma_French.png","P_M_nigel_farage.png","FALSE","pictures/stimuli/E","pictures/stimuli/P","F","M","6","5a5926b876d1c60001ab1ed7","10/17/2022, 10:11:56",0.63176038291334,"27","Female","left",1,1,0,0,FALSE,"E_F_Dawn_Roma_French.png P_M_nigel_farage.png"
4142,"E_M_Ewan_McGregor.png","E_M_Simon_Pegg.png","TRUE","pictures/stimuli/E","pictures/stimuli/E","M","M","6","5a5926b876d1c60001ab1ed7","10/17/2022, 10:11:56",0.63176038291334,"27","Female","left",1,1,0,0,FALSE,"E_M_Ewan_McGregor.png E_M_Simon_Pegg.png"
2835,"E_M_Ewan_McGregor.png","E_M_Russell_Howard.png","TRUE","pictures/stimuli/E","pictures/stimuli/E","M","M","5","5a5926b876d1c60001ab1ed7","10/17/2022, 10:11:56",-0.5336228477035,"27","Female","left",1,1,0,0,FALSE,"E_M_Ewan_McGregor.png E_M_Russell_Howard.png"
2977,"P_M_Gordon_Brown.png","P_M_nigel_farage.png","TRUE","pictures/stimuli/P","pictures/stimuli/P","M","M","6","5a5926b876d1c60001ab1ed7","10/17/2022, 10:11:56",0.63176038291334,"27","Female","left",1,1,0,0,FALSE,"P_M_Gordon_Brown.png P_M_nigel_farage.png"
3007,"P_M_jeremy_corbyn.png","P_M_Michael_Gove.png","TRUE","pictures/stimuli/P","pictures/stimuli/P","M","M","6","5a5926b876d1c60001ab1ed7","10/17/2022, 10:11:56",0.63176038291334,"27","Female","left",0,1,0,0,TRUE,"P_M_jeremy_corbyn.png P_M_Michael_Gove.png"
3673,"E_M_Jimmy_Carr.png","E_M_Peter_Kay.png","TRUE","pictures/stimuli/E","pictures/stimuli/E","M","M","4","5a5926b876d1c60001ab1ed7","10/17/2022, 10:11:56",-1.69900607832034,"27","Female","left",1,1,0,0,FALSE,"E_M_Jimmy_Carr.png E_M_Peter_Kay.png"
2630,"E_M_Michael_McIntyr.png","P_M_Sajid_Javid.png","FALSE","pictures/stimuli/E","pictures/stimuli/P","M","M","6","5a5926b876d1c60001ab1ed7","10/17/2022, 10:11:56",0.63176038291334,"27","Female","left",1,1,0,0,FALSE,"E_M_Michael_McIntyr.png P_M_Sajid_Javid.png"
2933,"E_M_Michael_McIntyr.png","P_M_Tony_Blair(12).png","FALSE","pictures/stimuli/E","pictures/stimuli/P","M","M","6","5a5926b876d1c60001ab1ed7","10/17/2022, 10:11:56",0.63176038291334,"27","Female","left",1,1,0,0,FALSE,"E_M_Michael_McIntyr.png P_M_Tony_Blair(12).png"
2513,"E_F_Jennifer_Saunders.png","P_M_Sajid_Javid.png","FALSE","pictures/stimuli/E","pictures/stimuli/P","F","M","6","5a5926b876d1c60001ab1ed7","10/17/2022, 10:11:56",0.63176038291334,"27","Female","left",1,1,0,0,FALSE,"E_F_Jennifer_Saunders.png P_M_Sajid_Javid.png"
5391,"E_M_Ewan_McGregor.png","P_F_nicola_sturge.png","FALSE","pictures/stimuli/E","pictures/stimuli/P","M","F","6","5a67676a35f26b000149689d","10/17/2022, 10:14:35",0.441358600599826,"28","Female","right",0,1,0,0,TRUE,"E_M_Ewan_McGregor.png P_F_nicola_sturge.png"
5467,"E_M_Jimmy_Carr.png","P_M_jeremy_corbyn.png","FALSE","pictures/stimuli/E","pictures/stimuli/P","M","M","6","5a67676a35f26b000149689d","10/17/2022, 10:14:35",0.441358600599826,"28","Female","right",1,1,0,0,FALSE,"E_M_Jimmy_Carr.png P_M_jeremy_corbyn.png"
