"RT","img_1","img_2","isSameProffesion","img1proffesion","img2proffesion","img1Gender","img2Gender","keyPressed","participant","time","normlised_keyPress","age","gender","handedness","isFamiliar_img1","isFamiliar_img2","vividness_img1","vividness_img2","reject_trial","pair"
4970,"E_F_Jennifer_Saunders.png","P_F_Theresa_May.png","FALSE","pictures/stimuli/E","pictures/stimuli/P","F","F","6","5703b0cbd4cf7f000d94ec57","07/06/2022, 19:20:12",0.915942620698612,"34","Female","right",1,1,0,0,FALSE,"E_F_Jennifer_Saunders.png P_F_Theresa_May.png"
4581,"E_F_Jennifer_Saunders.png","E_F_Julie_Walters.png","TRUE","pictures/stimuli/E","pictures/stimuli/E","F","F","5","5703b0cbd4cf7f000d94ec57","07/06/2022, 19:20:12",0.359939112926292,"34","Female","right",1,1,0,0,FALSE,"E_F_Jennifer_Saunders.png E_F_Julie_Walters.png"
3531,"P_M_keir_starmer.png","P_M_Sajid_Javid.png","TRUE","pictures/stimuli/P","pictures/stimuli/P","M","M","2","5703b0cbd4cf7f000d94ec57","07/06/2022, 19:20:12",-1.30807141039067,"34","Female","right",1,1,0,0,FALSE,"P_M_keir_starmer.png P_M_Sajid_Javid.png"
3462,"E_M_Simon_Pegg.png","P_M_Michael_Gove.png","FALSE","pictures/stimuli/E","pictures/stimuli/P","M","M","2","5703b0cbd4cf7f000d94ec57","07/06/2022, 19:20:12",-1.30807141039067,"34","Female","right",1,1,0,0,FALSE,"E_M_Simon_Pegg.png P_M_Michael_Gove.png"
4128,"E_M_Jimmy_Carr.png","P_M_jeremy_corbyn.png","FALSE","pictures/stimuli/E","pictures/stimuli/P","M","M","6","5703b0cbd4cf7f000d94ec57","07/06/2022, 19:20:12",0.915942620698612,"34","Female","right",1,1,0,0,FALSE,"E_M_Jimmy_Carr.png P_M_jeremy_corbyn.png"
3941,"E_M_Ewan_McGregor.png","P_M_david_camer.png","FALSE","pictures/stimuli/E","pictures/stimuli/P","M","M","5","5703b0cbd4cf7f000d94ec57","07/06/2022, 19:20:12",0.359939112926292,"34","Female","right",1,1,0,0,FALSE,"E_M_Ewan_McGregor.png P_M_david_camer.png"
4240,"E_M_Jimmy_Carr.png","E_M_Michael_McIntyr.png","TRUE","pictures/stimuli/E","pictures/stimuli/E","M","M","1","5703b0cbd4cf7f000d94ec57","07/06/2022, 19:20:12",-1.86407491816299,"34","Female","right",1,1,0,0,FALSE,"E_M_Jimmy_Carr.png E_M_Michael_McIntyr.png"
3992,"E_M_Peter_Kay.png","P_M_david_camer.png","FALSE","pictures/stimuli/E","pictures/stimuli/P","M","M","5","5703b0cbd4cf7f000d94ec57","07/06/2022, 19:20:12",0.359939112926292,"34","Female","right",1,1,0,0,FALSE,"E_M_Peter_Kay.png P_M_david_camer.png"
2655,"P_M_keir_starmer.png","P_M_Michael_Gove.png","TRUE","pictures/stimuli/P","pictures/stimuli/P","M","M","2","5703b0cbd4cf7f000d94ec57","07/06/2022, 19:20:12",-1.30807141039067,"34","Female","right",1,1,0,0,FALSE,"P_M_keir_starmer.png P_M_Michael_Gove.png"
6673,"E_F_Dawn_Roma_French.png","E_M_Russell_Howard.png","TRUE","pictures/stimuli/E","pictures/stimuli/E","F","M","3","5703b0cbd4cf7f000d94ec57","07/06/2022, 19:20:12",-0.75206790261835,"34","Female","right",1,1,0,0,FALSE,"E_F_Dawn_Roma_French.png E_M_Russell_Howard.png"
4171,"E_F_Sarah_Millican.png","P_M_keir_starmer.png","FALSE","pictures/stimuli/E","pictures/stimuli/P","F","M","6","5703b0cbd4cf7f000d94ec57","07/06/2022, 19:20:12",0.915942620698612,"34","Female","right",1,1,0,0,FALSE,"E_F_Sarah_Millican.png P_M_keir_starmer.png"
2682,"P_M_Michael_Gove.png","P_M_Tony_Blair.png","TRUE","pictures/stimuli/P","pictures/stimuli/P","M","M","2","5703b0cbd4cf7f000d94ec57","07/06/2022, 19:20:12",-1.30807141039067,"34","Female","right",1,1,0,0,FALSE,"P_M_Michael_Gove.png P_M_Tony_Blair.png"
2705,"E_M_Simon_Pegg.png","P_M_Gordon_Brown.png","FALSE","pictures/stimuli/E","pictures/stimuli/P","M","M","4","5703b0cbd4cf7f000d94ec57","07/06/2022, 19:20:12",-0.196064394846029,"34","Female","right",1,1,0,0,FALSE,"E_M_Simon_Pegg.png P_M_Gordon_Brown.png"
3454,"E_F_Julie_Walters.png","P_M_Sajid_Javid.png","FALSE","pictures/stimuli/E","pictures/stimuli/P","F","M","6","5703b0cbd4cf7f000d94ec57","07/06/2022, 19:20:12",0.915942620698612,"34","Female","right",1,1,0,0,FALSE,"E_F_Julie_Walters.png P_M_Sajid_Javid.png"
5285,"P_M_Gordon_Brown.png","P_M_jeremy_corbyn.png","TRUE","pictures/stimuli/P","pictures/stimuli/P","M","M","2","5703b0cbd4cf7f000d94ec57","07/06/2022, 19:20:12",-1.30807141039067,"34","Female","right",1,1,0,0,FALSE,"P_M_Gordon_Brown.png P_M_jeremy_corbyn.png"
4251,"E_F_Sarah_Millican.png","P_F_nicola_sturge.png","FALSE","pictures/stimuli/E","pictures/stimuli/P","F","F","5","5703b0cbd4cf7f000d94ec57","07/06/2022, 19:20:12",0.359939112926292,"34","Female","right",1,1,0,0,FALSE,"E_F_Sarah_Millican.png P_F_nicola_sturge.png"
3282,"E_M_Simon_Pegg.png","P_F_nicola_sturge.png","FALSE","pictures/stimuli/E","pictures/stimuli/P","M","F","5","5703b0cbd4cf7f000d94ec57","07/06/2022, 19:20:12",0.359939112926292,"34","Female","right",1,1,0,0,FALSE,"E_M_Simon_Pegg.png P_F_nicola_sturge.png"
3541,"P_M_Michael_Gove.png","P_M_nigel_farage.png","TRUE","pictures/stimuli/P","pictures/stimuli/P","M","M","5","5703b0cbd4cf7f000d94ec57","07/06/2022, 19:20:12",0.359939112926292,"34","Female","right",1,1,0,0,FALSE,"P_M_Michael_Gove.png P_M_nigel_farage.png"
3592,"P_F_nicola_sturge.png","P_M_keir_starmer.png","TRUE","pictures/stimuli/P","pictures/stimuli/P","F","M","4","5703b0cbd4cf7f000d94ec57","07/06/2022, 19:20:12",-0.196064394846029,"34","Female","right",1,1,0,0,FALSE,"P_F_nicola_sturge.png P_M_keir_starmer.png"
5665,"E_M_Michael_McIntyr.png","E_M_Simon_Pegg.png","TRUE","pictures/stimuli/E","pictures/stimuli/E","M","M","5","5703b0cbd4cf7f000d94ec57","07/06/2022, 19:20:12",0.359939112926292,"34","Female","right",1,1,0,0,FALSE,"E_M_Michael_McIntyr.png E_M_Simon_Pegg.png"
4066,"E_M_Michael_McIntyr.png","P_M_keir_starmer.png","FALSE","pictures/stimuli/E","pictures/stimuli/P","M","M","5","5703b0cbd4cf7f000d94ec57","07/06/2022, 19:20:12",0.359939112926292,"34","Female","right",1,1,0,0,FALSE,"E_M_Michael_McIntyr.png P_M_keir_starmer.png"
3477,"P_M_Gordon_Brown.png","P_M_keir_starmer.png","TRUE","pictures/stimuli/P","pictures/stimuli/P","M","M","3","5703b0cbd4cf7f000d94ec57","07/06/2022, 19:20:12",-0.75206790261835,"34","Female","right",1,1,0,0,FALSE,"P_M_Gordon_Brown.png P_M_keir_starmer.png"
3136,"P_F_nicola_sturge.png","P_M_Tony_Blair.png","TRUE","pictures/stimuli/P","pictures/stimuli/P","F","M","5","5703b0cbd4cf7f000d94ec57","07/06/2022, 19:20:12",0.359939112926292,"34","Female","right",1,1,0,0,FALSE,"P_F_nicola_sturge.png P_M_Tony_Blair.png"
5469,"E_M_Russell_Howard.png","P_M_Sajid_Javid.png","FALSE","pictures/stimuli/E","pictures/stimuli/P","M","M","3","5703b0cbd4cf7f000d94ec57","07/06/2022, 19:20:12",-0.75206790261835,"34","Female","right",1,1,0,0,FALSE,"E_M_Russell_Howard.png P_M_Sajid_Javid.png"
3096,"E_F_Dawn_Roma_French.png","P_M_nigel_farage.png","FALSE","pictures/stimuli/E","pictures/stimuli/P","F","M","6","5703b0cbd4cf7f000d94ec57","07/06/2022, 19:20:12",0.915942620698612,"34","Female","right",1,1,0,0,FALSE,"E_F_Dawn_Roma_French.png P_M_nigel_farage.png"
3444,"E_M_Ewan_McGregor.png","E_M_Peter_Kay.png","TRUE","pictures/stimuli/E","pictures/stimuli/E","M","M","5","5703b0cbd4cf7f000d94ec57","07/06/2022, 19:20:12",0.359939112926292,"34","Female","right",1,1,0,0,FALSE,"E_M_Ewan_McGregor.png E_M_Peter_Kay.png"
3066,"E_M_Ewan_McGregor.png","E_M_Russell_Howard.png","TRUE","pictures/stimuli/E","pictures/stimuli/E","M","M","4","5703b0cbd4cf7f000d94ec57","07/06/2022, 19:20:12",-0.196064394846029,"34","Female","right",1,1,0,0,FALSE,"E_M_Ewan_McGregor.png E_M_Russell_Howard.png"
2492,"P_F_nicola_sturge.png","P_M_Sajid_Javid.png","TRUE","pictures/stimuli/P","pictures/stimuli/P","F","M","5","5703b0cbd4cf7f000d94ec57","07/06/2022, 19:20:12",0.359939112926292,"34","Female","right",1,1,0,0,FALSE,"P_F_nicola_sturge.png P_M_Sajid_Javid.png"
4304,"E_M_Michael_McIntyr.png","E_M_Peter_Kay.png","TRUE","pictures/stimuli/E","pictures/stimuli/E","M","M","5","5703b0cbd4cf7f000d94ec57","07/06/2022, 19:20:12",0.359939112926292,"34","Female","right",1,1,0,0,FALSE,"E_M_Michael_McIntyr.png E_M_Peter_Kay.png"
3773,"P_F_Theresa_May.png","P_M_david_camer.png","TRUE","pictures/stimuli/P","pictures/stimuli/P","F","M","2","5703b0cbd4cf7f000d94ec57","07/06/2022, 19:20:12",-1.30807141039067,"34","Female","right",1,1,0,0,FALSE,"P_F_Theresa_May.png P_M_david_camer.png"
2848,"E_F_Sarah_Millican.png","P_M_Tony_Blair.png","FALSE","pictures/stimuli/E","pictures/stimuli/P","F","M","5","5703b0cbd4cf7f000d94ec57","07/06/2022, 19:20:12",0.359939112926292,"34","Female","right",1,1,0,0,FALSE,"E_F_Sarah_Millican.png P_M_Tony_Blair.png"
2777,"E_M_Peter_Kay.png","P_M_Gordon_Brown.png","FALSE","pictures/stimuli/E","pictures/stimuli/P","M","M","5","5703b0cbd4cf7f000d94ec57","07/06/2022, 19:20:12",0.359939112926292,"34","Female","right",1,1,0,0,FALSE,"E_M_Peter_Kay.png P_M_Gordon_Brown.png"
2545,"E_F_Julie_Walters.png","P_M_david_camer.png","FALSE","pictures/stimuli/E","pictures/stimuli/P","F","M","5","5703b0cbd4cf7f000d94ec57","07/06/2022, 19:20:12",0.359939112926292,"34","Female","right",1,1,0,0,FALSE,"E_F_Julie_Walters.png P_M_david_camer.png"
3925,"E_F_Jennifer_Saunders.png","P_M_Sajid_Javid.png","FALSE","pictures/stimuli/E","pictures/stimuli/P","F","M","6","5703b0cbd4cf7f000d94ec57","07/06/2022, 19:20:12",0.915942620698612,"34","Female","right",1,1,0,0,FALSE,"E_F_Jennifer_Saunders.png P_M_Sajid_Javid.png"
3830,"E_M_Peter_Kay.png","P_M_Sajid_Javid.png","FALSE","pictures/stimuli/E","pictures/stimuli/P","M","M","5","5703b0cbd4cf7f000d94ec57","07/06/2022, 19:20:12",0.359939112926292,"34","Female","right",1,1,0,0,FALSE,"E_M_Peter_Kay.png P_M_Sajid_Javid.png"
3335,"E_M_Jimmy_Carr.png","P_M_nigel_farage.png","FALSE","pictures/stimuli/E","pictures/stimuli/P","M","M","5","5703b0cbd4cf7f000d94ec57","07/06/2022, 19:20:12",0.359939112926292,"34","Female","right",1,1,0,0,FALSE,"E_M_Jimmy_Carr.png P_M_nigel_farage.png"
3682,"P_M_jeremy_corbyn.png","P_M_Tony_Blair.png","TRUE","pictures/stimuli/P","pictures/stimuli/P","M","M","3","5703b0cbd4cf7f000d94ec57","07/06/2022, 19:20:12",-0.75206790261835,"34","Female","right",1,1,0,0,FALSE,"P_M_jeremy_corbyn.png P_M_Tony_Blair.png"
3252,"P_M_nigel_farage.png","P_M_Sajid_Javid.png","TRUE","pictures/stimuli/P","pictures/stimuli/P","M","M","5","5703b0cbd4cf7f000d94ec57","07/06/2022, 19:20:12",0.359939112926292,"34","Female","right",1,1,0,0,FALSE,"P_M_nigel_farage.png P_M_Sajid_Javid.png"
4197,"E_M_Michael_McIntyr.png","P_F_Theresa_May.png","FALSE","pictures/stimuli/E","pictures/stimuli/P","M","F","6","5703b0cbd4cf7f000d94ec57","07/06/2022, 19:20:12",0.915942620698612,"34","Female","right",1,1,0,0,FALSE,"E_M_Michael_McIntyr.png P_F_Theresa_May.png"
5539,"P_M_Sajid_Javid.png","P_M_Tony_Blair.png","TRUE","pictures/stimuli/P","pictures/stimuli/P","M","M","5","5703b0cbd4cf7f000d94ec57","07/06/2022, 19:20:12",0.359939112926292,"34","Female","right",1,1,0,0,FALSE,"P_M_Sajid_Javid.png P_M_Tony_Blair.png"
4024,"E_M_Peter_Kay.png","E_M_Simon_Pegg.png","TRUE","pictures/stimuli/E","pictures/stimuli/E","M","M","5","5703b0cbd4cf7f000d94ec57","07/06/2022, 19:20:12",0.359939112926292,"34","Female","right",1,1,0,0,FALSE,"E_M_Peter_Kay.png E_M_Simon_Pegg.png"
2736,"E_F_Dawn_Roma_French.png","P_M_keir_starmer.png","FALSE","pictures/stimuli/E","pictures/stimuli/P","F","M","6","5703b0cbd4cf7f000d94ec57","07/06/2022, 19:20:12",0.915942620698612,"34","Female","right",1,1,0,0,FALSE,"E_F_Dawn_Roma_French.png P_M_keir_starmer.png"
3195,"E_M_Michael_McIntyr.png","P_M_nigel_farage.png","FALSE","pictures/stimuli/E","pictures/stimuli/P","M","M","6","5703b0cbd4cf7f000d94ec57","07/06/2022, 19:20:12",0.915942620698612,"34","Female","right",1,1,0,0,FALSE,"E_M_Michael_McIntyr.png P_M_nigel_farage.png"
2401,"E_F_Jennifer_Saunders.png","P_M_nigel_farage.png","FALSE","pictures/stimuli/E","pictures/stimuli/P","F","M","6","5703b0cbd4cf7f000d94ec57","07/06/2022, 19:20:12",0.915942620698612,"34","Female","right",1,1,0,0,FALSE,"E_F_Jennifer_Saunders.png P_M_nigel_farage.png"
4336,"E_F_Dawn_Roma_French.png","E_M_Jimmy_Carr.png","TRUE","pictures/stimuli/E","pictures/stimuli/E","F","M","2","5703b0cbd4cf7f000d94ec57","07/06/2022, 19:20:12",-1.30807141039067,"34","Female","right",1,1,0,0,FALSE,"E_F_Dawn_Roma_French.png E_M_Jimmy_Carr.png"
2594,"E_F_Sarah_Millican.png","P_F_Theresa_May.png","FALSE","pictures/stimuli/E","pictures/stimuli/P","F","F","6","5703b0cbd4cf7f000d94ec57","07/06/2022, 19:20:12",0.915942620698612,"34","Female","right",1,1,0,0,FALSE,"E_F_Sarah_Millican.png P_F_Theresa_May.png"
3042,"E_F_Sarah_Millican.png","P_M_Gordon_Brown.png","FALSE","pictures/stimuli/E","pictures/stimuli/P","F","M","5","5703b0cbd4cf7f000d94ec57","07/06/2022, 19:20:12",0.359939112926292,"34","Female","right",1,1,0,0,FALSE,"E_F_Sarah_Millican.png P_M_Gordon_Brown.png"
3457,"P_M_david_camer.png","P_M_Gordon_Brown.png","TRUE","pictures/stimuli/P","pictures/stimuli/P","M","M","2","5703b0cbd4cf7f000d94ec57","07/06/2022, 19:20:12",-1.30807141039067,"34","Female","right",1,1,0,0,FALSE,"P_M_david_camer.png P_M_Gordon_Brown.png"
3357,"E_F_Dawn_Roma_French.png","P_M_Michael_Gove.png","FALSE","pictures/stimuli/E","pictures/stimuli/P","F","M","6","5703b0cbd4cf7f000d94ec57","07/06/2022, 19:20:12",0.915942620698612,"34","Female","right",1,1,0,0,FALSE,"E_F_Dawn_Roma_French.png P_M_Michael_Gove.png"
2515,"P_F_nicola_sturge.png","P_M_nigel_farage.png","TRUE","pictures/stimuli/P","pictures/stimuli/P","F","M","6","5703b0cbd4cf7f000d94ec57","07/06/2022, 19:20:12",0.915942620698612,"34","Female","right",1,1,0,0,FALSE,"P_F_nicola_sturge.png P_M_nigel_farage.png"
2713,"E_F_Dawn_Roma_French.png","E_M_Ewan_McGregor.png","TRUE","pictures/stimuli/E","pictures/stimuli/E","F","M","3","5703b0cbd4cf7f000d94ec57","07/06/2022, 19:20:12",-0.75206790261835,"34","Female","right",1,1,0,0,FALSE,"E_F_Dawn_Roma_French.png E_M_Ewan_McGregor.png"
2851,"E_F_Julie_Walters.png","P_M_Gordon_Brown.png","FALSE","pictures/stimuli/E","pictures/stimuli/P","F","M","6","5703b0cbd4cf7f000d94ec57","07/06/2022, 19:20:12",0.915942620698612,"34","Female","right",1,1,0,0,FALSE,"E_F_Julie_Walters.png P_M_Gordon_Brown.png"
3203,"E_F_Sarah_Millican.png","P_M_david_camer.png","FALSE","pictures/stimuli/E","pictures/stimuli/P","F","M","6","5703b0cbd4cf7f000d94ec57","07/06/2022, 19:20:12",0.915942620698612,"34","Female","right",1,1,0,0,FALSE,"E_F_Sarah_Millican.png P_M_david_camer.png"
3506,"E_M_Simon_Pegg.png","P_M_nigel_farage.png","FALSE","pictures/stimuli/E","pictures/stimuli/P","M","M","5","5703b0cbd4cf7f000d94ec57","07/06/2022, 19:20:12",0.359939112926292,"34","Female","right",1,1,0,0,FALSE,"E_M_Simon_Pegg.png P_M_nigel_farage.png"
2618,"E_F_Dawn_Roma_French.png","E_M_Michael_McIntyr.png","TRUE","pictures/stimuli/E","pictures/stimuli/E","F","M","2","5703b0cbd4cf7f000d94ec57","07/06/2022, 19:20:12",-1.30807141039067,"34","Female","right",1,1,0,0,FALSE,"E_F_Dawn_Roma_French.png E_M_Michael_McIntyr.png"
2520,"E_F_Dawn_Roma_French.png","P_M_Tony_Blair.png","FALSE","pictures/stimuli/E","pictures/stimuli/P","F","M","6","5703b0cbd4cf7f000d94ec57","07/06/2022, 19:20:12",0.915942620698612,"34","Female","right",1,1,0,0,FALSE,"E_F_Dawn_Roma_French.png P_M_Tony_Blair.png"
3269,"E_F_Dawn_Roma_French.png","P_F_nicola_sturge.png","FALSE","pictures/stimuli/E","pictures/stimuli/P","F","F","5","5703b0cbd4cf7f000d94ec57","07/06/2022, 19:20:12",0.359939112926292,"34","Female","right",1,1,0,0,FALSE,"E_F_Dawn_Roma_French.png P_F_nicola_sturge.png"
4930,"E_M_Michael_McIntyr.png","P_M_Gordon_Brown.png","FALSE","pictures/stimuli/E","pictures/stimuli/P","M","M","5","5703b0cbd4cf7f000d94ec57","07/06/2022, 19:20:12",0.359939112926292,"34","Female","right",1,1,0,0,FALSE,"E_M_Michael_McIntyr.png P_M_Gordon_Brown.png"
2533,"E_M_Ewan_McGregor.png","P_M_nigel_farage.png","FALSE","pictures/stimuli/E","pictures/stimuli/P","M","M","6","5703b0cbd4cf7f000d94ec57","07/06/2022, 19:20:12",0.915942620698612,"34","Female","right",1,1,0,0,FALSE,"E_M_Ewan_McGregor.png P_M_nigel_farage.png"
3299,"P_F_nicola_sturge.png","P_M_david_camer.png","TRUE","pictures/stimuli/P","pictures/stimuli/P","F","M","4","5703b0cbd4cf7f000d94ec57","07/06/2022, 19:20:12",-0.196064394846029,"34","Female","right",1,1,0,0,FALSE,"P_F_nicola_sturge.png P_M_david_camer.png"
2144,"P_M_nigel_farage.png","P_M_Tony_Blair.png","TRUE","pictures/stimuli/P","pictures/stimuli/P","M","M","4","5703b0cbd4cf7f000d94ec57","07/06/2022, 19:20:12",-0.196064394846029,"34","Female","right",1,1,0,0,FALSE,"P_M_nigel_farage.png P_M_Tony_Blair.png"
2449,"E_M_Ewan_McGregor.png","P_M_Michael_Gove.png","FALSE","pictures/stimuli/E","pictures/stimuli/P","M","M","6","5703b0cbd4cf7f000d94ec57","07/06/2022, 19:20:12",0.915942620698612,"34","Female","right",1,1,0,0,FALSE,"E_M_Ewan_McGregor.png P_M_Michael_Gove.png"
5338,"E_F_Julie_Walters.png","P_F_Theresa_May.png","FALSE","pictures/stimuli/E","pictures/stimuli/P","F","F","6","5703b0cbd4cf7f000d94ec57","07/06/2022, 19:20:12",0.915942620698612,"34","Female","right",1,1,0,0,FALSE,"E_F_Julie_Walters.png P_F_Theresa_May.png"
2306,"E_F_Julie_Walters.png","P_M_keir_starmer.png","FALSE","pictures/stimuli/E","pictures/stimuli/P","F","M","6","5703b0cbd4cf7f000d94ec57","07/06/2022, 19:20:12",0.915942620698612,"34","Female","right",1,1,0,0,FALSE,"E_F_Julie_Walters.png P_M_keir_starmer.png"
3194,"E_F_Sarah_Millican.png","E_M_Peter_Kay.png","TRUE","pictures/stimuli/E","pictures/stimuli/E","F","M","2","5703b0cbd4cf7f000d94ec57","07/06/2022, 19:20:12",-1.30807141039067,"34","Female","right",1,1,0,0,FALSE,"E_F_Sarah_Millican.png E_M_Peter_Kay.png"
2705,"E_F_Sarah_Millican.png","P_M_jeremy_corbyn.png","FALSE","pictures/stimuli/E","pictures/stimuli/P","F","M","4","5703b0cbd4cf7f000d94ec57","07/06/2022, 19:20:12",-0.196064394846029,"34","Female","right",1,1,0,0,FALSE,"E_F_Sarah_Millican.png P_M_jeremy_corbyn.png"
3700,"E_F_Sarah_Millican.png","E_M_Russell_Howard.png","TRUE","pictures/stimuli/E","pictures/stimuli/E","F","M","2","5703b0cbd4cf7f000d94ec57","07/06/2022, 19:20:12",-1.30807141039067,"34","Female","right",1,1,0,0,FALSE,"E_F_Sarah_Millican.png E_M_Russell_Howard.png"
2531,"E_M_Russell_Howard.png","P_M_Gordon_Brown.png","FALSE","pictures/stimuli/E","pictures/stimuli/P","M","M","5","5703b0cbd4cf7f000d94ec57","07/06/2022, 19:20:12",0.359939112926292,"34","Female","right",1,1,0,0,FALSE,"E_M_Russell_Howard.png P_M_Gordon_Brown.png"
3088,"E_F_Sarah_Millican.png","P_M_Sajid_Javid.png","FALSE","pictures/stimuli/E","pictures/stimuli/P","F","M","6","5703b0cbd4cf7f000d94ec57","07/06/2022, 19:20:12",0.915942620698612,"34","Female","right",1,1,0,0,FALSE,"E_F_Sarah_Millican.png P_M_Sajid_Javid.png"
2807,"E_M_Simon_Pegg.png","P_M_keir_starmer.png","FALSE","pictures/stimuli/E","pictures/stimuli/P","M","M","2","5703b0cbd4cf7f000d94ec57","07/06/2022, 19:20:12",-1.30807141039067,"34","Female","right",1,1,0,0,FALSE,"E_M_Simon_Pegg.png P_M_keir_starmer.png"
2614,"P_F_Theresa_May.png","P_M_Sajid_Javid.png","TRUE","pictures/stimuli/P","pictures/stimuli/P","F","M","2","5703b0cbd4cf7f000d94ec57","07/06/2022, 19:20:12",-1.30807141039067,"34","Female","right",1,1,0,0,FALSE,"P_F_Theresa_May.png P_M_Sajid_Javid.png"
2657,"P_M_jeremy_corbyn.png","P_M_Michael_Gove.png","TRUE","pictures/stimuli/P","pictures/stimuli/P","M","M","2","5703b0cbd4cf7f000d94ec57","07/06/2022, 19:20:12",-1.30807141039067,"34","Female","right",1,1,0,0,FALSE,"P_M_jeremy_corbyn.png P_M_Michael_Gove.png"
3415,"E_F_Julie_Walters.png","E_F_Sarah_Millican.png","TRUE","pictures/stimuli/E","pictures/stimuli/E","F","F","2","5703b0cbd4cf7f000d94ec57","07/06/2022, 19:20:12",-1.30807141039067,"34","Female","right",1,1,0,0,FALSE,"E_F_Julie_Walters.png E_F_Sarah_Millican.png"
3662,"E_F_Jennifer_Saunders.png","P_M_Tony_Blair.png","FALSE","pictures/stimuli/E","pictures/stimuli/P","F","M","6","5703b0cbd4cf7f000d94ec57","07/06/2022, 19:20:12",0.915942620698612,"34","Female","right",1,1,0,0,FALSE,"E_F_Jennifer_Saunders.png P_M_Tony_Blair.png"
4092,"P_F_Theresa_May.png","P_M_Gordon_Brown.png","TRUE","pictures/stimuli/P","pictures/stimuli/P","F","M","1","5703b0cbd4cf7f000d94ec57","07/06/2022, 19:20:12",-1.86407491816299,"34","Female","right",1,1,0,0,FALSE,"P_F_Theresa_May.png P_M_Gordon_Brown.png"
2605,"E_F_Jennifer_Saunders.png","P_M_jeremy_corbyn.png","FALSE","pictures/stimuli/E","pictures/stimuli/P","F","M","5","5703b0cbd4cf7f000d94ec57","07/06/2022, 19:20:12",0.359939112926292,"34","Female","right",1,1,0,0,FALSE,"E_F_Jennifer_Saunders.png P_M_jeremy_corbyn.png"
3480,"P_F_nicola_sturge.png","P_F_Theresa_May.png","TRUE","pictures/stimuli/P","pictures/stimuli/P","F","F","2","5703b0cbd4cf7f000d94ec57","07/06/2022, 19:20:12",-1.30807141039067,"34","Female","right",1,1,0,0,FALSE,"P_F_nicola_sturge.png P_F_Theresa_May.png"
5140,"E_F_Julie_Walters.png","E_M_Simon_Pegg.png","TRUE","pictures/stimuli/E","pictures/stimuli/E","F","M","5","5703b0cbd4cf7f000d94ec57","07/06/2022, 19:20:12",0.359939112926292,"34","Female","right",1,1,0,0,FALSE,"E_F_Julie_Walters.png E_M_Simon_Pegg.png"
2194,"E_F_Julie_Walters.png","P_M_Michael_Gove.png","FALSE","pictures/stimuli/E","pictures/stimuli/P","F","M","5","5703b0cbd4cf7f000d94ec57","07/06/2022, 19:20:12",0.359939112926292,"34","Female","right",1,1,0,0,FALSE,"E_F_Julie_Walters.png P_M_Michael_Gove.png"
7270,"E_M_Jimmy_Carr.png","P_M_Tony_Blair.png","FALSE","pictures/stimuli/E","pictures/stimuli/P","M","M","6","5703b0cbd4cf7f000d94ec57","07/06/2022, 19:20:12",0.915942620698612,"34","Female","right",1,1,0,0,FALSE,"E_M_Jimmy_Carr.png P_M_Tony_Blair.png"
3883,"E_F_Jennifer_Saunders.png","P_M_Michael_Gove.png","FALSE","pictures/stimuli/E","pictures/stimuli/P","F","M","6","5703b0cbd4cf7f000d94ec57","07/06/2022, 19:20:12",0.915942620698612,"34","Female","right",1,1,0,0,FALSE,"E_F_Jennifer_Saunders.png P_M_Michael_Gove.png"
2239,"E_M_Peter_Kay.png","P_M_nigel_farage.png","FALSE","pictures/stimuli/E","pictures/stimuli/P","M","M","4","5703b0cbd4cf7f000d94ec57","07/06/2022, 19:20:12",-0.196064394846029,"34","Female","right",1,1,0,0,FALSE,"E_M_Peter_Kay.png P_M_nigel_farage.png"
3014,"P_M_jeremy_corbyn.png","P_M_Sajid_Javid.png","TRUE","pictures/stimuli/P","pictures/stimuli/P","M","M","2","5703b0cbd4cf7f000d94ec57","07/06/2022, 19:20:12",-1.30807141039067,"34","Female","right",1,1,0,0,FALSE,"P_M_jeremy_corbyn.png P_M_Sajid_Javid.png"
4902,"P_F_nicola_sturge.png","P_M_jeremy_corbyn.png","TRUE","pictures/stimuli/P","pictures/stimuli/P","F","M","2","5703b0cbd4cf7f000d94ec57","07/06/2022, 19:20:12",-1.30807141039067,"34","Female","right",1,1,0,0,FALSE,"P_F_nicola_sturge.png P_M_jeremy_corbyn.png"
2453,"P_M_Gordon_Brown.png","P_M_nigel_farage.png","TRUE","pictures/stimuli/P","pictures/stimuli/P","M","M","3","5703b0cbd4cf7f000d94ec57","07/06/2022, 19:20:12",-0.75206790261835,"34","Female","right",1,1,0,0,FALSE,"P_M_Gordon_Brown.png P_M_nigel_farage.png"
2987,"E_M_Michael_McIntyr.png","P_M_Sajid_Javid.png","FALSE","pictures/stimuli/E","pictures/stimuli/P","M","M","6","5703b0cbd4cf7f000d94ec57","07/06/2022, 19:20:12",0.915942620698612,"34","Female","right",1,1,0,0,FALSE,"E_M_Michael_McIntyr.png P_M_Sajid_Javid.png"
2834,"E_F_Jennifer_Saunders.png","P_F_nicola_sturge.png","FALSE","pictures/stimuli/E","pictures/stimuli/P","F","F","5","5703b0cbd4cf7f000d94ec57","07/06/2022, 19:20:12",0.359939112926292,"34","Female","right",1,1,0,0,FALSE,"E_F_Jennifer_Saunders.png P_F_nicola_sturge.png"
3964,"E_F_Julie_Walters.png","P_M_Tony_Blair.png","FALSE","pictures/stimuli/E","pictures/stimuli/P","F","M","6","5703b0cbd4cf7f000d94ec57","07/06/2022, 19:20:12",0.915942620698612,"34","Female","right",1,1,0,0,FALSE,"E_F_Julie_Walters.png P_M_Tony_Blair.png"
3849,"P_F_nicola_sturge.png","P_M_Gordon_Brown.png","TRUE","pictures/stimuli/P","pictures/stimuli/P","F","M","2","5703b0cbd4cf7f000d94ec57","07/06/2022, 19:20:12",-1.30807141039067,"34","Female","right",1,1,0,0,FALSE,"P_F_nicola_sturge.png P_M_Gordon_Brown.png"
2115,"E_M_Ewan_McGregor.png","E_M_Simon_Pegg.png","TRUE","pictures/stimuli/E","pictures/stimuli/E","M","M","6","5703b0cbd4cf7f000d94ec57","07/06/2022, 19:20:12",0.915942620698612,"34","Female","right",1,1,0,0,FALSE,"E_M_Ewan_McGregor.png E_M_Simon_Pegg.png"
3028,"P_F_Theresa_May.png","P_M_jeremy_corbyn.png","TRUE","pictures/stimuli/P","pictures/stimuli/P","F","M","2","5703b0cbd4cf7f000d94ec57","07/06/2022, 19:20:12",-1.30807141039067,"34","Female","right",1,1,0,0,FALSE,"P_F_Theresa_May.png P_M_jeremy_corbyn.png"
2461,"E_M_Jimmy_Carr.png","P_M_Michael_Gove.png","FALSE","pictures/stimuli/E","pictures/stimuli/P","M","M","6","5703b0cbd4cf7f000d94ec57","07/06/2022, 19:20:12",0.915942620698612,"34","Female","right",1,1,0,0,FALSE,"E_M_Jimmy_Carr.png P_M_Michael_Gove.png"
2733,"P_M_david_camer.png","P_M_Michael_Gove.png","TRUE","pictures/stimuli/P","pictures/stimuli/P","M","M","2","5703b0cbd4cf7f000d94ec57","07/06/2022, 19:20:12",-1.30807141039067,"34","Female","right",1,1,0,0,FALSE,"P_M_david_camer.png P_M_Michael_Gove.png"
3753,"E_M_Peter_Kay.png","E_M_Russell_Howard.png","TRUE","pictures/stimuli/E","pictures/stimuli/E","M","M","1","5703b0cbd4cf7f000d94ec57","07/06/2022, 19:20:12",-1.86407491816299,"34","Female","right",1,1,0,0,FALSE,"E_M_Peter_Kay.png E_M_Russell_Howard.png"
3164,"E_F_Dawn_Roma_French.png","P_M_jeremy_corbyn.png","FALSE","pictures/stimuli/E","pictures/stimuli/P","F","M","6","5703b0cbd4cf7f000d94ec57","07/06/2022, 19:20:12",0.915942620698612,"34","Female","right",1,1,0,0,FALSE,"E_F_Dawn_Roma_French.png P_M_jeremy_corbyn.png"
4162,"E_F_Dawn_Roma_French.png","E_M_Peter_Kay.png","TRUE","pictures/stimuli/E","pictures/stimuli/E","F","M","1","5703b0cbd4cf7f000d94ec57","07/06/2022, 19:20:12",-1.86407491816299,"34","Female","right",1,1,0,0,FALSE,"E_F_Dawn_Roma_French.png E_M_Peter_Kay.png"
3269,"P_M_jeremy_corbyn.png","P_M_keir_starmer.png","TRUE","pictures/stimuli/P","pictures/stimuli/P","M","M","2","5703b0cbd4cf7f000d94ec57","07/06/2022, 19:20:12",-1.30807141039067,"34","Female","right",1,1,0,0,FALSE,"P_M_jeremy_corbyn.png P_M_keir_starmer.png"
3278,"E_F_Dawn_Roma_French.png","E_F_Jennifer_Saunders.png","TRUE","pictures/stimuli/E","pictures/stimuli/E","F","F","1","5703b0cbd4cf7f000d94ec57","07/06/2022, 19:20:12",-1.86407491816299,"34","Female","right",1,1,0,0,FALSE,"E_F_Dawn_Roma_French.png E_F_Jennifer_Saunders.png"
2483,"E_M_Peter_Kay.png","P_M_Michael_Gove.png","FALSE","pictures/stimuli/E","pictures/stimuli/P","M","M","6","5703b0cbd4cf7f000d94ec57","07/06/2022, 19:20:12",0.915942620698612,"34","Female","right",1,1,0,0,FALSE,"E_M_Peter_Kay.png P_M_Michael_Gove.png"
4999,"P_M_keir_starmer.png","P_M_nigel_farage.png","TRUE","pictures/stimuli/P","pictures/stimuli/P","M","M","4","5703b0cbd4cf7f000d94ec57","07/06/2022, 19:20:12",-0.196064394846029,"34","Female","right",1,1,0,0,FALSE,"P_M_keir_starmer.png P_M_nigel_farage.png"
2208,"P_F_Theresa_May.png","P_M_nigel_farage.png","TRUE","pictures/stimuli/P","pictures/stimuli/P","F","M","4","5703b0cbd4cf7f000d94ec57","07/06/2022, 19:20:12",-0.196064394846029,"34","Female","right",1,1,0,0,FALSE,"P_F_Theresa_May.png P_M_nigel_farage.png"
2334,"P_M_david_camer.png","P_M_keir_starmer.png","TRUE","pictures/stimuli/P","pictures/stimuli/P","M","M","4","5703b0cbd4cf7f000d94ec57","07/06/2022, 19:20:12",-0.196064394846029,"34","Female","right",1,1,0,0,FALSE,"P_M_david_camer.png P_M_keir_starmer.png"
4007,"P_F_Theresa_May.png","P_M_Michael_Gove.png","TRUE","pictures/stimuli/P","pictures/stimuli/P","F","M","3","5703b0cbd4cf7f000d94ec57","07/06/2022, 19:20:12",-0.75206790261835,"34","Female","right",1,1,0,0,FALSE,"P_F_Theresa_May.png P_M_Michael_Gove.png"
2748,"E_F_Sarah_Millican.png","E_M_Jimmy_Carr.png","TRUE","pictures/stimuli/E","pictures/stimuli/E","F","M","1","5703b0cbd4cf7f000d94ec57","07/06/2022, 19:20:12",-1.86407491816299,"34","Female","right",1,1,0,0,FALSE,"E_F_Sarah_Millican.png E_M_Jimmy_Carr.png"
2946,"E_M_Michael_McIntyr.png","P_F_nicola_sturge.png","FALSE","pictures/stimuli/E","pictures/stimuli/P","M","F","6","5703b0cbd4cf7f000d94ec57","07/06/2022, 19:20:12",0.915942620698612,"34","Female","right",1,1,0,0,FALSE,"E_M_Michael_McIntyr.png P_F_nicola_sturge.png"
6985,"E_F_Julie_Walters.png","E_M_Michael_McIntyr.png","TRUE","pictures/stimuli/E","pictures/stimuli/E","F","M","5","5703b0cbd4cf7f000d94ec57","07/06/2022, 19:20:12",0.359939112926292,"34","Female","right",1,1,0,0,FALSE,"E_F_Julie_Walters.png E_M_Michael_McIntyr.png"
3306,"E_F_Sarah_Millican.png","E_M_Simon_Pegg.png","TRUE","pictures/stimuli/E","pictures/stimuli/E","F","M","5","5703b0cbd4cf7f000d94ec57","07/06/2022, 19:20:12",0.359939112926292,"34","Female","right",1,1,0,0,FALSE,"E_F_Sarah_Millican.png E_M_Simon_Pegg.png"
2234,"E_F_Jennifer_Saunders.png","E_M_Simon_Pegg.png","TRUE","pictures/stimuli/E","pictures/stimuli/E","F","M","6","5703b0cbd4cf7f000d94ec57","07/06/2022, 19:20:12",0.915942620698612,"34","Female","right",1,1,0,0,FALSE,"E_F_Jennifer_Saunders.png E_M_Simon_Pegg.png"
3168,"E_F_Jennifer_Saunders.png","P_M_keir_starmer.png","FALSE","pictures/stimuli/E","pictures/stimuli/P","F","M","6","5703b0cbd4cf7f000d94ec57","07/06/2022, 19:20:12",0.915942620698612,"34","Female","right",1,1,0,0,FALSE,"E_F_Jennifer_Saunders.png P_M_keir_starmer.png"
3151,"E_M_Peter_Kay.png","P_F_nicola_sturge.png","FALSE","pictures/stimuli/E","pictures/stimuli/P","M","F","6","5703b0cbd4cf7f000d94ec57","07/06/2022, 19:20:12",0.915942620698612,"34","Female","right",1,1,0,0,FALSE,"E_M_Peter_Kay.png P_F_nicola_sturge.png"
3115,"E_F_Dawn_Roma_French.png","P_M_Gordon_Brown.png","FALSE","pictures/stimuli/E","pictures/stimuli/P","F","M","6","5703b0cbd4cf7f000d94ec57","07/06/2022, 19:20:12",0.915942620698612,"34","Female","right",1,1,0,0,FALSE,"E_F_Dawn_Roma_French.png P_M_Gordon_Brown.png"
3739,"E_F_Julie_Walters.png","P_F_nicola_sturge.png","FALSE","pictures/stimuli/E","pictures/stimuli/P","F","F","6","5703b0cbd4cf7f000d94ec57","07/06/2022, 19:20:12",0.915942620698612,"34","Female","right",1,1,0,0,FALSE,"E_F_Julie_Walters.png P_F_nicola_sturge.png"
4587,"P_F_nicola_sturge.png","P_M_Michael_Gove.png","TRUE","pictures/stimuli/P","pictures/stimuli/P","F","M","3","5703b0cbd4cf7f000d94ec57","07/06/2022, 19:20:12",-0.75206790261835,"34","Female","right",1,1,0,0,FALSE,"P_F_nicola_sturge.png P_M_Michael_Gove.png"
4016,"E_F_Sarah_Millican.png","E_M_Michael_McIntyr.png","TRUE","pictures/stimuli/E","pictures/stimuli/E","F","M","6","5703b0cbd4cf7f000d94ec57","07/06/2022, 19:20:12",0.915942620698612,"34","Female","right",1,1,0,0,FALSE,"E_F_Sarah_Millican.png E_M_Michael_McIntyr.png"
2687,"E_M_Russell_Howard.png","P_F_nicola_sturge.png","FALSE","pictures/stimuli/E","pictures/stimuli/P","M","F","6","5703b0cbd4cf7f000d94ec57","07/06/2022, 19:20:12",0.915942620698612,"34","Female","right",1,1,0,0,FALSE,"E_M_Russell_Howard.png P_F_nicola_sturge.png"
2311,"P_F_Theresa_May.png","P_M_Tony_Blair.png","TRUE","pictures/stimuli/P","pictures/stimuli/P","F","M","1","5703b0cbd4cf7f000d94ec57","07/06/2022, 19:20:12",-1.86407491816299,"34","Female","right",1,1,0,0,FALSE,"P_F_Theresa_May.png P_M_Tony_Blair.png"
3062,"E_M_Ewan_McGregor.png","P_F_Theresa_May.png","FALSE","pictures/stimuli/E","pictures/stimuli/P","M","F","6","5703b0cbd4cf7f000d94ec57","07/06/2022, 19:20:12",0.915942620698612,"34","Female","right",1,1,0,0,FALSE,"E_M_Ewan_McGregor.png P_F_Theresa_May.png"
2818,"E_F_Julie_Walters.png","E_M_Russell_Howard.png","TRUE","pictures/stimuli/E","pictures/stimuli/E","F","M","2","5703b0cbd4cf7f000d94ec57","07/06/2022, 19:20:12",-1.30807141039067,"34","Female","right",1,1,0,0,FALSE,"E_F_Julie_Walters.png E_M_Russell_Howard.png"
2355,"P_M_jeremy_corbyn.png","P_M_nigel_farage.png","TRUE","pictures/stimuli/P","pictures/stimuli/P","M","M","4","5703b0cbd4cf7f000d94ec57","07/06/2022, 19:20:12",-0.196064394846029,"34","Female","right",1,1,0,0,FALSE,"P_M_jeremy_corbyn.png P_M_nigel_farage.png"
2280,"E_M_Ewan_McGregor.png","P_M_jeremy_corbyn.png","FALSE","pictures/stimuli/E","pictures/stimuli/P","M","M","6","5703b0cbd4cf7f000d94ec57","07/06/2022, 19:20:12",0.915942620698612,"34","Female","right",1,1,0,0,FALSE,"E_M_Ewan_McGregor.png P_M_jeremy_corbyn.png"
2142,"E_F_Julie_Walters.png","P_M_jeremy_corbyn.png","FALSE","pictures/stimuli/E","pictures/stimuli/P","F","M","6","5703b0cbd4cf7f000d94ec57","07/06/2022, 19:20:12",0.915942620698612,"34","Female","right",1,1,0,0,FALSE,"E_F_Julie_Walters.png P_M_jeremy_corbyn.png"
2295,"E_M_Ewan_McGregor.png","P_M_keir_starmer.png","FALSE","pictures/stimuli/E","pictures/stimuli/P","M","M","6","5703b0cbd4cf7f000d94ec57","07/06/2022, 19:20:12",0.915942620698612,"34","Female","right",1,1,0,0,FALSE,"E_M_Ewan_McGregor.png P_M_keir_starmer.png"
3204,"E_F_Sarah_Millican.png","E_M_Ewan_McGregor.png","TRUE","pictures/stimuli/E","pictures/stimuli/E","F","M","5","5703b0cbd4cf7f000d94ec57","07/06/2022, 19:20:12",0.359939112926292,"34","Female","right",1,1,0,0,FALSE,"E_F_Sarah_Millican.png E_M_Ewan_McGregor.png"
2502,"P_F_Theresa_May.png","P_M_keir_starmer.png","TRUE","pictures/stimuli/P","pictures/stimuli/P","F","M","2","5703b0cbd4cf7f000d94ec57","07/06/2022, 19:20:12",-1.30807141039067,"34","Female","right",1,1,0,0,FALSE,"P_F_Theresa_May.png P_M_keir_starmer.png"
3169,"E_F_Jennifer_Saunders.png","E_M_Michael_McIntyr.png","TRUE","pictures/stimuli/E","pictures/stimuli/E","F","M","1","5703b0cbd4cf7f000d94ec57","07/06/2022, 19:20:12",-1.86407491816299,"34","Female","right",1,1,0,0,FALSE,"E_F_Jennifer_Saunders.png E_M_Michael_McIntyr.png"
2087,"E_F_Dawn_Roma_French.png","E_M_Simon_Pegg.png","TRUE","pictures/stimuli/E","pictures/stimuli/E","F","M","6","5703b0cbd4cf7f000d94ec57","07/06/2022, 19:20:12",0.915942620698612,"34","Female","right",1,1,0,0,FALSE,"E_F_Dawn_Roma_French.png E_M_Simon_Pegg.png"
3659,"P_M_Gordon_Brown.png","P_M_Michael_Gove.png","TRUE","pictures/stimuli/P","pictures/stimuli/P","M","M","2","5703b0cbd4cf7f000d94ec57","07/06/2022, 19:20:12",-1.30807141039067,"34","Female","right",1,1,0,0,FALSE,"P_M_Gordon_Brown.png P_M_Michael_Gove.png"
3235,"E_M_Michael_McIntyr.png","E_M_Russell_Howard.png","TRUE","pictures/stimuli/E","pictures/stimuli/E","M","M","1","5703b0cbd4cf7f000d94ec57","07/06/2022, 19:20:12",-1.86407491816299,"34","Female","right",1,1,0,0,FALSE,"E_M_Michael_McIntyr.png E_M_Russell_Howard.png"
2505,"E_F_Julie_Walters.png","E_M_Peter_Kay.png","TRUE","pictures/stimuli/E","pictures/stimuli/E","F","M","2","5703b0cbd4cf7f000d94ec57","07/06/2022, 19:20:12",-1.30807141039067,"34","Female","right",1,1,0,0,FALSE,"E_F_Julie_Walters.png E_M_Peter_Kay.png"
2457,"E_M_Peter_Kay.png","P_M_Tony_Blair.png","FALSE","pictures/stimuli/E","pictures/stimuli/P","M","M","6","5703b0cbd4cf7f000d94ec57","07/06/2022, 19:20:12",0.915942620698612,"34","Female","right",1,1,0,0,FALSE,"E_M_Peter_Kay.png P_M_Tony_Blair.png"
2567,"P_M_david_camer.png","P_M_jeremy_corbyn.png","TRUE","pictures/stimuli/P","pictures/stimuli/P","M","M","2","5703b0cbd4cf7f000d94ec57","07/06/2022, 19:20:12",-1.30807141039067,"34","Female","right",1,1,0,0,FALSE,"P_M_david_camer.png P_M_jeremy_corbyn.png"
2966,"E_M_Russell_Howard.png","E_M_Simon_Pegg.png","TRUE","pictures/stimuli/E","pictures/stimuli/E","M","M","4","5703b0cbd4cf7f000d94ec57","07/06/2022, 19:20:12",-0.196064394846029,"34","Female","right",1,1,0,0,FALSE,"E_M_Russell_Howard.png E_M_Simon_Pegg.png"
3192,"E_M_Ewan_McGregor.png","E_M_Jimmy_Carr.png","TRUE","pictures/stimuli/E","pictures/stimuli/E","M","M","5","5703b0cbd4cf7f000d94ec57","07/06/2022, 19:20:12",0.359939112926292,"34","Female","right",1,1,0,0,FALSE,"E_M_Ewan_McGregor.png E_M_Jimmy_Carr.png"
3609,"E_M_Ewan_McGregor.png","P_M_Tony_Blair.png","FALSE","pictures/stimuli/E","pictures/stimuli/P","M","M","5","5703b0cbd4cf7f000d94ec57","07/06/2022, 19:20:12",0.359939112926292,"34","Female","right",1,1,0,0,FALSE,"E_M_Ewan_McGregor.png P_M_Tony_Blair.png"
2927,"E_M_Peter_Kay.png","P_F_Theresa_May.png","FALSE","pictures/stimuli/E","pictures/stimuli/P","M","F","6","5703b0cbd4cf7f000d94ec57","07/06/2022, 19:20:12",0.915942620698612,"34","Female","right",1,1,0,0,FALSE,"E_M_Peter_Kay.png P_F_Theresa_May.png"
3546,"E_M_Russell_Howard.png","P_M_keir_starmer.png","FALSE","pictures/stimuli/E","pictures/stimuli/P","M","M","6","5703b0cbd4cf7f000d94ec57","07/06/2022, 19:20:12",0.915942620698612,"34","Female","right",1,1,0,0,FALSE,"E_M_Russell_Howard.png P_M_keir_starmer.png"
3833,"E_F_Dawn_Roma_French.png","P_M_Sajid_Javid.png","FALSE","pictures/stimuli/E","pictures/stimuli/P","F","M","6","5703b0cbd4cf7f000d94ec57","07/06/2022, 19:20:12",0.915942620698612,"34","Female","right",1,1,0,0,FALSE,"E_F_Dawn_Roma_French.png P_M_Sajid_Javid.png"
2385,"E_F_Jennifer_Saunders.png","E_F_Sarah_Millican.png","TRUE","pictures/stimuli/E","pictures/stimuli/E","F","F","1","5703b0cbd4cf7f000d94ec57","07/06/2022, 19:20:12",-1.86407491816299,"34","Female","right",1,1,0,0,FALSE,"E_F_Jennifer_Saunders.png E_F_Sarah_Millican.png"
3032,"E_M_Russell_Howard.png","P_M_nigel_farage.png","FALSE","pictures/stimuli/E","pictures/stimuli/P","M","M","6","5703b0cbd4cf7f000d94ec57","07/06/2022, 19:20:12",0.915942620698612,"34","Female","right",1,1,0,0,FALSE,"E_M_Russell_Howard.png P_M_nigel_farage.png"
3291,"E_M_Michael_McIntyr.png","P_M_jeremy_corbyn.png","FALSE","pictures/stimuli/E","pictures/stimuli/P","M","M","6","5703b0cbd4cf7f000d94ec57","07/06/2022, 19:20:12",0.915942620698612,"34","Female","right",1,1,0,0,FALSE,"E_M_Michael_McIntyr.png P_M_jeremy_corbyn.png"
3898,"E_M_Jimmy_Carr.png","E_M_Russell_Howard.png","TRUE","pictures/stimuli/E","pictures/stimuli/E","M","M","1","5703b0cbd4cf7f000d94ec57","07/06/2022, 19:20:12",-1.86407491816299,"34","Female","right",1,1,0,0,FALSE,"E_M_Jimmy_Carr.png E_M_Russell_Howard.png"
2305,"E_F_Jennifer_Saunders.png","E_M_Jimmy_Carr.png","TRUE","pictures/stimuli/E","pictures/stimuli/E","F","M","2","5703b0cbd4cf7f000d94ec57","07/06/2022, 19:20:12",-1.30807141039067,"34","Female","right",1,1,0,0,FALSE,"E_F_Jennifer_Saunders.png E_M_Jimmy_Carr.png"
2303,"E_F_Dawn_Roma_French.png","E_F_Sarah_Millican.png","TRUE","pictures/stimuli/E","pictures/stimuli/E","F","F","1","5703b0cbd4cf7f000d94ec57","07/06/2022, 19:20:12",-1.86407491816299,"34","Female","right",1,1,0,0,FALSE,"E_F_Dawn_Roma_French.png E_F_Sarah_Millican.png"
2464,"P_M_keir_starmer.png","P_M_Tony_Blair.png","TRUE","pictures/stimuli/P","pictures/stimuli/P","M","M","1","5703b0cbd4cf7f000d94ec57","07/06/2022, 19:20:12",-1.86407491816299,"34","Female","right",1,1,0,0,FALSE,"P_M_keir_starmer.png P_M_Tony_Blair.png"
2310,"E_M_Simon_Pegg.png","P_M_jeremy_corbyn.png","FALSE","pictures/stimuli/E","pictures/stimuli/P","M","M","2","5703b0cbd4cf7f000d94ec57","07/06/2022, 19:20:12",-1.30807141039067,"34","Female","right",1,1,0,0,FALSE,"E_M_Simon_Pegg.png P_M_jeremy_corbyn.png"
3048,"E_M_Michael_McIntyr.png","P_M_Michael_Gove.png","FALSE","pictures/stimuli/E","pictures/stimuli/P","M","M","6","5703b0cbd4cf7f000d94ec57","07/06/2022, 19:20:12",0.915942620698612,"34","Female","right",1,1,0,0,FALSE,"E_M_Michael_McIntyr.png P_M_Michael_Gove.png"
2187,"E_M_Ewan_McGregor.png","E_M_Michael_McIntyr.png","TRUE","pictures/stimuli/E","pictures/stimuli/E","M","M","5","5703b0cbd4cf7f000d94ec57","07/06/2022, 19:20:12",0.359939112926292,"34","Female","right",1,1,0,0,FALSE,"E_M_Ewan_McGregor.png E_M_Michael_McIntyr.png"
2326,"E_M_Simon_Pegg.png","P_M_Tony_Blair.png","FALSE","pictures/stimuli/E","pictures/stimuli/P","M","M","4","5703b0cbd4cf7f000d94ec57","07/06/2022, 19:20:12",-0.196064394846029,"34","Female","right",1,1,0,0,FALSE,"E_M_Simon_Pegg.png P_M_Tony_Blair.png"
2386,"E_M_Jimmy_Carr.png","P_M_Gordon_Brown.png","FALSE","pictures/stimuli/E","pictures/stimuli/P","M","M","6","5703b0cbd4cf7f000d94ec57","07/06/2022, 19:20:12",0.915942620698612,"34","Female","right",1,1,0,0,FALSE,"E_M_Jimmy_Carr.png P_M_Gordon_Brown.png"
2656,"E_M_Jimmy_Carr.png","P_F_Theresa_May.png","FALSE","pictures/stimuli/E","pictures/stimuli/P","M","F","6","5703b0cbd4cf7f000d94ec57","07/06/2022, 19:20:12",0.915942620698612,"34","Female","right",1,1,0,0,FALSE,"E_M_Jimmy_Carr.png P_F_Theresa_May.png"
3805,"E_M_Jimmy_Carr.png","E_M_Peter_Kay.png","TRUE","pictures/stimuli/E","pictures/stimuli/E","M","M","1","5703b0cbd4cf7f000d94ec57","07/06/2022, 19:20:12",-1.86407491816299,"34","Female","right",1,1,0,0,FALSE,"E_M_Jimmy_Carr.png E_M_Peter_Kay.png"
2057,"E_F_Jennifer_Saunders.png","P_M_Gordon_Brown.png","FALSE","pictures/stimuli/E","pictures/stimuli/P","F","M","6","5703b0cbd4cf7f000d94ec57","07/06/2022, 19:20:12",0.915942620698612,"34","Female","right",1,1,0,0,FALSE,"E_F_Jennifer_Saunders.png P_M_Gordon_Brown.png"
2053,"E_M_Russell_Howard.png","P_F_Theresa_May.png","FALSE","pictures/stimuli/E","pictures/stimuli/P","M","F","6","5703b0cbd4cf7f000d94ec57","07/06/2022, 19:20:12",0.915942620698612,"34","Female","right",1,1,0,0,FALSE,"E_M_Russell_Howard.png P_F_Theresa_May.png"
3441,"E_F_Julie_Walters.png","E_M_Ewan_McGregor.png","TRUE","pictures/stimuli/E","pictures/stimuli/E","F","M","5","5703b0cbd4cf7f000d94ec57","07/06/2022, 19:20:12",0.359939112926292,"34","Female","right",1,1,0,0,FALSE,"E_F_Julie_Walters.png E_M_Ewan_McGregor.png"
2275,"E_F_Julie_Walters.png","P_M_nigel_farage.png","FALSE","pictures/stimuli/E","pictures/stimuli/P","F","M","6","5703b0cbd4cf7f000d94ec57","07/06/2022, 19:20:12",0.915942620698612,"34","Female","right",1,1,0,0,FALSE,"E_F_Julie_Walters.png P_M_nigel_farage.png"
2382,"E_F_Dawn_Roma_French.png","P_F_Theresa_May.png","FALSE","pictures/stimuli/E","pictures/stimuli/P","F","F","6","5703b0cbd4cf7f000d94ec57","07/06/2022, 19:20:12",0.915942620698612,"34","Female","right",1,1,0,0,FALSE,"E_F_Dawn_Roma_French.png P_F_Theresa_May.png"
2691,"E_M_Ewan_McGregor.png","P_M_Gordon_Brown.png","FALSE","pictures/stimuli/E","pictures/stimuli/P","M","M","6","5703b0cbd4cf7f000d94ec57","07/06/2022, 19:20:12",0.915942620698612,"34","Female","right",1,1,0,0,FALSE,"E_M_Ewan_McGregor.png P_M_Gordon_Brown.png"
2739,"E_M_Simon_Pegg.png","P_M_Sajid_Javid.png","FALSE","pictures/stimuli/E","pictures/stimuli/P","M","M","4","5703b0cbd4cf7f000d94ec57","07/06/2022, 19:20:12",-0.196064394846029,"34","Female","right",1,1,0,0,FALSE,"E_M_Simon_Pegg.png P_M_Sajid_Javid.png"
3681,"E_M_Ewan_McGregor.png","P_F_nicola_sturge.png","FALSE","pictures/stimuli/E","pictures/stimuli/P","M","F","6","5703b0cbd4cf7f000d94ec57","07/06/2022, 19:20:12",0.915942620698612,"34","Female","right",1,1,0,0,FALSE,"E_M_Ewan_McGregor.png P_F_nicola_sturge.png"
2026,"E_M_Simon_Pegg.png","P_M_david_camer.png","FALSE","pictures/stimuli/E","pictures/stimuli/P","M","M","4","5703b0cbd4cf7f000d94ec57","07/06/2022, 19:20:12",-0.196064394846029,"34","Female","right",1,1,0,0,FALSE,"E_M_Simon_Pegg.png P_M_david_camer.png"
2887,"E_M_Jimmy_Carr.png","P_M_david_camer.png","FALSE","pictures/stimuli/E","pictures/stimuli/P","M","M","6","5703b0cbd4cf7f000d94ec57","07/06/2022, 19:20:12",0.915942620698612,"34","Female","right",1,1,0,0,FALSE,"E_M_Jimmy_Carr.png P_M_david_camer.png"
1969,"E_M_Russell_Howard.png","P_M_Tony_Blair.png","FALSE","pictures/stimuli/E","pictures/stimuli/P","M","M","6","5703b0cbd4cf7f000d94ec57","07/06/2022, 19:20:12",0.915942620698612,"34","Female","right",1,1,0,0,FALSE,"E_M_Russell_Howard.png P_M_Tony_Blair.png"
2253,"E_M_Simon_Pegg.png","P_F_Theresa_May.png","FALSE","pictures/stimuli/E","pictures/stimuli/P","M","F","4","5703b0cbd4cf7f000d94ec57","07/06/2022, 19:20:12",-0.196064394846029,"34","Female","right",1,1,0,0,FALSE,"E_M_Simon_Pegg.png P_F_Theresa_May.png"
2359,"P_M_Gordon_Brown.png","P_M_Sajid_Javid.png","TRUE","pictures/stimuli/P","pictures/stimuli/P","M","M","2","5703b0cbd4cf7f000d94ec57","07/06/2022, 19:20:12",-1.30807141039067,"34","Female","right",1,1,0,0,FALSE,"P_M_Gordon_Brown.png P_M_Sajid_Javid.png"
2625,"E_M_Peter_Kay.png","P_M_keir_starmer.png","FALSE","pictures/stimuli/E","pictures/stimuli/P","M","M","6","5703b0cbd4cf7f000d94ec57","07/06/2022, 19:20:12",0.915942620698612,"34","Female","right",1,1,0,0,FALSE,"E_M_Peter_Kay.png P_M_keir_starmer.png"
2319,"P_M_david_camer.png","P_M_Tony_Blair.png","TRUE","pictures/stimuli/P","pictures/stimuli/P","M","M","1","5703b0cbd4cf7f000d94ec57","07/06/2022, 19:20:12",-1.86407491816299,"34","Female","right",1,1,0,0,FALSE,"P_M_david_camer.png P_M_Tony_Blair.png"
2352,"E_F_Dawn_Roma_French.png","P_M_david_camer.png","FALSE","pictures/stimuli/E","pictures/stimuli/P","F","M","6","5703b0cbd4cf7f000d94ec57","07/06/2022, 19:20:12",0.915942620698612,"34","Female","right",1,1,0,0,FALSE,"E_F_Dawn_Roma_French.png P_M_david_camer.png"
1923,"E_F_Julie_Walters.png","E_M_Jimmy_Carr.png","TRUE","pictures/stimuli/E","pictures/stimuli/E","F","M","6","5703b0cbd4cf7f000d94ec57","07/06/2022, 19:20:12",0.915942620698612,"34","Female","right",1,1,0,0,FALSE,"E_F_Julie_Walters.png E_M_Jimmy_Carr.png"
3089,"E_M_Jimmy_Carr.png","P_M_Sajid_Javid.png","FALSE","pictures/stimuli/E","pictures/stimuli/P","M","M","6","5703b0cbd4cf7f000d94ec57","07/06/2022, 19:20:12",0.915942620698612,"34","Female","right",1,1,0,0,FALSE,"E_M_Jimmy_Carr.png P_M_Sajid_Javid.png"
2563,"P_M_david_camer.png","P_M_Sajid_Javid.png","TRUE","pictures/stimuli/P","pictures/stimuli/P","M","M","2","5703b0cbd4cf7f000d94ec57","07/06/2022, 19:20:12",-1.30807141039067,"34","Female","right",1,1,0,0,FALSE,"P_M_david_camer.png P_M_Sajid_Javid.png"
2393,"P_M_david_camer.png","P_M_nigel_farage.png","TRUE","pictures/stimuli/P","pictures/stimuli/P","M","M","6","5703b0cbd4cf7f000d94ec57","07/06/2022, 19:20:12",0.915942620698612,"34","Female","right",1,1,0,0,FALSE,"P_M_david_camer.png P_M_nigel_farage.png"
2576,"E_F_Sarah_Millican.png","P_M_nigel_farage.png","FALSE","pictures/stimuli/E","pictures/stimuli/P","F","M","6","5703b0cbd4cf7f000d94ec57","07/06/2022, 19:20:12",0.915942620698612,"34","Female","right",1,1,0,0,FALSE,"E_F_Sarah_Millican.png P_M_nigel_farage.png"
2380,"P_M_Michael_Gove.png","P_M_Sajid_Javid.png","TRUE","pictures/stimuli/P","pictures/stimuli/P","M","M","2","5703b0cbd4cf7f000d94ec57","07/06/2022, 19:20:12",-1.30807141039067,"34","Female","right",1,1,0,0,FALSE,"P_M_Michael_Gove.png P_M_Sajid_Javid.png"
3083,"P_M_Gordon_Brown.png","P_M_Tony_Blair.png","TRUE","pictures/stimuli/P","pictures/stimuli/P","M","M","1","5703b0cbd4cf7f000d94ec57","07/06/2022, 19:20:12",-1.86407491816299,"34","Female","right",1,1,0,0,FALSE,"P_M_Gordon_Brown.png P_M_Tony_Blair.png"
2325,"E_F_Jennifer_Saunders.png","E_M_Peter_Kay.png","TRUE","pictures/stimuli/E","pictures/stimuli/E","F","M","2","5703b0cbd4cf7f000d94ec57","07/06/2022, 19:20:12",-1.30807141039067,"34","Female","right",1,1,0,0,FALSE,"E_F_Jennifer_Saunders.png E_M_Peter_Kay.png"
2438,"E_M_Michael_McIntyr.png","P_M_Tony_Blair.png","FALSE","pictures/stimuli/E","pictures/stimuli/P","M","M","6","5703b0cbd4cf7f000d94ec57","07/06/2022, 19:20:12",0.915942620698612,"34","Female","right",1,1,0,0,FALSE,"E_M_Michael_McIntyr.png P_M_Tony_Blair.png"
2639,"E_M_Jimmy_Carr.png","E_M_Simon_Pegg.png","TRUE","pictures/stimuli/E","pictures/stimuli/E","M","M","6","5703b0cbd4cf7f000d94ec57","07/06/2022, 19:20:12",0.915942620698612,"34","Female","right",1,1,0,0,FALSE,"E_M_Jimmy_Carr.png E_M_Simon_Pegg.png"
2514,"E_F_Jennifer_Saunders.png","E_M_Russell_Howard.png","TRUE","pictures/stimuli/E","pictures/stimuli/E","F","M","2","5703b0cbd4cf7f000d94ec57","07/06/2022, 19:20:12",-1.30807141039067,"34","Female","right",1,1,0,0,FALSE,"E_F_Jennifer_Saunders.png E_M_Russell_Howard.png"
3337,"E_M_Ewan_McGregor.png","P_M_Sajid_Javid.png","FALSE","pictures/stimuli/E","pictures/stimuli/P","M","M","6","5703b0cbd4cf7f000d94ec57","07/06/2022, 19:20:12",0.915942620698612,"34","Female","right",1,1,0,0,FALSE,"E_M_Ewan_McGregor.png P_M_Sajid_Javid.png"
2378,"E_F_Dawn_Roma_French.png","E_F_Julie_Walters.png","TRUE","pictures/stimuli/E","pictures/stimuli/E","F","F","3","5703b0cbd4cf7f000d94ec57","07/06/2022, 19:20:12",-0.75206790261835,"34","Female","right",1,1,0,0,FALSE,"E_F_Dawn_Roma_French.png E_F_Julie_Walters.png"
2335,"E_M_Peter_Kay.png","P_M_jeremy_corbyn.png","FALSE","pictures/stimuli/E","pictures/stimuli/P","M","M","6","5703b0cbd4cf7f000d94ec57","07/06/2022, 19:20:12",0.915942620698612,"34","Female","right",1,1,0,0,FALSE,"E_M_Peter_Kay.png P_M_jeremy_corbyn.png"
2481,"E_M_Jimmy_Carr.png","P_F_nicola_sturge.png","FALSE","pictures/stimuli/E","pictures/stimuli/P","M","F","6","5703b0cbd4cf7f000d94ec57","07/06/2022, 19:20:12",0.915942620698612,"34","Female","right",1,1,0,0,FALSE,"E_M_Jimmy_Carr.png P_F_nicola_sturge.png"
2397,"E_F_Jennifer_Saunders.png","P_M_david_camer.png","FALSE","pictures/stimuli/E","pictures/stimuli/P","F","M","6","5703b0cbd4cf7f000d94ec57","07/06/2022, 19:20:12",0.915942620698612,"34","Female","right",1,1,0,0,FALSE,"E_F_Jennifer_Saunders.png P_M_david_camer.png"
2498,"E_M_Russell_Howard.png","P_M_jeremy_corbyn.png","FALSE","pictures/stimuli/E","pictures/stimuli/P","M","M","6","5703b0cbd4cf7f000d94ec57","07/06/2022, 19:20:12",0.915942620698612,"34","Female","right",1,1,0,0,FALSE,"E_M_Russell_Howard.png P_M_jeremy_corbyn.png"
2040,"E_F_Sarah_Millican.png","P_M_Michael_Gove.png","FALSE","pictures/stimuli/E","pictures/stimuli/P","F","M","6","5703b0cbd4cf7f000d94ec57","07/06/2022, 19:20:12",0.915942620698612,"34","Female","right",1,1,0,0,FALSE,"E_F_Sarah_Millican.png P_M_Michael_Gove.png"
3747,"E_M_Michael_McIntyr.png","P_M_david_camer.png","FALSE","pictures/stimuli/E","pictures/stimuli/P","M","M","6","5703b0cbd4cf7f000d94ec57","07/06/2022, 19:20:12",0.915942620698612,"34","Female","right",1,1,0,0,FALSE,"E_M_Michael_McIntyr.png P_M_david_camer.png"
2346,"E_F_Jennifer_Saunders.png","E_M_Ewan_McGregor.png","TRUE","pictures/stimuli/E","pictures/stimuli/E","F","M","5","5703b0cbd4cf7f000d94ec57","07/06/2022, 19:20:12",0.359939112926292,"34","Female","right",1,1,0,0,FALSE,"E_F_Jennifer_Saunders.png E_M_Ewan_McGregor.png"
1894,"E_M_Jimmy_Carr.png","P_M_keir_starmer.png","FALSE","pictures/stimuli/E","pictures/stimuli/P","M","M","6","5703b0cbd4cf7f000d94ec57","07/06/2022, 19:20:12",0.915942620698612,"34","Female","right",1,1,0,0,FALSE,"E_M_Jimmy_Carr.png P_M_keir_starmer.png"
3106,"E_M_Russell_Howard.png","P_M_david_camer.png","FALSE","pictures/stimuli/E","pictures/stimuli/P","M","M","6","5703b0cbd4cf7f000d94ec57","07/06/2022, 19:20:12",0.915942620698612,"34","Female","right",1,1,0,0,FALSE,"E_M_Russell_Howard.png P_M_david_camer.png"
2314,"E_M_Russell_Howard.png","P_M_Michael_Gove.png","FALSE","pictures/stimuli/E","pictures/stimuli/P","M","M","5","5703b0cbd4cf7f000d94ec57","07/06/2022, 19:20:12",0.359939112926292,"34","Female","right",1,1,0,0,FALSE,"E_M_Russell_Howard.png P_M_Michael_Gove.png"
7839,"E_M_Michael_McIntyr.png","P_M_nigel_farage.png","FALSE","pictures/stimuli/E","pictures/stimuli/P","M","M","4","594f2bc25c1e0700017cb0b9","07/06/2022, 19:12:56",-0.0831052089432044,"30","Female","right",1,0,0,0,TRUE,"E_M_Michael_McIntyr.png P_M_nigel_farage.png"
4705,"P_F_nicola_sturge.png","P_M_Tony_Blair.png","TRUE","pictures/stimuli/P","pictures/stimuli/P","F","M","6","594f2bc25c1e0700017cb0b9","07/06/2022, 19:12:56",2.34612397555046,"30","Female","right",1,1,0,0,TRUE,"P_F_nicola_sturge.png P_M_Tony_Blair.png"
14359,"E_M_Russell_Howard.png","P_M_Gordon_Brown.png","FALSE","pictures/stimuli/E","pictures/stimuli/P","M","M","4","594f2bc25c1e0700017cb0b9","07/06/2022, 19:12:56",-0.0831052089432044,"30","Female","right",0,0,0,0,TRUE,"E_M_Russell_Howard.png P_M_Gordon_Brown.png"
14542,"E_M_Peter_Kay.png","P_M_Michael_Gove.png","FALSE","pictures/stimuli/E","pictures/stimuli/P","M","M","3","594f2bc25c1e0700017cb0b9","07/06/2022, 19:12:56",-1.29771980119004,"30","Female","right",1,0,0,0,TRUE,"E_M_Peter_Kay.png P_M_Michael_Gove.png"
4717,"E_M_Simon_Pegg.png","P_F_nicola_sturge.png","FALSE","pictures/stimuli/E","pictures/stimuli/P","M","F","2","594f2bc25c1e0700017cb0b9","07/06/2022, 19:12:56",-2.51233439343687,"30","Female","right",0,1,0,0,TRUE,"E_M_Simon_Pegg.png P_F_nicola_sturge.png"
5526,"E_M_Jimmy_Carr.png","P_M_nigel_farage.png","FALSE","pictures/stimuli/E","pictures/stimuli/P","M","M","5","594f2bc25c1e0700017cb0b9","07/06/2022, 19:12:56",1.13150938330363,"30","Female","right",1,0,0,0,TRUE,"E_M_Jimmy_Carr.png P_M_nigel_farage.png"
31440,"E_M_Michael_McIntyr.png","P_M_jeremy_corbyn.png","FALSE","pictures/stimuli/E","pictures/stimuli/P","M","M","6","594f2bc25c1e0700017cb0b9","07/06/2022, 19:12:56",2.34612397555046,"30","Female","right",1,0,0,0,TRUE,"E_M_Michael_McIntyr.png P_M_jeremy_corbyn.png"
11273,"P_M_david_camer.png","P_M_Sajid_Javid.png","TRUE","pictures/stimuli/P","pictures/stimuli/P","M","M","4","594f2bc25c1e0700017cb0b9","07/06/2022, 19:12:56",-0.0831052089432044,"30","Female","right",0,0,0,0,TRUE,"P_M_david_camer.png P_M_Sajid_Javid.png"
28474,"E_M_Jimmy_Carr.png","P_F_Theresa_May.png","FALSE","pictures/stimuli/E","pictures/stimuli/P","M","F","6","594f2bc25c1e0700017cb0b9","07/06/2022, 19:12:56",2.34612397555046,"30","Female","right",1,0,0,0,TRUE,"E_M_Jimmy_Carr.png P_F_Theresa_May.png"
4369,"E_M_Jimmy_Carr.png","P_F_nicola_sturge.png","FALSE","pictures/stimuli/E","pictures/stimuli/P","M","F","5","594f2bc25c1e0700017cb0b9","07/06/2022, 19:12:56",1.13150938330363,"30","Female","right",1,1,0,0,TRUE,"E_M_Jimmy_Carr.png P_F_nicola_sturge.png"
15850,"P_M_Gordon_Brown.png","P_M_jeremy_corbyn.png","TRUE","pictures/stimuli/P","pictures/stimuli/P","M","M","4","594f2bc25c1e0700017cb0b9","07/06/2022, 19:12:56",-0.0831052089432044,"30","Female","right",0,0,0,0,TRUE,"P_M_Gordon_Brown.png P_M_jeremy_corbyn.png"
6004,"E_F_Sarah_Millican.png","P_M_Tony_Blair.png","FALSE","pictures/stimuli/E","pictures/stimuli/P","F","M","4","594f2bc25c1e0700017cb0b9","07/06/2022, 19:12:56",-0.0831052089432044,"30","Female","right",0,1,0,0,TRUE,"E_F_Sarah_Millican.png P_M_Tony_Blair.png"
29911,"E_M_Michael_McIntyr.png","E_M_Russell_Howard.png","TRUE","pictures/stimuli/E","pictures/stimuli/E","M","M","4","594f2bc25c1e0700017cb0b9","07/06/2022, 19:12:56",-0.0831052089432044,"30","Female","right",1,0,0,0,TRUE,"E_M_Michael_McIntyr.png E_M_Russell_Howard.png"
12079,"E_M_Ewan_McGregor.png","E_M_Michael_McIntyr.png","TRUE","pictures/stimuli/E","pictures/stimuli/E","M","M","4","594f2bc25c1e0700017cb0b9","07/06/2022, 19:12:56",-0.0831052089432044,"30","Female","right",0,1,0,0,TRUE,"E_M_Ewan_McGregor.png E_M_Michael_McIntyr.png"
5548,"E_F_Sarah_Millican.png","P_M_keir_starmer.png","FALSE","pictures/stimuli/E","pictures/stimuli/P","F","M","5","594f2bc25c1e0700017cb0b9","07/06/2022, 19:12:56",1.13150938330363,"30","Female","right",0,0,0,0,TRUE,"E_F_Sarah_Millican.png P_M_keir_starmer.png"
4280,"E_F_Dawn_Roma_French.png","E_F_Jennifer_Saunders.png","TRUE","pictures/stimuli/E","pictures/stimuli/E","F","F","4","594f2bc25c1e0700017cb0b9","07/06/2022, 19:12:56",-0.0831052089432044,"30","Female","right",0,0,0,0,TRUE,"E_F_Dawn_Roma_French.png E_F_Jennifer_Saunders.png"
4743,"E_F_Julie_Walters.png","E_M_Russell_Howard.png","TRUE","pictures/stimuli/E","pictures/stimuli/E","F","M","5","594f2bc25c1e0700017cb0b9","07/06/2022, 19:12:56",1.13150938330363,"30","Female","right",0,0,0,0,TRUE,"E_F_Julie_Walters.png E_M_Russell_Howard.png"
3656,"E_M_Simon_Pegg.png","P_M_Michael_Gove.png","FALSE","pictures/stimuli/E","pictures/stimuli/P","M","M","3","594f2bc25c1e0700017cb0b9","07/06/2022, 19:12:56",-1.29771980119004,"30","Female","right",0,0,0,0,TRUE,"E_M_Simon_Pegg.png P_M_Michael_Gove.png"
4538,"P_M_Michael_Gove.png","P_M_Tony_Blair.png","TRUE","pictures/stimuli/P","pictures/stimuli/P","M","M","4","594f2bc25c1e0700017cb0b9","07/06/2022, 19:12:56",-0.0831052089432044,"30","Female","right",0,1,0,0,TRUE,"P_M_Michael_Gove.png P_M_Tony_Blair.png"
6074,"E_M_Peter_Kay.png","P_M_Gordon_Brown.png","FALSE","pictures/stimuli/E","pictures/stimuli/P","M","M","4","594f2bc25c1e0700017cb0b9","07/06/2022, 19:12:56",-0.0831052089432044,"30","Female","right",1,0,0,0,TRUE,"E_M_Peter_Kay.png P_M_Gordon_Brown.png"
3955,"E_F_Julie_Walters.png","E_M_Peter_Kay.png","TRUE","pictures/stimuli/E","pictures/stimuli/E","F","M","5","594f2bc25c1e0700017cb0b9","07/06/2022, 19:12:56",1.13150938330363,"30","Female","right",0,1,0,0,TRUE,"E_F_Julie_Walters.png E_M_Peter_Kay.png"
3536,"E_M_Peter_Kay.png","P_M_keir_starmer.png","FALSE","pictures/stimuli/E","pictures/stimuli/P","M","M","5","594f2bc25c1e0700017cb0b9","07/06/2022, 19:12:56",1.13150938330363,"30","Female","right",1,0,0,0,TRUE,"E_M_Peter_Kay.png P_M_keir_starmer.png"
11392,"P_F_Theresa_May.png","P_M_nigel_farage.png","TRUE","pictures/stimuli/P","pictures/stimuli/P","F","M","3","594f2bc25c1e0700017cb0b9","07/06/2022, 19:12:56",-1.29771980119004,"30","Female","right",0,0,0,0,TRUE,"P_F_Theresa_May.png P_M_nigel_farage.png"
3032,"P_F_Theresa_May.png","P_M_Michael_Gove.png","TRUE","pictures/stimuli/P","pictures/stimuli/P","F","M","4","594f2bc25c1e0700017cb0b9","07/06/2022, 19:12:56",-0.0831052089432044,"30","Female","right",0,0,0,0,TRUE,"P_F_Theresa_May.png P_M_Michael_Gove.png"
6505,"E_F_Sarah_Millican.png","P_M_jeremy_corbyn.png","FALSE","pictures/stimuli/E","pictures/stimuli/P","F","M","3","594f2bc25c1e0700017cb0b9","07/06/2022, 19:12:56",-1.29771980119004,"30","Female","right",0,0,0,0,TRUE,"E_F_Sarah_Millican.png P_M_jeremy_corbyn.png"
8892,"E_F_Jennifer_Saunders.png","P_M_Sajid_Javid.png","FALSE","pictures/stimuli/E","pictures/stimuli/P","F","M","4","594f2bc25c1e0700017cb0b9","07/06/2022, 19:12:56",-0.0831052089432044,"30","Female","right",0,0,0,0,TRUE,"E_F_Jennifer_Saunders.png P_M_Sajid_Javid.png"
3371,"E_F_Julie_Walters.png","E_M_Jimmy_Carr.png","TRUE","pictures/stimuli/E","pictures/stimuli/E","F","M","5","594f2bc25c1e0700017cb0b9","07/06/2022, 19:12:56",1.13150938330363,"30","Female","right",0,1,0,0,TRUE,"E_F_Julie_Walters.png E_M_Jimmy_Carr.png"
14693,"P_M_jeremy_corbyn.png","P_M_Sajid_Javid.png","TRUE","pictures/stimuli/P","pictures/stimuli/P","M","M","3","594f2bc25c1e0700017cb0b9","07/06/2022, 19:12:56",-1.29771980119004,"30","Female","right",0,0,0,0,TRUE,"P_M_jeremy_corbyn.png P_M_Sajid_Javid.png"
3846,"E_M_Ewan_McGregor.png","P_F_Theresa_May.png","FALSE","pictures/stimuli/E","pictures/stimuli/P","M","F","5","594f2bc25c1e0700017cb0b9","07/06/2022, 19:12:56",1.13150938330363,"30","Female","right",0,0,0,0,TRUE,"E_M_Ewan_McGregor.png P_F_Theresa_May.png"
7958,"P_M_jeremy_corbyn.png","P_M_keir_starmer.png","TRUE","pictures/stimuli/P","pictures/stimuli/P","M","M","4","594f2bc25c1e0700017cb0b9","07/06/2022, 19:12:56",-0.0831052089432044,"30","Female","right",0,0,0,0,TRUE,"P_M_jeremy_corbyn.png P_M_keir_starmer.png"
2936,"E_M_Ewan_McGregor.png","P_M_keir_starmer.png","FALSE","pictures/stimuli/E","pictures/stimuli/P","M","M","4","594f2bc25c1e0700017cb0b9","07/06/2022, 19:12:56",-0.0831052089432044,"30","Female","right",0,0,0,0,TRUE,"E_M_Ewan_McGregor.png P_M_keir_starmer.png"
26581,"E_F_Jennifer_Saunders.png","P_M_nigel_farage.png","FALSE","pictures/stimuli/E","pictures/stimuli/P","F","M","4","594f2bc25c1e0700017cb0b9","07/06/2022, 19:12:56",-0.0831052089432044,"30","Female","right",0,0,0,0,TRUE,"E_F_Jennifer_Saunders.png P_M_nigel_farage.png"
10153,"E_F_Dawn_Roma_French.png","P_M_david_camer.png","FALSE","pictures/stimuli/E","pictures/stimuli/P","F","M","4","594f2bc25c1e0700017cb0b9","07/06/2022, 19:12:56",-0.0831052089432044,"30","Female","right",0,0,0,0,TRUE,"E_F_Dawn_Roma_French.png P_M_david_camer.png"
4225,"P_F_Theresa_May.png","P_M_jeremy_corbyn.png","TRUE","pictures/stimuli/P","pictures/stimuli/P","F","M","3","594f2bc25c1e0700017cb0b9","07/06/2022, 19:12:56",-1.29771980119004,"30","Female","right",0,0,0,0,TRUE,"P_F_Theresa_May.png P_M_jeremy_corbyn.png"
4012,"E_M_Peter_Kay.png","P_M_david_camer.png","FALSE","pictures/stimuli/E","pictures/stimuli/P","M","M","4","594f2bc25c1e0700017cb0b9","07/06/2022, 19:12:56",-0.0831052089432044,"30","Female","right",1,0,0,0,TRUE,"E_M_Peter_Kay.png P_M_david_camer.png"
4213,"E_M_Simon_Pegg.png","P_M_Gordon_Brown.png","FALSE","pictures/stimuli/E","pictures/stimuli/P","M","M","4","594f2bc25c1e0700017cb0b9","07/06/2022, 19:12:56",-0.0831052089432044,"30","Female","right",0,0,0,0,TRUE,"E_M_Simon_Pegg.png P_M_Gordon_Brown.png"
3905,"E_F_Sarah_Millican.png","P_M_Gordon_Brown.png","FALSE","pictures/stimuli/E","pictures/stimuli/P","F","M","5","594f2bc25c1e0700017cb0b9","07/06/2022, 19:12:56",1.13150938330363,"30","Female","right",0,0,0,0,TRUE,"E_F_Sarah_Millican.png P_M_Gordon_Brown.png"
15978,"E_F_Dawn_Roma_French.png","P_M_Gordon_Brown.png","FALSE","pictures/stimuli/E","pictures/stimuli/P","F","M","4","594f2bc25c1e0700017cb0b9","07/06/2022, 19:12:56",-0.0831052089432044,"30","Female","right",0,0,0,0,TRUE,"E_F_Dawn_Roma_French.png P_M_Gordon_Brown.png"
5293,"E_M_Russell_Howard.png","P_M_nigel_farage.png","FALSE","pictures/stimuli/E","pictures/stimuli/P","M","M","4","594f2bc25c1e0700017cb0b9","07/06/2022, 19:12:56",-0.0831052089432044,"30","Female","right",0,0,0,0,TRUE,"E_M_Russell_Howard.png P_M_nigel_farage.png"
23207,"E_M_Ewan_McGregor.png","P_M_Michael_Gove.png","FALSE","pictures/stimuli/E","pictures/stimuli/P","M","M","4","594f2bc25c1e0700017cb0b9","07/06/2022, 19:12:56",-0.0831052089432044,"30","Female","right",0,0,0,0,TRUE,"E_M_Ewan_McGregor.png P_M_Michael_Gove.png"
4182,"E_F_Jennifer_Saunders.png","P_M_jeremy_corbyn.png","FALSE","pictures/stimuli/E","pictures/stimuli/P","F","M","4","594f2bc25c1e0700017cb0b9","07/06/2022, 19:12:56",-0.0831052089432044,"30","Female","right",0,0,0,0,TRUE,"E_F_Jennifer_Saunders.png P_M_jeremy_corbyn.png"
3739,"E_F_Julie_Walters.png","P_M_Sajid_Javid.png","FALSE","pictures/stimuli/E","pictures/stimuli/P","F","M","5","594f2bc25c1e0700017cb0b9","07/06/2022, 19:12:56",1.13150938330363,"30","Female","right",0,0,0,0,TRUE,"E_F_Julie_Walters.png P_M_Sajid_Javid.png"
34023,"E_F_Jennifer_Saunders.png","P_M_david_camer.png","FALSE","pictures/stimuli/E","pictures/stimuli/P","F","M","4","594f2bc25c1e0700017cb0b9","07/06/2022, 19:12:56",-0.0831052089432044,"30","Female","right",0,0,0,0,TRUE,"E_F_Jennifer_Saunders.png P_M_david_camer.png"
11515,"P_M_david_camer.png","P_M_nigel_farage.png","TRUE","pictures/stimuli/P","pictures/stimuli/P","M","M","2","594f2bc25c1e0700017cb0b9","07/06/2022, 19:12:56",-2.51233439343687,"30","Female","right",0,0,0,0,TRUE,"P_M_david_camer.png P_M_nigel_farage.png"
3664,"E_M_Simon_Pegg.png","P_M_nigel_farage.png","FALSE","pictures/stimuli/E","pictures/stimuli/P","M","M","3","594f2bc25c1e0700017cb0b9","07/06/2022, 19:12:56",-1.29771980119004,"30","Female","right",0,0,0,0,TRUE,"E_M_Simon_Pegg.png P_M_nigel_farage.png"
12102,"E_F_Dawn_Roma_French.png","P_M_Tony_Blair.png","FALSE","pictures/stimuli/E","pictures/stimuli/P","F","M","4","594f2bc25c1e0700017cb0b9","07/06/2022, 19:12:56",-0.0831052089432044,"30","Female","right",0,1,0,0,TRUE,"E_F_Dawn_Roma_French.png P_M_Tony_Blair.png"
8711,"P_M_jeremy_corbyn.png","P_M_nigel_farage.png","TRUE","pictures/stimuli/P","pictures/stimuli/P","M","M","5","594f2bc25c1e0700017cb0b9","07/06/2022, 19:12:56",1.13150938330363,"30","Female","right",0,0,0,0,TRUE,"P_M_jeremy_corbyn.png P_M_nigel_farage.png"
9247,"E_F_Julie_Walters.png","P_M_Tony_Blair.png","FALSE","pictures/stimuli/E","pictures/stimuli/P","F","M","4","594f2bc25c1e0700017cb0b9","07/06/2022, 19:12:56",-0.0831052089432044,"30","Female","right",0,1,0,0,TRUE,"E_F_Julie_Walters.png P_M_Tony_Blair.png"
14173,"E_F_Jennifer_Saunders.png","E_F_Julie_Walters.png","TRUE","pictures/stimuli/E","pictures/stimuli/E","F","F","4","594f2bc25c1e0700017cb0b9","07/06/2022, 19:12:56",-0.0831052089432044,"30","Female","right",0,0,0,0,TRUE,"E_F_Jennifer_Saunders.png E_F_Julie_Walters.png"
12355,"E_F_Jennifer_Saunders.png","E_M_Jimmy_Carr.png","TRUE","pictures/stimuli/E","pictures/stimuli/E","F","M","4","594f2bc25c1e0700017cb0b9","07/06/2022, 19:12:56",-0.0831052089432044,"30","Female","right",0,1,0,0,TRUE,"E_F_Jennifer_Saunders.png E_M_Jimmy_Carr.png"
3011,"P_F_Theresa_May.png","P_M_Gordon_Brown.png","TRUE","pictures/stimuli/P","pictures/stimuli/P","F","M","4","594f2bc25c1e0700017cb0b9","07/06/2022, 19:12:56",-0.0831052089432044,"30","Female","right",0,0,0,0,TRUE,"P_F_Theresa_May.png P_M_Gordon_Brown.png"
26337,"E_M_Jimmy_Carr.png","P_M_keir_starmer.png","FALSE","pictures/stimuli/E","pictures/stimuli/P","M","M","4","594f2bc25c1e0700017cb0b9","07/06/2022, 19:12:56",-0.0831052089432044,"30","Female","right",1,0,0,0,TRUE,"E_M_Jimmy_Carr.png P_M_keir_starmer.png"
3308,"P_F_nicola_sturge.png","P_M_jeremy_corbyn.png","TRUE","pictures/stimuli/P","pictures/stimuli/P","F","M","4","594f2bc25c1e0700017cb0b9","07/06/2022, 19:12:56",-0.0831052089432044,"30","Female","right",1,0,0,0,TRUE,"P_F_nicola_sturge.png P_M_jeremy_corbyn.png"
3298,"E_M_Peter_Kay.png","P_F_Theresa_May.png","FALSE","pictures/stimuli/E","pictures/stimuli/P","M","F","4","594f2bc25c1e0700017cb0b9","07/06/2022, 19:12:56",-0.0831052089432044,"30","Female","right",1,0,0,0,TRUE,"E_M_Peter_Kay.png P_F_Theresa_May.png"
3970,"E_F_Sarah_Millican.png","P_M_david_camer.png","FALSE","pictures/stimuli/E","pictures/stimuli/P","F","M","3","594f2bc25c1e0700017cb0b9","07/06/2022, 19:12:56",-1.29771980119004,"30","Female","right",0,0,0,0,TRUE,"E_F_Sarah_Millican.png P_M_david_camer.png"
4591,"P_M_Gordon_Brown.png","P_M_keir_starmer.png","TRUE","pictures/stimuli/P","pictures/stimuli/P","M","M","5","594f2bc25c1e0700017cb0b9","07/06/2022, 19:12:56",1.13150938330363,"30","Female","right",0,0,0,0,TRUE,"P_M_Gordon_Brown.png P_M_keir_starmer.png"
2778,"P_M_david_camer.png","P_M_Michael_Gove.png","TRUE","pictures/stimuli/P","pictures/stimuli/P","M","M","4","594f2bc25c1e0700017cb0b9","07/06/2022, 19:12:56",-0.0831052089432044,"30","Female","right",0,0,0,0,TRUE,"P_M_david_camer.png P_M_Michael_Gove.png"
10530,"E_F_Sarah_Millican.png","E_M_Peter_Kay.png","TRUE","pictures/stimuli/E","pictures/stimuli/E","F","M","4","594f2bc25c1e0700017cb0b9","07/06/2022, 19:12:56",-0.0831052089432044,"30","Female","right",0,1,0,0,TRUE,"E_F_Sarah_Millican.png E_M_Peter_Kay.png"
26381,"E_F_Dawn_Roma_French.png","P_F_nicola_sturge.png","FALSE","pictures/stimuli/E","pictures/stimuli/P","F","F","4","594f2bc25c1e0700017cb0b9","07/06/2022, 19:12:56",-0.0831052089432044,"30","Female","right",0,1,0,0,TRUE,"E_F_Dawn_Roma_French.png P_F_nicola_sturge.png"
16022,"E_F_Dawn_Roma_French.png","E_M_Ewan_McGregor.png","TRUE","pictures/stimuli/E","pictures/stimuli/E","F","M","4","594f2bc25c1e0700017cb0b9","07/06/2022, 19:12:56",-0.0831052089432044,"30","Female","right",0,0,0,0,TRUE,"E_F_Dawn_Roma_French.png E_M_Ewan_McGregor.png"
4343,"E_M_Peter_Kay.png","P_F_nicola_sturge.png","FALSE","pictures/stimuli/E","pictures/stimuli/P","M","F","6","594f2bc25c1e0700017cb0b9","07/06/2022, 19:12:56",2.34612397555046,"30","Female","right",1,1,0,0,TRUE,"E_M_Peter_Kay.png P_F_nicola_sturge.png"
17420,"E_M_Russell_Howard.png","P_F_nicola_sturge.png","FALSE","pictures/stimuli/E","pictures/stimuli/P","M","F","4","594f2bc25c1e0700017cb0b9","07/06/2022, 19:12:56",-0.0831052089432044,"30","Female","right",0,1,0,0,TRUE,"E_M_Russell_Howard.png P_F_nicola_sturge.png"
5002,"E_M_Michael_McIntyr.png","E_M_Simon_Pegg.png","TRUE","pictures/stimuli/E","pictures/stimuli/E","M","M","6","594f2bc25c1e0700017cb0b9","07/06/2022, 19:12:56",2.34612397555046,"30","Female","right",1,0,0,0,TRUE,"E_M_Michael_McIntyr.png E_M_Simon_Pegg.png"
8803,"E_M_Russell_Howard.png","P_F_Theresa_May.png","FALSE","pictures/stimuli/E","pictures/stimuli/P","M","F","4","594f2bc25c1e0700017cb0b9","07/06/2022, 19:12:56",-0.0831052089432044,"30","Female","right",0,0,0,0,TRUE,"E_M_Russell_Howard.png P_F_Theresa_May.png"
11772,"E_M_Jimmy_Carr.png","E_M_Russell_Howard.png","TRUE","pictures/stimuli/E","pictures/stimuli/E","M","M","4","594f2bc25c1e0700017cb0b9","07/06/2022, 19:12:56",-0.0831052089432044,"30","Female","right",1,0,0,0,TRUE,"E_M_Jimmy_Carr.png E_M_Russell_Howard.png"
2594,"P_M_keir_starmer.png","P_M_Michael_Gove.png","TRUE","pictures/stimuli/P","pictures/stimuli/P","M","M","4","594f2bc25c1e0700017cb0b9","07/06/2022, 19:12:56",-0.0831052089432044,"30","Female","right",0,0,0,0,TRUE,"P_M_keir_starmer.png P_M_Michael_Gove.png"
37177,"E_M_Peter_Kay.png","E_M_Russell_Howard.png","TRUE","pictures/stimuli/E","pictures/stimuli/E","M","M","4","594f2bc25c1e0700017cb0b9","07/06/2022, 19:12:56",-0.0831052089432044,"30","Female","right",1,0,0,0,TRUE,"E_M_Peter_Kay.png E_M_Russell_Howard.png"
6804,"E_F_Dawn_Roma_French.png","E_F_Sarah_Millican.png","TRUE","pictures/stimuli/E","pictures/stimuli/E","F","F","5","594f2bc25c1e0700017cb0b9","07/06/2022, 19:12:56",1.13150938330363,"30","Female","right",0,0,0,0,TRUE,"E_F_Dawn_Roma_French.png E_F_Sarah_Millican.png"
2636,"E_F_Julie_Walters.png","E_F_Sarah_Millican.png","TRUE","pictures/stimuli/E","pictures/stimuli/E","F","F","4","594f2bc25c1e0700017cb0b9","07/06/2022, 19:12:56",-0.0831052089432044,"30","Female","right",0,0,0,0,TRUE,"E_F_Julie_Walters.png E_F_Sarah_Millican.png"
5211,"E_F_Julie_Walters.png","P_M_nigel_farage.png","FALSE","pictures/stimuli/E","pictures/stimuli/P","F","M","3","594f2bc25c1e0700017cb0b9","07/06/2022, 19:12:56",-1.29771980119004,"30","Female","right",0,0,0,0,TRUE,"E_F_Julie_Walters.png P_M_nigel_farage.png"
51284,"E_F_Dawn_Roma_French.png","P_M_jeremy_corbyn.png","FALSE","pictures/stimuli/E","pictures/stimuli/P","F","M","4","594f2bc25c1e0700017cb0b9","07/06/2022, 19:12:56",-0.0831052089432044,"30","Female","right",0,0,0,0,TRUE,"E_F_Dawn_Roma_French.png P_M_jeremy_corbyn.png"
3345,"E_F_Julie_Walters.png","P_F_Theresa_May.png","FALSE","pictures/stimuli/E","pictures/stimuli/P","F","F","4","594f2bc25c1e0700017cb0b9","07/06/2022, 19:12:56",-0.0831052089432044,"30","Female","right",0,0,0,0,TRUE,"E_F_Julie_Walters.png P_F_Theresa_May.png"
12699,"E_F_Jennifer_Saunders.png","P_M_Michael_Gove.png","FALSE","pictures/stimuli/E","pictures/stimuli/P","F","M","5","594f2bc25c1e0700017cb0b9","07/06/2022, 19:12:56",1.13150938330363,"30","Female","right",0,0,0,0,TRUE,"E_F_Jennifer_Saunders.png P_M_Michael_Gove.png"
4916,"E_M_Russell_Howard.png","P_M_david_camer.png","FALSE","pictures/stimuli/E","pictures/stimuli/P","M","M","4","594f2bc25c1e0700017cb0b9","07/06/2022, 19:12:56",-0.0831052089432044,"30","Female","right",0,0,0,0,TRUE,"E_M_Russell_Howard.png P_M_david_camer.png"
2661,"P_M_Gordon_Brown.png","P_M_Michael_Gove.png","TRUE","pictures/stimuli/P","pictures/stimuli/P","M","M","4","594f2bc25c1e0700017cb0b9","07/06/2022, 19:12:56",-0.0831052089432044,"30","Female","right",0,0,0,0,TRUE,"P_M_Gordon_Brown.png P_M_Michael_Gove.png"
4572,"P_F_nicola_sturge.png","P_M_nigel_farage.png","TRUE","pictures/stimuli/P","pictures/stimuli/P","F","M","2","594f2bc25c1e0700017cb0b9","07/06/2022, 19:12:56",-2.51233439343687,"30","Female","right",1,0,0,0,TRUE,"P_F_nicola_sturge.png P_M_nigel_farage.png"
31990,"E_M_Peter_Kay.png","E_M_Simon_Pegg.png","TRUE","pictures/stimuli/E","pictures/stimuli/E","M","M","6","594f2bc25c1e0700017cb0b9","07/06/2022, 19:12:56",2.34612397555046,"30","Female","right",1,0,0,0,TRUE,"E_M_Peter_Kay.png E_M_Simon_Pegg.png"
3425,"E_F_Julie_Walters.png","P_M_david_camer.png","FALSE","pictures/stimuli/E","pictures/stimuli/P","F","M","4","594f2bc25c1e0700017cb0b9","07/06/2022, 19:12:56",-0.0831052089432044,"30","Female","right",0,0,0,0,TRUE,"E_F_Julie_Walters.png P_M_david_camer.png"
5923,"E_M_Simon_Pegg.png","P_M_Tony_Blair.png","FALSE","pictures/stimuli/E","pictures/stimuli/P","M","M","3","594f2bc25c1e0700017cb0b9","07/06/2022, 19:12:56",-1.29771980119004,"30","Female","right",0,1,0,0,TRUE,"E_M_Simon_Pegg.png P_M_Tony_Blair.png"
4312,"P_F_Theresa_May.png","P_M_keir_starmer.png","TRUE","pictures/stimuli/P","pictures/stimuli/P","F","M","4","594f2bc25c1e0700017cb0b9","07/06/2022, 19:12:56",-0.0831052089432044,"30","Female","right",0,0,0,0,TRUE,"P_F_Theresa_May.png P_M_keir_starmer.png"
4579,"E_F_Julie_Walters.png","P_M_Michael_Gove.png","FALSE","pictures/stimuli/E","pictures/stimuli/P","F","M","4","594f2bc25c1e0700017cb0b9","07/06/2022, 19:12:56",-0.0831052089432044,"30","Female","right",0,0,0,0,TRUE,"E_F_Julie_Walters.png P_M_Michael_Gove.png"
4123,"E_M_Michael_McIntyr.png","P_M_keir_starmer.png","FALSE","pictures/stimuli/E","pictures/stimuli/P","M","M","6","594f2bc25c1e0700017cb0b9","07/06/2022, 19:12:56",2.34612397555046,"30","Female","right",1,0,0,0,TRUE,"E_M_Michael_McIntyr.png P_M_keir_starmer.png"
3826,"P_M_Sajid_Javid.png","P_M_Tony_Blair.png","TRUE","pictures/stimuli/P","pictures/stimuli/P","M","M","3","594f2bc25c1e0700017cb0b9","07/06/2022, 19:12:56",-1.29771980119004,"30","Female","right",0,1,0,0,TRUE,"P_M_Sajid_Javid.png P_M_Tony_Blair.png"
14561,"E_M_Michael_McIntyr.png","E_M_Peter_Kay.png","TRUE","pictures/stimuli/E","pictures/stimuli/E","M","M","5","594f2bc25c1e0700017cb0b9","07/06/2022, 19:12:56",1.13150938330363,"30","Female","right",1,1,0,0,TRUE,"E_M_Michael_McIntyr.png E_M_Peter_Kay.png"
17823,"E_M_Russell_Howard.png","P_M_Michael_Gove.png","FALSE","pictures/stimuli/E","pictures/stimuli/P","M","M","4","594f2bc25c1e0700017cb0b9","07/06/2022, 19:12:56",-0.0831052089432044,"30","Female","right",0,0,0,0,TRUE,"E_M_Russell_Howard.png P_M_Michael_Gove.png"
2627,"E_F_Dawn_Roma_French.png","P_M_keir_starmer.png","FALSE","pictures/stimuli/E","pictures/stimuli/P","F","M","4","594f2bc25c1e0700017cb0b9","07/06/2022, 19:12:56",-0.0831052089432044,"30","Female","right",0,0,0,0,TRUE,"E_F_Dawn_Roma_French.png P_M_keir_starmer.png"
3839,"E_F_Jennifer_Saunders.png","P_M_Tony_Blair.png","FALSE","pictures/stimuli/E","pictures/stimuli/P","F","M","3","594f2bc25c1e0700017cb0b9","07/06/2022, 19:12:56",-1.29771980119004,"30","Female","right",0,1,0,0,TRUE,"E_F_Jennifer_Saunders.png P_M_Tony_Blair.png"
11860,"E_M_Jimmy_Carr.png","P_M_jeremy_corbyn.png","FALSE","pictures/stimuli/E","pictures/stimuli/P","M","M","4","594f2bc25c1e0700017cb0b9","07/06/2022, 19:12:56",-0.0831052089432044,"30","Female","right",1,0,0,0,TRUE,"E_M_Jimmy_Carr.png P_M_jeremy_corbyn.png"
20275,"P_M_jeremy_corbyn.png","P_M_Tony_Blair.png","TRUE","pictures/stimuli/P","pictures/stimuli/P","M","M","2","594f2bc25c1e0700017cb0b9","07/06/2022, 19:12:56",-2.51233439343687,"30","Female","right",0,1,0,0,TRUE,"P_M_jeremy_corbyn.png P_M_Tony_Blair.png"
6912,"E_F_Jennifer_Saunders.png","E_M_Russell_Howard.png","TRUE","pictures/stimuli/E","pictures/stimuli/E","F","M","4","594f2bc25c1e0700017cb0b9","07/06/2022, 19:12:56",-0.0831052089432044,"30","Female","right",0,0,0,0,TRUE,"E_F_Jennifer_Saunders.png E_M_Russell_Howard.png"
3926,"P_M_Gordon_Brown.png","P_M_Tony_Blair.png","TRUE","pictures/stimuli/P","pictures/stimuli/P","M","M","4","594f2bc25c1e0700017cb0b9","07/06/2022, 19:12:56",-0.0831052089432044,"30","Female","right",0,1,0,0,TRUE,"P_M_Gordon_Brown.png P_M_Tony_Blair.png"
3838,"E_F_Sarah_Millican.png","P_F_Theresa_May.png","FALSE","pictures/stimuli/E","pictures/stimuli/P","F","F","4","594f2bc25c1e0700017cb0b9","07/06/2022, 19:12:56",-0.0831052089432044,"30","Female","right",0,0,0,0,TRUE,"E_F_Sarah_Millican.png P_F_Theresa_May.png"
5339,"E_M_Ewan_McGregor.png","P_M_jeremy_corbyn.png","FALSE","pictures/stimuli/E","pictures/stimuli/P","M","M","4","594f2bc25c1e0700017cb0b9","07/06/2022, 19:12:56",-0.0831052089432044,"30","Female","right",0,0,0,0,TRUE,"E_M_Ewan_McGregor.png P_M_jeremy_corbyn.png"
5316,"E_M_Ewan_McGregor.png","E_M_Jimmy_Carr.png","TRUE","pictures/stimuli/E","pictures/stimuli/E","M","M","4","594f2bc25c1e0700017cb0b9","07/06/2022, 19:12:56",-0.0831052089432044,"30","Female","right",0,1,0,0,TRUE,"E_M_Ewan_McGregor.png E_M_Jimmy_Carr.png"
22443,"E_M_Simon_Pegg.png","P_M_keir_starmer.png","FALSE","pictures/stimuli/E","pictures/stimuli/P","M","M","3","594f2bc25c1e0700017cb0b9","07/06/2022, 19:12:56",-1.29771980119004,"30","Female","right",0,0,0,0,TRUE,"E_M_Simon_Pegg.png P_M_keir_starmer.png"
3355,"P_M_nigel_farage.png","P_M_Tony_Blair.png","TRUE","pictures/stimuli/P","pictures/stimuli/P","M","M","3","594f2bc25c1e0700017cb0b9","07/06/2022, 19:12:56",-1.29771980119004,"30","Female","right",0,1,0,0,TRUE,"P_M_nigel_farage.png P_M_Tony_Blair.png"
3327,"E_M_Peter_Kay.png","P_M_Sajid_Javid.png","FALSE","pictures/stimuli/E","pictures/stimuli/P","M","M","6","594f2bc25c1e0700017cb0b9","07/06/2022, 19:12:56",2.34612397555046,"30","Female","right",1,0,0,0,TRUE,"E_M_Peter_Kay.png P_M_Sajid_Javid.png"
4303,"E_M_Michael_McIntyr.png","P_F_nicola_sturge.png","FALSE","pictures/stimuli/E","pictures/stimuli/P","M","F","6","594f2bc25c1e0700017cb0b9","07/06/2022, 19:12:56",2.34612397555046,"30","Female","right",1,1,0,0,TRUE,"E_M_Michael_McIntyr.png P_F_nicola_sturge.png"
22691,"E_F_Sarah_Millican.png","E_M_Ewan_McGregor.png","TRUE","pictures/stimuli/E","pictures/stimuli/E","F","M","4","594f2bc25c1e0700017cb0b9","07/06/2022, 19:12:56",-0.0831052089432044,"30","Female","right",0,0,0,0,TRUE,"E_F_Sarah_Millican.png E_M_Ewan_McGregor.png"
5121,"E_M_Michael_McIntyr.png","P_M_Sajid_Javid.png","FALSE","pictures/stimuli/E","pictures/stimuli/P","M","M","6","594f2bc25c1e0700017cb0b9","07/06/2022, 19:12:56",2.34612397555046,"30","Female","right",1,0,0,0,TRUE,"E_M_Michael_McIntyr.png P_M_Sajid_Javid.png"
4290,"E_F_Dawn_Roma_French.png","P_F_Theresa_May.png","FALSE","pictures/stimuli/E","pictures/stimuli/P","F","F","4","594f2bc25c1e0700017cb0b9","07/06/2022, 19:12:56",-0.0831052089432044,"30","Female","right",0,0,0,0,TRUE,"E_F_Dawn_Roma_French.png P_F_Theresa_May.png"
3242,"E_M_Michael_McIntyr.png","P_F_Theresa_May.png","FALSE","pictures/stimuli/E","pictures/stimuli/P","M","F","5","594f2bc25c1e0700017cb0b9","07/06/2022, 19:12:56",1.13150938330363,"30","Female","right",1,0,0,0,TRUE,"E_M_Michael_McIntyr.png P_F_Theresa_May.png"
2809,"E_M_Jimmy_Carr.png","P_M_Michael_Gove.png","FALSE","pictures/stimuli/E","pictures/stimuli/P","M","M","4","594f2bc25c1e0700017cb0b9","07/06/2022, 19:12:56",-0.0831052089432044,"30","Female","right",1,0,0,0,TRUE,"E_M_Jimmy_Carr.png P_M_Michael_Gove.png"
2489,"E_M_Simon_Pegg.png","P_M_david_camer.png","FALSE","pictures/stimuli/E","pictures/stimuli/P","M","M","4","594f2bc25c1e0700017cb0b9","07/06/2022, 19:12:56",-0.0831052089432044,"30","Female","right",0,0,0,0,TRUE,"E_M_Simon_Pegg.png P_M_david_camer.png"
4389,"E_M_Simon_Pegg.png","P_M_Sajid_Javid.png","FALSE","pictures/stimuli/E","pictures/stimuli/P","M","M","3","594f2bc25c1e0700017cb0b9","07/06/2022, 19:12:56",-1.29771980119004,"30","Female","right",0,0,0,0,TRUE,"E_M_Simon_Pegg.png P_M_Sajid_Javid.png"
14294,"E_M_Michael_McIntyr.png","P_M_Tony_Blair.png","FALSE","pictures/stimuli/E","pictures/stimuli/P","M","M","6","594f2bc25c1e0700017cb0b9","07/06/2022, 19:12:56",2.34612397555046,"30","Female","right",1,1,0,0,TRUE,"E_M_Michael_McIntyr.png P_M_Tony_Blair.png"
21655,"E_M_Russell_Howard.png","P_M_Sajid_Javid.png","FALSE","pictures/stimuli/E","pictures/stimuli/P","M","M","4","594f2bc25c1e0700017cb0b9","07/06/2022, 19:12:56",-0.0831052089432044,"30","Female","right",0,0,0,0,TRUE,"E_M_Russell_Howard.png P_M_Sajid_Javid.png"
17568,"E_F_Julie_Walters.png","P_M_keir_starmer.png","FALSE","pictures/stimuli/E","pictures/stimuli/P","F","M","4","594f2bc25c1e0700017cb0b9","07/06/2022, 19:12:56",-0.0831052089432044,"30","Female","right",0,0,0,0,TRUE,"E_F_Julie_Walters.png P_M_keir_starmer.png"
6358,"E_F_Julie_Walters.png","E_M_Michael_McIntyr.png","TRUE","pictures/stimuli/E","pictures/stimuli/E","F","M","5","594f2bc25c1e0700017cb0b9","07/06/2022, 19:12:56",1.13150938330363,"30","Female","right",0,1,0,0,TRUE,"E_F_Julie_Walters.png E_M_Michael_McIntyr.png"
3249,"E_M_Michael_McIntyr.png","P_M_Gordon_Brown.png","FALSE","pictures/stimuli/E","pictures/stimuli/P","M","M","4","594f2bc25c1e0700017cb0b9","07/06/2022, 19:12:56",-0.0831052089432044,"30","Female","right",1,0,0,0,TRUE,"E_M_Michael_McIntyr.png P_M_Gordon_Brown.png"
3956,"E_M_Michael_McIntyr.png","P_M_david_camer.png","FALSE","pictures/stimuli/E","pictures/stimuli/P","M","M","6","594f2bc25c1e0700017cb0b9","07/06/2022, 19:12:56",2.34612397555046,"30","Female","right",1,0,0,0,TRUE,"E_M_Michael_McIntyr.png P_M_david_camer.png"
7956,"E_F_Jennifer_Saunders.png","P_F_nicola_sturge.png","FALSE","pictures/stimuli/E","pictures/stimuli/P","F","F","3","594f2bc25c1e0700017cb0b9","07/06/2022, 19:12:56",-1.29771980119004,"30","Female","right",0,1,0,0,TRUE,"E_F_Jennifer_Saunders.png P_F_nicola_sturge.png"
5147,"P_M_david_camer.png","P_M_keir_starmer.png","TRUE","pictures/stimuli/P","pictures/stimuli/P","M","M","3","594f2bc25c1e0700017cb0b9","07/06/2022, 19:12:56",-1.29771980119004,"30","Female","right",0,0,0,0,TRUE,"P_M_david_camer.png P_M_keir_starmer.png"
4814,"E_M_Ewan_McGregor.png","P_F_nicola_sturge.png","FALSE","pictures/stimuli/E","pictures/stimuli/P","M","F","4","594f2bc25c1e0700017cb0b9","07/06/2022, 19:12:56",-0.0831052089432044,"30","Female","right",0,1,0,0,TRUE,"E_M_Ewan_McGregor.png P_F_nicola_sturge.png"
11170,"P_M_keir_starmer.png","P_M_Tony_Blair.png","TRUE","pictures/stimuli/P","pictures/stimuli/P","M","M","4","594f2bc25c1e0700017cb0b9","07/06/2022, 19:12:56",-0.0831052089432044,"30","Female","right",0,1,0,0,TRUE,"P_M_keir_starmer.png P_M_Tony_Blair.png"
4842,"E_M_Jimmy_Carr.png","E_M_Simon_Pegg.png","TRUE","pictures/stimuli/E","pictures/stimuli/E","M","M","5","594f2bc25c1e0700017cb0b9","07/06/2022, 19:12:56",1.13150938330363,"30","Female","right",1,0,0,0,TRUE,"E_M_Jimmy_Carr.png E_M_Simon_Pegg.png"
4040,"E_F_Jennifer_Saunders.png","P_M_Gordon_Brown.png","FALSE","pictures/stimuli/E","pictures/stimuli/P","F","M","4","594f2bc25c1e0700017cb0b9","07/06/2022, 19:12:56",-0.0831052089432044,"30","Female","right",0,0,0,0,TRUE,"E_F_Jennifer_Saunders.png P_M_Gordon_Brown.png"
7767,"E_F_Sarah_Millican.png","E_M_Simon_Pegg.png","TRUE","pictures/stimuli/E","pictures/stimuli/E","F","M","4","594f2bc25c1e0700017cb0b9","07/06/2022, 19:12:56",-0.0831052089432044,"30","Female","right",0,0,0,0,TRUE,"E_F_Sarah_Millican.png E_M_Simon_Pegg.png"
3104,"E_M_Simon_Pegg.png","P_F_Theresa_May.png","FALSE","pictures/stimuli/E","pictures/stimuli/P","M","F","4","594f2bc25c1e0700017cb0b9","07/06/2022, 19:12:56",-0.0831052089432044,"30","Female","right",0,0,0,0,TRUE,"E_M_Simon_Pegg.png P_F_Theresa_May.png"
2956,"E_F_Dawn_Roma_French.png","E_M_Michael_McIntyr.png","TRUE","pictures/stimuli/E","pictures/stimuli/E","F","M","4","594f2bc25c1e0700017cb0b9","07/06/2022, 19:12:56",-0.0831052089432044,"30","Female","right",0,1,0,0,TRUE,"E_F_Dawn_Roma_French.png E_M_Michael_McIntyr.png"
3208,"E_M_Ewan_McGregor.png","P_M_nigel_farage.png","FALSE","pictures/stimuli/E","pictures/stimuli/P","M","M","4","594f2bc25c1e0700017cb0b9","07/06/2022, 19:12:56",-0.0831052089432044,"30","Female","right",0,0,0,0,TRUE,"E_M_Ewan_McGregor.png P_M_nigel_farage.png"
8777,"E_M_Russell_Howard.png","P_M_keir_starmer.png","FALSE","pictures/stimuli/E","pictures/stimuli/P","M","M","4","594f2bc25c1e0700017cb0b9","07/06/2022, 19:12:56",-0.0831052089432044,"30","Female","right",0,0,0,0,TRUE,"E_M_Russell_Howard.png P_M_keir_starmer.png"
2531,"E_F_Julie_Walters.png","P_M_Gordon_Brown.png","FALSE","pictures/stimuli/E","pictures/stimuli/P","F","M","4","594f2bc25c1e0700017cb0b9","07/06/2022, 19:12:56",-0.0831052089432044,"30","Female","right",0,0,0,0,TRUE,"E_F_Julie_Walters.png P_M_Gordon_Brown.png"
3663,"E_M_Ewan_McGregor.png","P_M_Tony_Blair.png","FALSE","pictures/stimuli/E","pictures/stimuli/P","M","M","4","594f2bc25c1e0700017cb0b9","07/06/2022, 19:12:56",-0.0831052089432044,"30","Female","right",0,1,0,0,TRUE,"E_M_Ewan_McGregor.png P_M_Tony_Blair.png"
20340,"E_F_Dawn_Roma_French.png","E_M_Peter_Kay.png","TRUE","pictures/stimuli/E","pictures/stimuli/E","F","M","4","594f2bc25c1e0700017cb0b9","07/06/2022, 19:12:56",-0.0831052089432044,"30","Female","right",0,1,0,0,TRUE,"E_F_Dawn_Roma_French.png E_M_Peter_Kay.png"
14688,"E_F_Sarah_Millican.png","P_M_Michael_Gove.png","FALSE","pictures/stimuli/E","pictures/stimuli/P","F","M","4","594f2bc25c1e0700017cb0b9","07/06/2022, 19:12:56",-0.0831052089432044,"30","Female","right",0,0,0,0,TRUE,"E_F_Sarah_Millican.png P_M_Michael_Gove.png"
5654,"P_F_nicola_sturge.png","P_M_Gordon_Brown.png","TRUE","pictures/stimuli/P","pictures/stimuli/P","F","M","4","594f2bc25c1e0700017cb0b9","07/06/2022, 19:12:56",-0.0831052089432044,"30","Female","right",1,0,0,0,TRUE,"P_F_nicola_sturge.png P_M_Gordon_Brown.png"
2958,"E_F_Dawn_Roma_French.png","P_M_Michael_Gove.png","FALSE","pictures/stimuli/E","pictures/stimuli/P","F","M","4","594f2bc25c1e0700017cb0b9","07/06/2022, 19:12:56",-0.0831052089432044,"30","Female","right",0,0,0,0,TRUE,"E_F_Dawn_Roma_French.png P_M_Michael_Gove.png"
2938,"E_M_Jimmy_Carr.png","E_M_Peter_Kay.png","TRUE","pictures/stimuli/E","pictures/stimuli/E","M","M","4","594f2bc25c1e0700017cb0b9","07/06/2022, 19:12:56",-0.0831052089432044,"30","Female","right",1,1,0,0,TRUE,"E_M_Jimmy_Carr.png E_M_Peter_Kay.png"
2773,"E_M_Jimmy_Carr.png","P_M_Gordon_Brown.png","FALSE","pictures/stimuli/E","pictures/stimuli/P","M","M","4","594f2bc25c1e0700017cb0b9","07/06/2022, 19:12:56",-0.0831052089432044,"30","Female","right",1,0,0,0,TRUE,"E_M_Jimmy_Carr.png P_M_Gordon_Brown.png"
5530,"E_F_Jennifer_Saunders.png","P_M_keir_starmer.png","FALSE","pictures/stimuli/E","pictures/stimuli/P","F","M","4","594f2bc25c1e0700017cb0b9","07/06/2022, 19:12:56",-0.0831052089432044,"30","Female","right",0,0,0,0,TRUE,"E_F_Jennifer_Saunders.png P_M_keir_starmer.png"
4892,"E_M_Ewan_McGregor.png","P_M_Sajid_Javid.png","FALSE","pictures/stimuli/E","pictures/stimuli/P","M","M","4","594f2bc25c1e0700017cb0b9","07/06/2022, 19:12:56",-0.0831052089432044,"30","Female","right",0,0,0,0,TRUE,"E_M_Ewan_McGregor.png P_M_Sajid_Javid.png"
4963,"P_F_nicola_sturge.png","P_M_Michael_Gove.png","TRUE","pictures/stimuli/P","pictures/stimuli/P","F","M","3","594f2bc25c1e0700017cb0b9","07/06/2022, 19:12:56",-1.29771980119004,"30","Female","right",1,0,0,0,TRUE,"P_F_nicola_sturge.png P_M_Michael_Gove.png"
5688,"E_F_Sarah_Millican.png","P_M_Sajid_Javid.png","FALSE","pictures/stimuli/E","pictures/stimuli/P","F","M","3","594f2bc25c1e0700017cb0b9","07/06/2022, 19:12:56",-1.29771980119004,"30","Female","right",0,0,0,0,TRUE,"E_F_Sarah_Millican.png P_M_Sajid_Javid.png"
5283,"P_M_keir_starmer.png","P_M_Sajid_Javid.png","TRUE","pictures/stimuli/P","pictures/stimuli/P","M","M","4","594f2bc25c1e0700017cb0b9","07/06/2022, 19:12:56",-0.0831052089432044,"30","Female","right",0,0,0,0,TRUE,"P_M_keir_starmer.png P_M_Sajid_Javid.png"
2895,"E_F_Dawn_Roma_French.png","P_M_Sajid_Javid.png","FALSE","pictures/stimuli/E","pictures/stimuli/P","F","M","4","594f2bc25c1e0700017cb0b9","07/06/2022, 19:12:56",-0.0831052089432044,"30","Female","right",0,0,0,0,TRUE,"E_F_Dawn_Roma_French.png P_M_Sajid_Javid.png"
16103,"E_M_Ewan_McGregor.png","P_M_david_camer.png","FALSE","pictures/stimuli/E","pictures/stimuli/P","M","M","4","594f2bc25c1e0700017cb0b9","07/06/2022, 19:12:56",-0.0831052089432044,"30","Female","right",0,0,0,0,TRUE,"E_M_Ewan_McGregor.png P_M_david_camer.png"
2828,"E_F_Sarah_Millican.png","E_M_Russell_Howard.png","TRUE","pictures/stimuli/E","pictures/stimuli/E","F","M","4","594f2bc25c1e0700017cb0b9","07/06/2022, 19:12:56",-0.0831052089432044,"30","Female","right",0,0,0,0,TRUE,"E_F_Sarah_Millican.png E_M_Russell_Howard.png"
5056,"E_M_Michael_McIntyr.png","P_M_Michael_Gove.png","FALSE","pictures/stimuli/E","pictures/stimuli/P","M","M","4","594f2bc25c1e0700017cb0b9","07/06/2022, 19:12:56",-0.0831052089432044,"30","Female","right",1,0,0,0,TRUE,"E_M_Michael_McIntyr.png P_M_Michael_Gove.png"
19023,"E_M_Ewan_McGregor.png","E_M_Peter_Kay.png","TRUE","pictures/stimuli/E","pictures/stimuli/E","M","M","4","594f2bc25c1e0700017cb0b9","07/06/2022, 19:12:56",-0.0831052089432044,"30","Female","right",0,1,0,0,TRUE,"E_M_Ewan_McGregor.png E_M_Peter_Kay.png"
3258,"P_F_Theresa_May.png","P_M_Tony_Blair.png","TRUE","pictures/stimuli/P","pictures/stimuli/P","F","M","3","594f2bc25c1e0700017cb0b9","07/06/2022, 19:12:56",-1.29771980119004,"30","Female","right",0,1,0,0,TRUE,"P_F_Theresa_May.png P_M_Tony_Blair.png"
3030,"P_M_david_camer.png","P_M_jeremy_corbyn.png","TRUE","pictures/stimuli/P","pictures/stimuli/P","M","M","3","594f2bc25c1e0700017cb0b9","07/06/2022, 19:12:56",-1.29771980119004,"30","Female","right",0,0,0,0,TRUE,"P_M_david_camer.png P_M_jeremy_corbyn.png"
7540,"E_M_Ewan_McGregor.png","P_M_Gordon_Brown.png","FALSE","pictures/stimuli/E","pictures/stimuli/P","M","M","4","594f2bc25c1e0700017cb0b9","07/06/2022, 19:12:56",-0.0831052089432044,"30","Female","right",0,0,0,0,TRUE,"E_M_Ewan_McGregor.png P_M_Gordon_Brown.png"
8030,"E_F_Julie_Walters.png","E_M_Simon_Pegg.png","TRUE","pictures/stimuli/E","pictures/stimuli/E","F","M","4","594f2bc25c1e0700017cb0b9","07/06/2022, 19:12:56",-0.0831052089432044,"30","Female","right",0,0,0,0,TRUE,"E_F_Julie_Walters.png E_M_Simon_Pegg.png"
3024,"P_F_nicola_sturge.png","P_M_keir_starmer.png","TRUE","pictures/stimuli/P","pictures/stimuli/P","F","M","3","594f2bc25c1e0700017cb0b9","07/06/2022, 19:12:56",-1.29771980119004,"30","Female","right",1,0,0,0,TRUE,"P_F_nicola_sturge.png P_M_keir_starmer.png"
2929,"E_F_Sarah_Millican.png","P_F_nicola_sturge.png","FALSE","pictures/stimuli/E","pictures/stimuli/P","F","F","4","594f2bc25c1e0700017cb0b9","07/06/2022, 19:12:56",-0.0831052089432044,"30","Female","right",0,1,0,0,TRUE,"E_F_Sarah_Millican.png P_F_nicola_sturge.png"
10739,"E_F_Julie_Walters.png","P_M_jeremy_corbyn.png","FALSE","pictures/stimuli/E","pictures/stimuli/P","F","M","4","594f2bc25c1e0700017cb0b9","07/06/2022, 19:12:56",-0.0831052089432044,"30","Female","right",0,0,0,0,TRUE,"E_F_Julie_Walters.png P_M_jeremy_corbyn.png"
4036,"E_F_Jennifer_Saunders.png","E_M_Peter_Kay.png","TRUE","pictures/stimuli/E","pictures/stimuli/E","F","M","4","594f2bc25c1e0700017cb0b9","07/06/2022, 19:12:56",-0.0831052089432044,"30","Female","right",0,1,0,0,TRUE,"E_F_Jennifer_Saunders.png E_M_Peter_Kay.png"
15490,"E_F_Sarah_Millican.png","E_M_Michael_McIntyr.png","TRUE","pictures/stimuli/E","pictures/stimuli/E","F","M","4","594f2bc25c1e0700017cb0b9","07/06/2022, 19:12:56",-0.0831052089432044,"30","Female","right",0,1,0,0,TRUE,"E_F_Sarah_Millican.png E_M_Michael_McIntyr.png"
3379,"E_F_Sarah_Millican.png","P_M_nigel_farage.png","FALSE","pictures/stimuli/E","pictures/stimuli/P","F","M","3","594f2bc25c1e0700017cb0b9","07/06/2022, 19:12:56",-1.29771980119004,"30","Female","right",0,0,0,0,TRUE,"E_F_Sarah_Millican.png P_M_nigel_farage.png"
7042,"P_F_nicola_sturge.png","P_F_Theresa_May.png","TRUE","pictures/stimuli/P","pictures/stimuli/P","F","F","3","594f2bc25c1e0700017cb0b9","07/06/2022, 19:12:56",-1.29771980119004,"30","Female","right",1,0,0,0,TRUE,"P_F_nicola_sturge.png P_F_Theresa_May.png"
2621,"E_M_Jimmy_Carr.png","E_M_Michael_McIntyr.png","TRUE","pictures/stimuli/E","pictures/stimuli/E","M","M","4","594f2bc25c1e0700017cb0b9","07/06/2022, 19:12:56",-0.0831052089432044,"30","Female","right",1,1,0,0,TRUE,"E_M_Jimmy_Carr.png E_M_Michael_McIntyr.png"
28232,"P_M_Michael_Gove.png","P_M_nigel_farage.png","TRUE","pictures/stimuli/P","pictures/stimuli/P","M","M","4","594f2bc25c1e0700017cb0b9","07/06/2022, 19:12:56",-0.0831052089432044,"30","Female","right",0,0,0,0,TRUE,"P_M_Michael_Gove.png P_M_nigel_farage.png"
4245,"E_F_Dawn_Roma_French.png","E_M_Jimmy_Carr.png","TRUE","pictures/stimuli/E","pictures/stimuli/E","F","M","4","594f2bc25c1e0700017cb0b9","07/06/2022, 19:12:56",-0.0831052089432044,"30","Female","right",0,1,0,0,TRUE,"E_F_Dawn_Roma_French.png E_M_Jimmy_Carr.png"
9600,"E_M_Simon_Pegg.png","P_M_jeremy_corbyn.png","FALSE","pictures/stimuli/E","pictures/stimuli/P","M","M","3","594f2bc25c1e0700017cb0b9","07/06/2022, 19:12:56",-1.29771980119004,"30","Female","right",0,0,0,0,TRUE,"E_M_Simon_Pegg.png P_M_jeremy_corbyn.png"
10906,"E_F_Jennifer_Saunders.png","P_F_Theresa_May.png","FALSE","pictures/stimuli/E","pictures/stimuli/P","F","F","4","594f2bc25c1e0700017cb0b9","07/06/2022, 19:12:56",-0.0831052089432044,"30","Female","right",0,0,0,0,TRUE,"E_F_Jennifer_Saunders.png P_F_Theresa_May.png"
16171,"P_F_nicola_sturge.png","P_M_Sajid_Javid.png","TRUE","pictures/stimuli/P","pictures/stimuli/P","F","M","4","594f2bc25c1e0700017cb0b9","07/06/2022, 19:12:56",-0.0831052089432044,"30","Female","right",1,0,0,0,TRUE,"P_F_nicola_sturge.png P_M_Sajid_Javid.png"
4040,"P_F_nicola_sturge.png","P_M_david_camer.png","TRUE","pictures/stimuli/P","pictures/stimuli/P","F","M","3","594f2bc25c1e0700017cb0b9","07/06/2022, 19:12:56",-1.29771980119004,"30","Female","right",1,0,0,0,TRUE,"P_F_nicola_sturge.png P_M_david_camer.png"
4070,"E_M_Jimmy_Carr.png","P_M_david_camer.png","FALSE","pictures/stimuli/E","pictures/stimuli/P","M","M","6","594f2bc25c1e0700017cb0b9","07/06/2022, 19:12:56",2.34612397555046,"30","Female","right",1,0,0,0,TRUE,"E_M_Jimmy_Carr.png P_M_david_camer.png"
2723,"E_F_Julie_Walters.png","E_M_Ewan_McGregor.png","TRUE","pictures/stimuli/E","pictures/stimuli/E","F","M","4","594f2bc25c1e0700017cb0b9","07/06/2022, 19:12:56",-0.0831052089432044,"30","Female","right",0,0,0,0,TRUE,"E_F_Julie_Walters.png E_M_Ewan_McGregor.png"
6025,"P_M_nigel_farage.png","P_M_Sajid_Javid.png","TRUE","pictures/stimuli/P","pictures/stimuli/P","M","M","3","594f2bc25c1e0700017cb0b9","07/06/2022, 19:12:56",-1.29771980119004,"30","Female","right",0,0,0,0,TRUE,"P_M_nigel_farage.png P_M_Sajid_Javid.png"
19235,"E_M_Jimmy_Carr.png","P_M_Tony_Blair.png","FALSE","pictures/stimuli/E","pictures/stimuli/P","M","M","4","594f2bc25c1e0700017cb0b9","07/06/2022, 19:12:56",-0.0831052089432044,"30","Female","right",1,1,0,0,TRUE,"E_M_Jimmy_Carr.png P_M_Tony_Blair.png"
9669,"E_F_Dawn_Roma_French.png","E_F_Julie_Walters.png","TRUE","pictures/stimuli/E","pictures/stimuli/E","F","F","4","594f2bc25c1e0700017cb0b9","07/06/2022, 19:12:56",-0.0831052089432044,"30","Female","right",0,0,0,0,TRUE,"E_F_Dawn_Roma_French.png E_F_Julie_Walters.png"
8824,"E_F_Jennifer_Saunders.png","E_M_Simon_Pegg.png","TRUE","pictures/stimuli/E","pictures/stimuli/E","F","M","4","594f2bc25c1e0700017cb0b9","07/06/2022, 19:12:56",-0.0831052089432044,"30","Female","right",0,0,0,0,TRUE,"E_F_Jennifer_Saunders.png E_M_Simon_Pegg.png"
7191,"E_M_Russell_Howard.png","P_M_Tony_Blair.png","FALSE","pictures/stimuli/E","pictures/stimuli/P","M","M","3","594f2bc25c1e0700017cb0b9","07/06/2022, 19:12:56",-1.29771980119004,"30","Female","right",0,1,0,0,TRUE,"E_M_Russell_Howard.png P_M_Tony_Blair.png"
24896,"E_F_Dawn_Roma_French.png","E_M_Russell_Howard.png","TRUE","pictures/stimuli/E","pictures/stimuli/E","F","M","4","594f2bc25c1e0700017cb0b9","07/06/2022, 19:12:56",-0.0831052089432044,"30","Female","right",0,0,0,0,TRUE,"E_F_Dawn_Roma_French.png E_M_Russell_Howard.png"
2647,"E_M_Russell_Howard.png","E_M_Simon_Pegg.png","TRUE","pictures/stimuli/E","pictures/stimuli/E","M","M","4","594f2bc25c1e0700017cb0b9","07/06/2022, 19:12:56",-0.0831052089432044,"30","Female","right",0,0,0,0,TRUE,"E_M_Russell_Howard.png E_M_Simon_Pegg.png"
3293,"P_M_Gordon_Brown.png","P_M_nigel_farage.png","TRUE","pictures/stimuli/P","pictures/stimuli/P","M","M","3","594f2bc25c1e0700017cb0b9","07/06/2022, 19:12:56",-1.29771980119004,"30","Female","right",0,0,0,0,TRUE,"P_M_Gordon_Brown.png P_M_nigel_farage.png"
6894,"E_M_Peter_Kay.png","P_M_jeremy_corbyn.png","FALSE","pictures/stimuli/E","pictures/stimuli/P","M","M","6","594f2bc25c1e0700017cb0b9","07/06/2022, 19:12:56",2.34612397555046,"30","Female","right",1,0,0,0,TRUE,"E_M_Peter_Kay.png P_M_jeremy_corbyn.png"
6173,"P_M_Gordon_Brown.png","P_M_Sajid_Javid.png","TRUE","pictures/stimuli/P","pictures/stimuli/P","M","M","4","594f2bc25c1e0700017cb0b9","07/06/2022, 19:12:56",-0.0831052089432044,"30","Female","right",0,0,0,0,TRUE,"P_M_Gordon_Brown.png P_M_Sajid_Javid.png"
5930,"P_F_Theresa_May.png","P_M_Sajid_Javid.png","TRUE","pictures/stimuli/P","pictures/stimuli/P","F","M","4","594f2bc25c1e0700017cb0b9","07/06/2022, 19:12:56",-0.0831052089432044,"30","Female","right",0,0,0,0,TRUE,"P_F_Theresa_May.png P_M_Sajid_Javid.png"
3377,"P_M_david_camer.png","P_M_Gordon_Brown.png","TRUE","pictures/stimuli/P","pictures/stimuli/P","M","M","4","594f2bc25c1e0700017cb0b9","07/06/2022, 19:12:56",-0.0831052089432044,"30","Female","right",0,0,0,0,TRUE,"P_M_david_camer.png P_M_Gordon_Brown.png"
3559,"E_M_Peter_Kay.png","P_M_nigel_farage.png","FALSE","pictures/stimuli/E","pictures/stimuli/P","M","M","6","594f2bc25c1e0700017cb0b9","07/06/2022, 19:12:56",2.34612397555046,"30","Female","right",1,0,0,0,TRUE,"E_M_Peter_Kay.png P_M_nigel_farage.png"
4584,"P_M_Michael_Gove.png","P_M_Sajid_Javid.png","TRUE","pictures/stimuli/P","pictures/stimuli/P","M","M","4","594f2bc25c1e0700017cb0b9","07/06/2022, 19:12:56",-0.0831052089432044,"30","Female","right",0,0,0,0,TRUE,"P_M_Michael_Gove.png P_M_Sajid_Javid.png"
3000,"P_M_david_camer.png","P_M_Tony_Blair.png","TRUE","pictures/stimuli/P","pictures/stimuli/P","M","M","3","594f2bc25c1e0700017cb0b9","07/06/2022, 19:12:56",-1.29771980119004,"30","Female","right",0,1,0,0,TRUE,"P_M_david_camer.png P_M_Tony_Blair.png"
3763,"P_M_keir_starmer.png","P_M_nigel_farage.png","TRUE","pictures/stimuli/P","pictures/stimuli/P","M","M","4","594f2bc25c1e0700017cb0b9","07/06/2022, 19:12:56",-0.0831052089432044,"30","Female","right",0,0,0,0,TRUE,"P_M_keir_starmer.png P_M_nigel_farage.png"
14778,"P_F_Theresa_May.png","P_M_david_camer.png","TRUE","pictures/stimuli/P","pictures/stimuli/P","F","M","4","594f2bc25c1e0700017cb0b9","07/06/2022, 19:12:56",-0.0831052089432044,"30","Female","right",0,0,0,0,TRUE,"P_F_Theresa_May.png P_M_david_camer.png"
2991,"E_F_Jennifer_Saunders.png","E_F_Sarah_Millican.png","TRUE","pictures/stimuli/E","pictures/stimuli/E","F","F","4","594f2bc25c1e0700017cb0b9","07/06/2022, 19:12:56",-0.0831052089432044,"30","Female","right",0,0,0,0,TRUE,"E_F_Jennifer_Saunders.png E_F_Sarah_Millican.png"
19993,"E_F_Jennifer_Saunders.png","E_M_Ewan_McGregor.png","TRUE","pictures/stimuli/E","pictures/stimuli/E","F","M","4","594f2bc25c1e0700017cb0b9","07/06/2022, 19:12:56",-0.0831052089432044,"30","Female","right",0,0,0,0,TRUE,"E_F_Jennifer_Saunders.png E_M_Ewan_McGregor.png"
5460,"E_M_Ewan_McGregor.png","E_M_Simon_Pegg.png","TRUE","pictures/stimuli/E","pictures/stimuli/E","M","M","4","594f2bc25c1e0700017cb0b9","07/06/2022, 19:12:56",-0.0831052089432044,"30","Female","right",0,0,0,0,TRUE,"E_M_Ewan_McGregor.png E_M_Simon_Pegg.png"
3342,"E_F_Sarah_Millican.png","E_M_Jimmy_Carr.png","TRUE","pictures/stimuli/E","pictures/stimuli/E","F","M","5","594f2bc25c1e0700017cb0b9","07/06/2022, 19:12:56",1.13150938330363,"30","Female","right",0,1,0,0,TRUE,"E_F_Sarah_Millican.png E_M_Jimmy_Carr.png"
3407,"E_F_Julie_Walters.png","P_F_nicola_sturge.png","FALSE","pictures/stimuli/E","pictures/stimuli/P","F","F","4","594f2bc25c1e0700017cb0b9","07/06/2022, 19:12:56",-0.0831052089432044,"30","Female","right",0,1,0,0,TRUE,"E_F_Julie_Walters.png P_F_nicola_sturge.png"
3280,"E_M_Russell_Howard.png","P_M_jeremy_corbyn.png","FALSE","pictures/stimuli/E","pictures/stimuli/P","M","M","4","594f2bc25c1e0700017cb0b9","07/06/2022, 19:12:56",-0.0831052089432044,"30","Female","right",0,0,0,0,TRUE,"E_M_Russell_Howard.png P_M_jeremy_corbyn.png"
2750,"E_M_Ewan_McGregor.png","E_M_Russell_Howard.png","TRUE","pictures/stimuli/E","pictures/stimuli/E","M","M","4","594f2bc25c1e0700017cb0b9","07/06/2022, 19:12:56",-0.0831052089432044,"30","Female","right",0,0,0,0,TRUE,"E_M_Ewan_McGregor.png E_M_Russell_Howard.png"
7362,"E_M_Peter_Kay.png","P_M_Tony_Blair.png","FALSE","pictures/stimuli/E","pictures/stimuli/P","M","M","6","594f2bc25c1e0700017cb0b9","07/06/2022, 19:12:56",2.34612397555046,"30","Female","right",1,1,0,0,TRUE,"E_M_Peter_Kay.png P_M_Tony_Blair.png"
18142,"E_M_Jimmy_Carr.png","P_M_Sajid_Javid.png","FALSE","pictures/stimuli/E","pictures/stimuli/P","M","M","4","594f2bc25c1e0700017cb0b9","07/06/2022, 19:12:56",-0.0831052089432044,"30","Female","right",1,0,0,0,TRUE,"E_M_Jimmy_Carr.png P_M_Sajid_Javid.png"
33759,"E_F_Dawn_Roma_French.png","E_M_Simon_Pegg.png","TRUE","pictures/stimuli/E","pictures/stimuli/E","F","M","4","594f2bc25c1e0700017cb0b9","07/06/2022, 19:12:56",-0.0831052089432044,"30","Female","right",0,0,0,0,TRUE,"E_F_Dawn_Roma_French.png E_M_Simon_Pegg.png"
3058,"P_M_jeremy_corbyn.png","P_M_Michael_Gove.png","TRUE","pictures/stimuli/P","pictures/stimuli/P","M","M","4","594f2bc25c1e0700017cb0b9","07/06/2022, 19:12:56",-0.0831052089432044,"30","Female","right",0,0,0,0,TRUE,"P_M_jeremy_corbyn.png P_M_Michael_Gove.png"
12725,"E_F_Jennifer_Saunders.png","E_M_Michael_McIntyr.png","TRUE","pictures/stimuli/E","pictures/stimuli/E","F","M","4","594f2bc25c1e0700017cb0b9","07/06/2022, 19:12:56",-0.0831052089432044,"30","Female","right",0,1,0,0,TRUE,"E_F_Jennifer_Saunders.png E_M_Michael_McIntyr.png"
11492,"E_F_Dawn_Roma_French.png","P_M_nigel_farage.png","FALSE","pictures/stimuli/E","pictures/stimuli/P","F","M","4","594f2bc25c1e0700017cb0b9","07/06/2022, 19:12:56",-0.0831052089432044,"30","Female","right",0,0,0,0,TRUE,"E_F_Dawn_Roma_French.png P_M_nigel_farage.png"
