"RT","img_1","img_2","isSameProffesion","img1proffesion","img2proffesion","img1Gender","img2Gender","keyPressed","participant","time","normlised_keyPress","age","gender","handedness","isFamiliar_img1","isFamiliar_img2","vividness_img1","vividness_img2","reject_trial","pair"
3434,"E_M_Russell_Howard.png","P_F_Theresa_May.png","FALSE","pictures/stimuli/E","pictures/stimuli/P","M","F","6","58542426733c730001a5d1f4","10/14/2022, 09:17:10",0.63964113844792,"27","Male","right",1,1,0,0,FALSE,"E_M_Russell_Howard.png P_F_Theresa_May.png"
2175,"E_M_Ewan_McGregor.png","P_M_Sajid_Javid.png","FALSE","pictures/stimuli/E","pictures/stimuli/P","M","M","6","58542426733c730001a5d1f4","10/14/2022, 09:17:10",0.63964113844792,"27","Male","right",0,1,0,0,TRUE,"E_M_Ewan_McGregor.png P_M_Sajid_Javid.png"
1815,"E_F_Julie_Walters.png","P_M_Tony_Blair.png","FALSE","pictures/stimuli/E","pictures/stimuli/P","F","M","6","58542426733c730001a5d1f4","10/14/2022, 09:17:10",0.63964113844792,"27","Male","right",0,1,0,0,TRUE,"E_F_Julie_Walters.png P_M_Tony_Blair.png"
8319,"E_M_Simon_Pegg.png","P_M_Sajid_Javid.png","FALSE","pictures/stimuli/E","pictures/stimuli/P","M","M","6","58542426733c730001a5d1f4","10/14/2022, 09:17:10",0.63964113844792,"27","Male","right",1,1,0,0,FALSE,"E_M_Simon_Pegg.png P_M_Sajid_Javid.png"
7799,"P_M_david_camer.png","P_M_Tony_Blair.png","TRUE","pictures/stimuli/P","pictures/stimuli/P","M","M","5","58542426733c730001a5d1f4","10/14/2022, 09:17:10",-0.587952965644047,"27","Male","right",1,1,0,0,FALSE,"P_M_david_camer.png P_M_Tony_Blair.png"
2142,"P_F_Theresa_May.png","P_M_keir_starmer.png","TRUE","pictures/stimuli/P","pictures/stimuli/P","F","M","6","58542426733c730001a5d1f4","10/14/2022, 09:17:10",0.63964113844792,"27","Male","right",1,1,0,0,FALSE,"P_F_Theresa_May.png P_M_keir_starmer.png"
3407,"P_M_keir_starmer.png","P_M_nigel_farage.png","TRUE","pictures/stimuli/P","pictures/stimuli/P","M","M","4","58542426733c730001a5d1f4","10/14/2022, 09:17:10",-1.81554706973601,"27","Male","right",1,1,0,0,FALSE,"P_M_keir_starmer.png P_M_nigel_farage.png"
1951,"E_F_Dawn_Roma_French.png","P_M_Tony_Blair.png","FALSE","pictures/stimuli/E","pictures/stimuli/P","F","M","6","58542426733c730001a5d1f4","10/14/2022, 09:17:10",0.63964113844792,"27","Male","right",0,1,0,0,TRUE,"E_F_Dawn_Roma_French.png P_M_Tony_Blair.png"
1815,"P_M_Michael_Gove.png","P_M_Sajid_Javid.png","TRUE","pictures/stimuli/P","pictures/stimuli/P","M","M","6","58542426733c730001a5d1f4","10/14/2022, 09:17:10",0.63964113844792,"27","Male","right",1,1,0,0,FALSE,"P_M_Michael_Gove.png P_M_Sajid_Javid.png"
1671,"P_F_nicola_sturge.png","P_M_jeremy_corbyn.png","TRUE","pictures/stimuli/P","pictures/stimuli/P","F","M","6","58542426733c730001a5d1f4","10/14/2022, 09:17:10",0.63964113844792,"27","Male","right",1,1,0,0,FALSE,"P_F_nicola_sturge.png P_M_jeremy_corbyn.png"
1903,"E_F_Sarah_Millican.png","P_M_Sajid_Javid.png","FALSE","pictures/stimuli/E","pictures/stimuli/P","F","M","6","58542426733c730001a5d1f4","10/14/2022, 09:17:10",0.63964113844792,"27","Male","right",1,1,0,0,FALSE,"E_F_Sarah_Millican.png P_M_Sajid_Javid.png"
7223,"E_F_Julie_Walters.png","P_M_jeremy_corbyn.png","FALSE","pictures/stimuli/E","pictures/stimuli/P","F","M","6","58542426733c730001a5d1f4","10/14/2022, 09:17:10",0.63964113844792,"27","Male","right",0,1,0,0,TRUE,"E_F_Julie_Walters.png P_M_jeremy_corbyn.png"
3103,"E_F_Jennifer_Saunders.png","E_M_Peter_Kay.png","TRUE","pictures/stimuli/E","pictures/stimuli/E","F","M","5","58542426733c730001a5d1f4","10/14/2022, 09:17:10",-0.587952965644047,"27","Male","right",0,1,0,0,TRUE,"E_F_Jennifer_Saunders.png E_M_Peter_Kay.png"
5671,"E_M_Jimmy_Carr.png","E_M_Peter_Kay.png","TRUE","pictures/stimuli/E","pictures/stimuli/E","M","M","4","58542426733c730001a5d1f4","10/14/2022, 09:17:10",-1.81554706973601,"27","Male","right",1,1,0,0,FALSE,"E_M_Jimmy_Carr.png E_M_Peter_Kay.png"
8063,"P_F_Theresa_May.png","P_M_jeremy_corbyn.png","TRUE","pictures/stimuli/P","pictures/stimuli/P","F","M","6","58542426733c730001a5d1f4","10/14/2022, 09:17:10",0.63964113844792,"27","Male","right",1,1,0,0,FALSE,"P_F_Theresa_May.png P_M_jeremy_corbyn.png"
3751,"E_M_Ewan_McGregor.png","P_M_nigel_farage.png","FALSE","pictures/stimuli/E","pictures/stimuli/P","M","M","6","58542426733c730001a5d1f4","10/14/2022, 09:17:10",0.63964113844792,"27","Male","right",0,1,0,0,TRUE,"E_M_Ewan_McGregor.png P_M_nigel_farage.png"
3720,"E_M_Simon_Pegg.png","P_M_jeremy_corbyn.png","FALSE","pictures/stimuli/E","pictures/stimuli/P","M","M","5","58542426733c730001a5d1f4","10/14/2022, 09:17:10",-0.587952965644047,"27","Male","right",1,1,0,0,FALSE,"E_M_Simon_Pegg.png P_M_jeremy_corbyn.png"
6255,"P_M_david_camer.png","P_M_Michael_Gove.png","TRUE","pictures/stimuli/P","pictures/stimuli/P","M","M","6","58542426733c730001a5d1f4","10/14/2022, 09:17:10",0.63964113844792,"27","Male","right",1,1,0,0,FALSE,"P_M_david_camer.png P_M_Michael_Gove.png"
2135,"E_F_Julie_Walters.png","P_M_david_camer.png","FALSE","pictures/stimuli/E","pictures/stimuli/P","F","M","6","58542426733c730001a5d1f4","10/14/2022, 09:17:10",0.63964113844792,"27","Male","right",0,1,0,0,TRUE,"E_F_Julie_Walters.png P_M_david_camer.png"
8231,"P_F_Theresa_May.png","P_M_Tony_Blair.png","TRUE","pictures/stimuli/P","pictures/stimuli/P","F","M","4","58542426733c730001a5d1f4","10/14/2022, 09:17:10",-1.81554706973601,"27","Male","right",1,1,0,0,FALSE,"P_F_Theresa_May.png P_M_Tony_Blair.png"
2207,"P_M_Michael_Gove.png","P_M_nigel_farage.png","TRUE","pictures/stimuli/P","pictures/stimuli/P","M","M","5","58542426733c730001a5d1f4","10/14/2022, 09:17:10",-0.587952965644047,"27","Male","right",1,1,0,0,FALSE,"P_M_Michael_Gove.png P_M_nigel_farage.png"
3111,"P_M_david_camer.png","P_M_keir_starmer.png","TRUE","pictures/stimuli/P","pictures/stimuli/P","M","M","2","58542426733c730001a5d1f4","10/14/2022, 09:17:10",-4.27073527791995,"27","Male","right",1,1,0,0,FALSE,"P_M_david_camer.png P_M_keir_starmer.png"
3759,"E_M_Simon_Pegg.png","P_M_Gordon_Brown.png","FALSE","pictures/stimuli/E","pictures/stimuli/P","M","M","6","58542426733c730001a5d1f4","10/14/2022, 09:17:10",0.63964113844792,"27","Male","right",1,1,0,0,FALSE,"E_M_Simon_Pegg.png P_M_Gordon_Brown.png"
7303,"P_M_Gordon_Brown.png","P_M_Tony_Blair.png","TRUE","pictures/stimuli/P","pictures/stimuli/P","M","M","5","58542426733c730001a5d1f4","10/14/2022, 09:17:10",-0.587952965644047,"27","Male","right",1,1,0,0,FALSE,"P_M_Gordon_Brown.png P_M_Tony_Blair.png"
4991,"E_M_Jimmy_Carr.png","P_M_Michael_Gove.png","FALSE","pictures/stimuli/E","pictures/stimuli/P","M","M","6","58542426733c730001a5d1f4","10/14/2022, 09:17:10",0.63964113844792,"27","Male","right",1,1,0,0,FALSE,"E_M_Jimmy_Carr.png P_M_Michael_Gove.png"
2519,"E_F_Jennifer_Saunders.png","E_M_Jimmy_Carr.png","TRUE","pictures/stimuli/E","pictures/stimuli/E","F","M","5","58542426733c730001a5d1f4","10/14/2022, 09:17:10",-0.587952965644047,"27","Male","right",0,1,0,0,TRUE,"E_F_Jennifer_Saunders.png E_M_Jimmy_Carr.png"
12511,"P_M_Gordon_Brown.png","P_M_Sajid_Javid.png","TRUE","pictures/stimuli/P","pictures/stimuli/P","M","M","4","58542426733c730001a5d1f4","10/14/2022, 09:17:10",-1.81554706973601,"27","Male","right",1,1,0,0,FALSE,"P_M_Gordon_Brown.png P_M_Sajid_Javid.png"
2575,"E_F_Dawn_Roma_French.png","E_M_Ewan_McGregor.png","TRUE","pictures/stimuli/E","pictures/stimuli/E","F","M","6","58542426733c730001a5d1f4","10/14/2022, 09:17:10",0.63964113844792,"27","Male","right",0,0,0,0,TRUE,"E_F_Dawn_Roma_French.png E_M_Ewan_McGregor.png"
7750,"P_F_Theresa_May.png","P_M_nigel_farage.png","TRUE","pictures/stimuli/P","pictures/stimuli/P","F","M","5","58542426733c730001a5d1f4","10/14/2022, 09:17:10",-0.587952965644047,"27","Male","right",1,1,0,0,FALSE,"P_F_Theresa_May.png P_M_nigel_farage.png"
1878,"E_F_Jennifer_Saunders.png","P_M_Tony_Blair.png","FALSE","pictures/stimuli/E","pictures/stimuli/P","F","M","6","58542426733c730001a5d1f4","10/14/2022, 09:17:10",0.63964113844792,"27","Male","right",0,1,0,0,TRUE,"E_F_Jennifer_Saunders.png P_M_Tony_Blair.png"
2375,"E_M_Simon_Pegg.png","P_M_david_camer.png","FALSE","pictures/stimuli/E","pictures/stimuli/P","M","M","6","58542426733c730001a5d1f4","10/14/2022, 09:17:10",0.63964113844792,"27","Male","right",1,1,0,0,FALSE,"E_M_Simon_Pegg.png P_M_david_camer.png"
4999,"E_F_Sarah_Millican.png","P_M_david_camer.png","FALSE","pictures/stimuli/E","pictures/stimuli/P","F","M","6","58542426733c730001a5d1f4","10/14/2022, 09:17:10",0.63964113844792,"27","Male","right",1,1,0,0,FALSE,"E_F_Sarah_Millican.png P_M_david_camer.png"
6511,"E_F_Sarah_Millican.png","P_F_nicola_sturge.png","FALSE","pictures/stimuli/E","pictures/stimuli/P","F","F","6","58542426733c730001a5d1f4","10/14/2022, 09:17:10",0.63964113844792,"27","Male","right",1,1,0,0,FALSE,"E_F_Sarah_Millican.png P_F_nicola_sturge.png"
5199,"P_M_Gordon_Brown.png","P_M_jeremy_corbyn.png","TRUE","pictures/stimuli/P","pictures/stimuli/P","M","M","6","58542426733c730001a5d1f4","10/14/2022, 09:17:10",0.63964113844792,"27","Male","right",1,1,0,0,FALSE,"P_M_Gordon_Brown.png P_M_jeremy_corbyn.png"
7615,"E_M_Simon_Pegg.png","P_M_nigel_farage.png","FALSE","pictures/stimuli/E","pictures/stimuli/P","M","M","6","58542426733c730001a5d1f4","10/14/2022, 09:17:10",0.63964113844792,"27","Male","right",1,1,0,0,FALSE,"E_M_Simon_Pegg.png P_M_nigel_farage.png"
13384,"E_F_Julie_Walters.png","P_M_keir_starmer.png","FALSE","pictures/stimuli/E","pictures/stimuli/P","F","M","6","58542426733c730001a5d1f4","10/14/2022, 09:17:10",0.63964113844792,"27","Male","right",0,1,0,0,TRUE,"E_F_Julie_Walters.png P_M_keir_starmer.png"
15631,"E_M_Russell_Howard.png","P_M_david_camer.png","FALSE","pictures/stimuli/E","pictures/stimuli/P","M","M","6","58542426733c730001a5d1f4","10/14/2022, 09:17:10",0.63964113844792,"27","Male","right",1,1,0,0,FALSE,"E_M_Russell_Howard.png P_M_david_camer.png"
6655,"E_M_Russell_Howard.png","P_F_nicola_sturge.png","FALSE","pictures/stimuli/E","pictures/stimuli/P","M","F","6","58542426733c730001a5d1f4","10/14/2022, 09:17:10",0.63964113844792,"27","Male","right",1,1,0,0,FALSE,"E_M_Russell_Howard.png P_F_nicola_sturge.png"
4478,"E_F_Dawn_Roma_French.png","P_M_david_camer.png","FALSE","pictures/stimuli/E","pictures/stimuli/P","F","M","5","58542426733c730001a5d1f4","10/14/2022, 09:17:10",-0.587952965644047,"27","Male","right",0,1,0,0,TRUE,"E_F_Dawn_Roma_French.png P_M_david_camer.png"
7399,"E_M_Michael_McIntyr.png","P_M_keir_starmer.png","FALSE","pictures/stimuli/E","pictures/stimuli/P","M","M","4","58542426733c730001a5d1f4","10/14/2022, 09:17:10",-1.81554706973601,"27","Male","right",1,1,0,0,FALSE,"E_M_Michael_McIntyr.png P_M_keir_starmer.png"
2015,"E_F_Jennifer_Saunders.png","P_M_Sajid_Javid.png","FALSE","pictures/stimuli/E","pictures/stimuli/P","F","M","6","58542426733c730001a5d1f4","10/14/2022, 09:17:10",0.63964113844792,"27","Male","right",0,1,0,0,TRUE,"E_F_Jennifer_Saunders.png P_M_Sajid_Javid.png"
2127,"E_M_Michael_McIntyr.png","P_M_Gordon_Brown.png","FALSE","pictures/stimuli/E","pictures/stimuli/P","M","M","3","58542426733c730001a5d1f4","10/14/2022, 09:17:10",-3.04314117382798,"27","Male","right",1,1,0,0,FALSE,"E_M_Michael_McIntyr.png P_M_Gordon_Brown.png"
1872,"P_F_Theresa_May.png","P_M_Michael_Gove.png","TRUE","pictures/stimuli/P","pictures/stimuli/P","F","M","5","58542426733c730001a5d1f4","10/14/2022, 09:17:10",-0.587952965644047,"27","Male","right",1,1,0,0,FALSE,"P_F_Theresa_May.png P_M_Michael_Gove.png"
2591,"E_M_Peter_Kay.png","P_M_nigel_farage.png","FALSE","pictures/stimuli/E","pictures/stimuli/P","M","M","6","58542426733c730001a5d1f4","10/14/2022, 09:17:10",0.63964113844792,"27","Male","right",1,1,0,0,FALSE,"E_M_Peter_Kay.png P_M_nigel_farage.png"
2215,"P_M_nigel_farage.png","P_M_Tony_Blair.png","TRUE","pictures/stimuli/P","pictures/stimuli/P","M","M","4","58542426733c730001a5d1f4","10/14/2022, 09:17:10",-1.81554706973601,"27","Male","right",1,1,0,0,FALSE,"P_M_nigel_farage.png P_M_Tony_Blair.png"
2398,"P_M_keir_starmer.png","P_M_Michael_Gove.png","TRUE","pictures/stimuli/P","pictures/stimuli/P","M","M","6","58542426733c730001a5d1f4","10/14/2022, 09:17:10",0.63964113844792,"27","Male","right",1,1,0,0,FALSE,"P_M_keir_starmer.png P_M_Michael_Gove.png"
1798,"E_M_Peter_Kay.png","P_M_jeremy_corbyn.png","FALSE","pictures/stimuli/E","pictures/stimuli/P","M","M","6","58542426733c730001a5d1f4","10/14/2022, 09:17:10",0.63964113844792,"27","Male","right",1,1,0,0,FALSE,"E_M_Peter_Kay.png P_M_jeremy_corbyn.png"
2551,"E_M_Russell_Howard.png","P_M_Gordon_Brown.png","FALSE","pictures/stimuli/E","pictures/stimuli/P","M","M","5","58542426733c730001a5d1f4","10/14/2022, 09:17:10",-0.587952965644047,"27","Male","right",1,1,0,0,FALSE,"E_M_Russell_Howard.png P_M_Gordon_Brown.png"
1679,"E_M_Michael_McIntyr.png","E_M_Simon_Pegg.png","TRUE","pictures/stimuli/E","pictures/stimuli/E","M","M","6","58542426733c730001a5d1f4","10/14/2022, 09:17:10",0.63964113844792,"27","Male","right",1,1,0,0,FALSE,"E_M_Michael_McIntyr.png E_M_Simon_Pegg.png"
2438,"E_M_Jimmy_Carr.png","P_M_Tony_Blair.png","FALSE","pictures/stimuli/E","pictures/stimuli/P","M","M","6","58542426733c730001a5d1f4","10/14/2022, 09:17:10",0.63964113844792,"27","Male","right",1,1,0,0,FALSE,"E_M_Jimmy_Carr.png P_M_Tony_Blair.png"
1728,"E_M_Michael_McIntyr.png","P_F_Theresa_May.png","FALSE","pictures/stimuli/E","pictures/stimuli/P","M","F","6","58542426733c730001a5d1f4","10/14/2022, 09:17:10",0.63964113844792,"27","Male","right",1,1,0,0,FALSE,"E_M_Michael_McIntyr.png P_F_Theresa_May.png"
1599,"P_F_nicola_sturge.png","P_M_Michael_Gove.png","TRUE","pictures/stimuli/P","pictures/stimuli/P","F","M","6","58542426733c730001a5d1f4","10/14/2022, 09:17:10",0.63964113844792,"27","Male","right",1,1,0,0,FALSE,"P_F_nicola_sturge.png P_M_Michael_Gove.png"
8167,"P_F_Theresa_May.png","P_M_Gordon_Brown.png","TRUE","pictures/stimuli/P","pictures/stimuli/P","F","M","5","58542426733c730001a5d1f4","10/14/2022, 09:17:10",-0.587952965644047,"27","Male","right",1,1,0,0,FALSE,"P_F_Theresa_May.png P_M_Gordon_Brown.png"
4352,"E_M_Ewan_McGregor.png","E_M_Jimmy_Carr.png","TRUE","pictures/stimuli/E","pictures/stimuli/E","M","M","6","58542426733c730001a5d1f4","10/14/2022, 09:17:10",0.63964113844792,"27","Male","right",0,1,0,0,TRUE,"E_M_Ewan_McGregor.png E_M_Jimmy_Carr.png"
6550,"P_F_nicola_sturge.png","P_M_david_camer.png","TRUE","pictures/stimuli/P","pictures/stimuli/P","F","M","4","58542426733c730001a5d1f4","10/14/2022, 09:17:10",-1.81554706973601,"27","Male","right",1,1,0,0,FALSE,"P_F_nicola_sturge.png P_M_david_camer.png"
2287,"E_F_Dawn_Roma_French.png","E_M_Jimmy_Carr.png","TRUE","pictures/stimuli/E","pictures/stimuli/E","F","M","3","58542426733c730001a5d1f4","10/14/2022, 09:17:10",-3.04314117382798,"27","Male","right",0,1,0,0,TRUE,"E_F_Dawn_Roma_French.png E_M_Jimmy_Carr.png"
1919,"E_M_Jimmy_Carr.png","P_M_keir_starmer.png","FALSE","pictures/stimuli/E","pictures/stimuli/P","M","M","5","58542426733c730001a5d1f4","10/14/2022, 09:17:10",-0.587952965644047,"27","Male","right",1,1,0,0,FALSE,"E_M_Jimmy_Carr.png P_M_keir_starmer.png"
1615,"E_F_Dawn_Roma_French.png","P_M_jeremy_corbyn.png","FALSE","pictures/stimuli/E","pictures/stimuli/P","F","M","6","58542426733c730001a5d1f4","10/14/2022, 09:17:10",0.63964113844792,"27","Male","right",0,1,0,0,TRUE,"E_F_Dawn_Roma_French.png P_M_jeremy_corbyn.png"
4039,"E_F_Jennifer_Saunders.png","P_M_david_camer.png","FALSE","pictures/stimuli/E","pictures/stimuli/P","F","M","3","58542426733c730001a5d1f4","10/14/2022, 09:17:10",-3.04314117382798,"27","Male","right",0,1,0,0,TRUE,"E_F_Jennifer_Saunders.png P_M_david_camer.png"
1590,"E_M_Simon_Pegg.png","P_F_nicola_sturge.png","FALSE","pictures/stimuli/E","pictures/stimuli/P","M","F","6","58542426733c730001a5d1f4","10/14/2022, 09:17:10",0.63964113844792,"27","Male","right",1,1,0,0,FALSE,"E_M_Simon_Pegg.png P_F_nicola_sturge.png"
7711,"E_F_Julie_Walters.png","P_F_Theresa_May.png","FALSE","pictures/stimuli/E","pictures/stimuli/P","F","F","5","58542426733c730001a5d1f4","10/14/2022, 09:17:10",-0.587952965644047,"27","Male","right",0,1,0,0,TRUE,"E_F_Julie_Walters.png P_F_Theresa_May.png"
2223,"E_M_Jimmy_Carr.png","P_F_Theresa_May.png","FALSE","pictures/stimuli/E","pictures/stimuli/P","M","F","6","58542426733c730001a5d1f4","10/14/2022, 09:17:10",0.63964113844792,"27","Male","right",1,1,0,0,FALSE,"E_M_Jimmy_Carr.png P_F_Theresa_May.png"
1446,"E_M_Jimmy_Carr.png","E_M_Simon_Pegg.png","TRUE","pictures/stimuli/E","pictures/stimuli/E","M","M","6","58542426733c730001a5d1f4","10/14/2022, 09:17:10",0.63964113844792,"27","Male","right",1,1,0,0,FALSE,"E_M_Jimmy_Carr.png E_M_Simon_Pegg.png"
2639,"E_M_Jimmy_Carr.png","P_F_nicola_sturge.png","FALSE","pictures/stimuli/E","pictures/stimuli/P","M","F","4","58542426733c730001a5d1f4","10/14/2022, 09:17:10",-1.81554706973601,"27","Male","right",1,1,0,0,FALSE,"E_M_Jimmy_Carr.png P_F_nicola_sturge.png"
1735,"E_F_Sarah_Millican.png","P_M_keir_starmer.png","FALSE","pictures/stimuli/E","pictures/stimuli/P","F","M","6","58542426733c730001a5d1f4","10/14/2022, 09:17:10",0.63964113844792,"27","Male","right",1,1,0,0,FALSE,"E_F_Sarah_Millican.png P_M_keir_starmer.png"
2999,"P_M_jeremy_corbyn.png","P_M_keir_starmer.png","TRUE","pictures/stimuli/P","pictures/stimuli/P","M","M","5","58542426733c730001a5d1f4","10/14/2022, 09:17:10",-0.587952965644047,"27","Male","right",1,1,0,0,FALSE,"P_M_jeremy_corbyn.png P_M_keir_starmer.png"
1760,"E_F_Julie_Walters.png","E_M_Simon_Pegg.png","TRUE","pictures/stimuli/E","pictures/stimuli/E","F","M","6","58542426733c730001a5d1f4","10/14/2022, 09:17:10",0.63964113844792,"27","Male","right",0,1,0,0,TRUE,"E_F_Julie_Walters.png E_M_Simon_Pegg.png"
3231,"E_F_Jennifer_Saunders.png","E_F_Sarah_Millican.png","TRUE","pictures/stimuli/E","pictures/stimuli/E","F","F","6","58542426733c730001a5d1f4","10/14/2022, 09:17:10",0.63964113844792,"27","Male","right",0,1,0,0,TRUE,"E_F_Jennifer_Saunders.png E_F_Sarah_Millican.png"
3262,"E_M_Simon_Pegg.png","P_M_keir_starmer.png","FALSE","pictures/stimuli/E","pictures/stimuli/P","M","M","6","58542426733c730001a5d1f4","10/14/2022, 09:17:10",0.63964113844792,"27","Male","right",1,1,0,0,FALSE,"E_M_Simon_Pegg.png P_M_keir_starmer.png"
6391,"E_F_Dawn_Roma_French.png","P_M_keir_starmer.png","FALSE","pictures/stimuli/E","pictures/stimuli/P","F","M","6","58542426733c730001a5d1f4","10/14/2022, 09:17:10",0.63964113844792,"27","Male","right",0,1,0,0,TRUE,"E_F_Dawn_Roma_French.png P_M_keir_starmer.png"
3503,"E_M_Ewan_McGregor.png","P_M_Tony_Blair.png","FALSE","pictures/stimuli/E","pictures/stimuli/P","M","M","4","58542426733c730001a5d1f4","10/14/2022, 09:17:10",-1.81554706973601,"27","Male","right",0,1,0,0,TRUE,"E_M_Ewan_McGregor.png P_M_Tony_Blair.png"
2112,"P_F_nicola_sturge.png","P_M_nigel_farage.png","TRUE","pictures/stimuli/P","pictures/stimuli/P","F","M","6","58542426733c730001a5d1f4","10/14/2022, 09:17:10",0.63964113844792,"27","Male","right",1,1,0,0,FALSE,"P_F_nicola_sturge.png P_M_nigel_farage.png"
4551,"E_F_Sarah_Millican.png","E_M_Peter_Kay.png","TRUE","pictures/stimuli/E","pictures/stimuli/E","F","M","4","58542426733c730001a5d1f4","10/14/2022, 09:17:10",-1.81554706973601,"27","Male","right",1,1,0,0,FALSE,"E_F_Sarah_Millican.png E_M_Peter_Kay.png"
2174,"P_M_david_camer.png","P_M_nigel_farage.png","TRUE","pictures/stimuli/P","pictures/stimuli/P","M","M","6","58542426733c730001a5d1f4","10/14/2022, 09:17:10",0.63964113844792,"27","Male","right",1,1,0,0,FALSE,"P_M_david_camer.png P_M_nigel_farage.png"
8031,"E_F_Jennifer_Saunders.png","P_F_Theresa_May.png","FALSE","pictures/stimuli/E","pictures/stimuli/P","F","F","5","58542426733c730001a5d1f4","10/14/2022, 09:17:10",-0.587952965644047,"27","Male","right",0,1,0,0,TRUE,"E_F_Jennifer_Saunders.png P_F_Theresa_May.png"
1935,"E_F_Jennifer_Saunders.png","P_M_keir_starmer.png","FALSE","pictures/stimuli/E","pictures/stimuli/P","F","M","6","58542426733c730001a5d1f4","10/14/2022, 09:17:10",0.63964113844792,"27","Male","right",0,1,0,0,TRUE,"E_F_Jennifer_Saunders.png P_M_keir_starmer.png"
1935,"E_F_Dawn_Roma_French.png","P_M_Michael_Gove.png","FALSE","pictures/stimuli/E","pictures/stimuli/P","F","M","6","58542426733c730001a5d1f4","10/14/2022, 09:17:10",0.63964113844792,"27","Male","right",0,1,0,0,TRUE,"E_F_Dawn_Roma_French.png P_M_Michael_Gove.png"
4215,"E_M_Russell_Howard.png","E_M_Simon_Pegg.png","TRUE","pictures/stimuli/E","pictures/stimuli/E","M","M","6","58542426733c730001a5d1f4","10/14/2022, 09:17:10",0.63964113844792,"27","Male","right",1,1,0,0,FALSE,"E_M_Russell_Howard.png E_M_Simon_Pegg.png"
1399,"P_F_nicola_sturge.png","P_M_Tony_Blair.png","TRUE","pictures/stimuli/P","pictures/stimuli/P","F","M","6","58542426733c730001a5d1f4","10/14/2022, 09:17:10",0.63964113844792,"27","Male","right",1,1,0,0,FALSE,"P_F_nicola_sturge.png P_M_Tony_Blair.png"
7391,"E_F_Jennifer_Saunders.png","P_M_nigel_farage.png","FALSE","pictures/stimuli/E","pictures/stimuli/P","F","M","6","58542426733c730001a5d1f4","10/14/2022, 09:17:10",0.63964113844792,"27","Male","right",0,1,0,0,TRUE,"E_F_Jennifer_Saunders.png P_M_nigel_farage.png"
4288,"E_M_Michael_McIntyr.png","P_M_nigel_farage.png","FALSE","pictures/stimuli/E","pictures/stimuli/P","M","M","4","58542426733c730001a5d1f4","10/14/2022, 09:17:10",-1.81554706973601,"27","Male","right",1,1,0,0,FALSE,"E_M_Michael_McIntyr.png P_M_nigel_farage.png"
3375,"E_F_Julie_Walters.png","E_M_Russell_Howard.png","TRUE","pictures/stimuli/E","pictures/stimuli/E","F","M","5","58542426733c730001a5d1f4","10/14/2022, 09:17:10",-0.587952965644047,"27","Male","right",0,1,0,0,TRUE,"E_F_Julie_Walters.png E_M_Russell_Howard.png"
2166,"E_F_Jennifer_Saunders.png","E_F_Julie_Walters.png","TRUE","pictures/stimuli/E","pictures/stimuli/E","F","F","3","58542426733c730001a5d1f4","10/14/2022, 09:17:10",-3.04314117382798,"27","Male","right",0,0,0,0,TRUE,"E_F_Jennifer_Saunders.png E_F_Julie_Walters.png"
2288,"E_F_Julie_Walters.png","E_M_Ewan_McGregor.png","TRUE","pictures/stimuli/E","pictures/stimuli/E","F","M","6","58542426733c730001a5d1f4","10/14/2022, 09:17:10",0.63964113844792,"27","Male","right",0,0,0,0,TRUE,"E_F_Julie_Walters.png E_M_Ewan_McGregor.png"
3199,"P_M_Sajid_Javid.png","P_M_Tony_Blair.png","TRUE","pictures/stimuli/P","pictures/stimuli/P","M","M","6","58542426733c730001a5d1f4","10/14/2022, 09:17:10",0.63964113844792,"27","Male","right",1,1,0,0,FALSE,"P_M_Sajid_Javid.png P_M_Tony_Blair.png"
2359,"E_M_Michael_McIntyr.png","P_F_nicola_sturge.png","FALSE","pictures/stimuli/E","pictures/stimuli/P","M","F","5","58542426733c730001a5d1f4","10/14/2022, 09:17:10",-0.587952965644047,"27","Male","right",1,1,0,0,FALSE,"E_M_Michael_McIntyr.png P_F_nicola_sturge.png"
5319,"E_F_Dawn_Roma_French.png","E_F_Julie_Walters.png","TRUE","pictures/stimuli/E","pictures/stimuli/E","F","F","4","58542426733c730001a5d1f4","10/14/2022, 09:17:10",-1.81554706973601,"27","Male","right",0,0,0,0,TRUE,"E_F_Dawn_Roma_French.png E_F_Julie_Walters.png"
2055,"E_M_Peter_Kay.png","P_M_keir_starmer.png","FALSE","pictures/stimuli/E","pictures/stimuli/P","M","M","6","58542426733c730001a5d1f4","10/14/2022, 09:17:10",0.63964113844792,"27","Male","right",1,1,0,0,FALSE,"E_M_Peter_Kay.png P_M_keir_starmer.png"
4135,"E_F_Dawn_Roma_French.png","P_F_Theresa_May.png","FALSE","pictures/stimuli/E","pictures/stimuli/P","F","F","5","58542426733c730001a5d1f4","10/14/2022, 09:17:10",-0.587952965644047,"27","Male","right",0,1,0,0,TRUE,"E_F_Dawn_Roma_French.png P_F_Theresa_May.png"
3024,"E_M_Peter_Kay.png","E_M_Russell_Howard.png","TRUE","pictures/stimuli/E","pictures/stimuli/E","M","M","6","58542426733c730001a5d1f4","10/14/2022, 09:17:10",0.63964113844792,"27","Male","right",1,1,0,0,FALSE,"E_M_Peter_Kay.png E_M_Russell_Howard.png"
7207,"E_F_Jennifer_Saunders.png","P_M_Michael_Gove.png","FALSE","pictures/stimuli/E","pictures/stimuli/P","F","M","6","58542426733c730001a5d1f4","10/14/2022, 09:17:10",0.63964113844792,"27","Male","right",0,1,0,0,TRUE,"E_F_Jennifer_Saunders.png P_M_Michael_Gove.png"
1839,"E_M_Michael_McIntyr.png","P_M_jeremy_corbyn.png","FALSE","pictures/stimuli/E","pictures/stimuli/P","M","M","6","58542426733c730001a5d1f4","10/14/2022, 09:17:10",0.63964113844792,"27","Male","right",1,1,0,0,FALSE,"E_M_Michael_McIntyr.png P_M_jeremy_corbyn.png"
2727,"E_M_Russell_Howard.png","P_M_Tony_Blair.png","FALSE","pictures/stimuli/E","pictures/stimuli/P","M","M","5","58542426733c730001a5d1f4","10/14/2022, 09:17:10",-0.587952965644047,"27","Male","right",1,1,0,0,FALSE,"E_M_Russell_Howard.png P_M_Tony_Blair.png"
4655,"P_M_david_camer.png","P_M_Gordon_Brown.png","TRUE","pictures/stimuli/P","pictures/stimuli/P","M","M","4","58542426733c730001a5d1f4","10/14/2022, 09:17:10",-1.81554706973601,"27","Male","right",1,1,0,0,FALSE,"P_M_david_camer.png P_M_Gordon_Brown.png"
12000,"P_F_nicola_sturge.png","P_M_keir_starmer.png","TRUE","pictures/stimuli/P","pictures/stimuli/P","F","M","6","58542426733c730001a5d1f4","10/14/2022, 09:17:10",0.63964113844792,"27","Male","right",1,1,0,0,FALSE,"P_F_nicola_sturge.png P_M_keir_starmer.png"
5495,"E_M_Michael_McIntyr.png","E_M_Russell_Howard.png","TRUE","pictures/stimuli/E","pictures/stimuli/E","M","M","6","58542426733c730001a5d1f4","10/14/2022, 09:17:10",0.63964113844792,"27","Male","right",1,1,0,0,FALSE,"E_M_Michael_McIntyr.png E_M_Russell_Howard.png"
6119,"E_M_Jimmy_Carr.png","E_M_Russell_Howard.png","TRUE","pictures/stimuli/E","pictures/stimuli/E","M","M","5","58542426733c730001a5d1f4","10/14/2022, 09:17:10",-0.587952965644047,"27","Male","right",1,1,0,0,FALSE,"E_M_Jimmy_Carr.png E_M_Russell_Howard.png"
9975,"E_F_Sarah_Millican.png","P_M_jeremy_corbyn.png","FALSE","pictures/stimuli/E","pictures/stimuli/P","F","M","4","58542426733c730001a5d1f4","10/14/2022, 09:17:10",-1.81554706973601,"27","Male","right",1,1,0,0,FALSE,"E_F_Sarah_Millican.png P_M_jeremy_corbyn.png"
1952,"P_F_nicola_sturge.png","P_M_Gordon_Brown.png","TRUE","pictures/stimuli/P","pictures/stimuli/P","F","M","6","58542426733c730001a5d1f4","10/14/2022, 09:17:10",0.63964113844792,"27","Male","right",1,1,0,0,FALSE,"P_F_nicola_sturge.png P_M_Gordon_Brown.png"
7704,"E_M_Ewan_McGregor.png","E_M_Michael_McIntyr.png","TRUE","pictures/stimuli/E","pictures/stimuli/E","M","M","5","58542426733c730001a5d1f4","10/14/2022, 09:17:10",-0.587952965644047,"27","Male","right",0,1,0,0,TRUE,"E_M_Ewan_McGregor.png E_M_Michael_McIntyr.png"
3062,"E_F_Jennifer_Saunders.png","E_M_Simon_Pegg.png","TRUE","pictures/stimuli/E","pictures/stimuli/E","F","M","6","58542426733c730001a5d1f4","10/14/2022, 09:17:10",0.63964113844792,"27","Male","right",0,1,0,0,TRUE,"E_F_Jennifer_Saunders.png E_M_Simon_Pegg.png"
3000,"E_M_Michael_McIntyr.png","P_M_Sajid_Javid.png","FALSE","pictures/stimuli/E","pictures/stimuli/P","M","M","6","58542426733c730001a5d1f4","10/14/2022, 09:17:10",0.63964113844792,"27","Male","right",1,1,0,0,FALSE,"E_M_Michael_McIntyr.png P_M_Sajid_Javid.png"
5151,"E_M_Jimmy_Carr.png","E_M_Michael_McIntyr.png","TRUE","pictures/stimuli/E","pictures/stimuli/E","M","M","4","58542426733c730001a5d1f4","10/14/2022, 09:17:10",-1.81554706973601,"27","Male","right",1,1,0,0,FALSE,"E_M_Jimmy_Carr.png E_M_Michael_McIntyr.png"
9800,"P_M_jeremy_corbyn.png","P_M_Tony_Blair.png","TRUE","pictures/stimuli/P","pictures/stimuli/P","M","M","4","58542426733c730001a5d1f4","10/14/2022, 09:17:10",-1.81554706973601,"27","Male","right",1,1,0,0,FALSE,"P_M_jeremy_corbyn.png P_M_Tony_Blair.png"
3168,"E_M_Ewan_McGregor.png","P_M_Michael_Gove.png","FALSE","pictures/stimuli/E","pictures/stimuli/P","M","M","6","58542426733c730001a5d1f4","10/14/2022, 09:17:10",0.63964113844792,"27","Male","right",0,1,0,0,TRUE,"E_M_Ewan_McGregor.png P_M_Michael_Gove.png"
3326,"E_F_Jennifer_Saunders.png","E_M_Ewan_McGregor.png","TRUE","pictures/stimuli/E","pictures/stimuli/E","F","M","6","58542426733c730001a5d1f4","10/14/2022, 09:17:10",0.63964113844792,"27","Male","right",0,0,0,0,TRUE,"E_F_Jennifer_Saunders.png E_M_Ewan_McGregor.png"
7303,"E_M_Michael_McIntyr.png","E_M_Peter_Kay.png","TRUE","pictures/stimuli/E","pictures/stimuli/E","M","M","5","58542426733c730001a5d1f4","10/14/2022, 09:17:10",-0.587952965644047,"27","Male","right",1,1,0,0,FALSE,"E_M_Michael_McIntyr.png E_M_Peter_Kay.png"
3319,"E_M_Peter_Kay.png","P_F_nicola_sturge.png","FALSE","pictures/stimuli/E","pictures/stimuli/P","M","F","6","58542426733c730001a5d1f4","10/14/2022, 09:17:10",0.63964113844792,"27","Male","right",1,1,0,0,FALSE,"E_M_Peter_Kay.png P_F_nicola_sturge.png"
10847,"E_M_Ewan_McGregor.png","E_M_Peter_Kay.png","TRUE","pictures/stimuli/E","pictures/stimuli/E","M","M","6","58542426733c730001a5d1f4","10/14/2022, 09:17:10",0.63964113844792,"27","Male","right",0,1,0,0,TRUE,"E_M_Ewan_McGregor.png E_M_Peter_Kay.png"
4968,"E_M_Jimmy_Carr.png","P_M_Gordon_Brown.png","FALSE","pictures/stimuli/E","pictures/stimuli/P","M","M","6","58542426733c730001a5d1f4","10/14/2022, 09:17:10",0.63964113844792,"27","Male","right",1,1,0,0,FALSE,"E_M_Jimmy_Carr.png P_M_Gordon_Brown.png"
14383,"E_M_Michael_McIntyr.png","P_M_Tony_Blair.png","FALSE","pictures/stimuli/E","pictures/stimuli/P","M","M","6","58542426733c730001a5d1f4","10/14/2022, 09:17:10",0.63964113844792,"27","Male","right",1,1,0,0,FALSE,"E_M_Michael_McIntyr.png P_M_Tony_Blair.png"
7312,"P_M_jeremy_corbyn.png","P_M_nigel_farage.png","TRUE","pictures/stimuli/P","pictures/stimuli/P","M","M","5","58542426733c730001a5d1f4","10/14/2022, 09:17:10",-0.587952965644047,"27","Male","right",1,1,0,0,FALSE,"P_M_jeremy_corbyn.png P_M_nigel_farage.png"
1894,"E_M_Russell_Howard.png","P_M_jeremy_corbyn.png","FALSE","pictures/stimuli/E","pictures/stimuli/P","M","M","6","58542426733c730001a5d1f4","10/14/2022, 09:17:10",0.63964113844792,"27","Male","right",1,1,0,0,FALSE,"E_M_Russell_Howard.png P_M_jeremy_corbyn.png"
4767,"E_M_Ewan_McGregor.png","E_M_Russell_Howard.png","TRUE","pictures/stimuli/E","pictures/stimuli/E","M","M","5","58542426733c730001a5d1f4","10/14/2022, 09:17:10",-0.587952965644047,"27","Male","right",0,1,0,0,TRUE,"E_M_Ewan_McGregor.png E_M_Russell_Howard.png"
2071,"E_F_Dawn_Roma_French.png","P_M_Gordon_Brown.png","FALSE","pictures/stimuli/E","pictures/stimuli/P","F","M","6","58542426733c730001a5d1f4","10/14/2022, 09:17:10",0.63964113844792,"27","Male","right",0,1,0,0,TRUE,"E_F_Dawn_Roma_French.png P_M_Gordon_Brown.png"
2023,"E_M_Peter_Kay.png","P_M_Tony_Blair.png","FALSE","pictures/stimuli/E","pictures/stimuli/P","M","M","6","58542426733c730001a5d1f4","10/14/2022, 09:17:10",0.63964113844792,"27","Male","right",1,1,0,0,FALSE,"E_M_Peter_Kay.png P_M_Tony_Blair.png"
4407,"E_M_Jimmy_Carr.png","P_M_nigel_farage.png","FALSE","pictures/stimuli/E","pictures/stimuli/P","M","M","5","58542426733c730001a5d1f4","10/14/2022, 09:17:10",-0.587952965644047,"27","Male","right",1,1,0,0,FALSE,"E_M_Jimmy_Carr.png P_M_nigel_farage.png"
5759,"E_M_Peter_Kay.png","P_M_Michael_Gove.png","FALSE","pictures/stimuli/E","pictures/stimuli/P","M","M","6","58542426733c730001a5d1f4","10/14/2022, 09:17:10",0.63964113844792,"27","Male","right",1,1,0,0,FALSE,"E_M_Peter_Kay.png P_M_Michael_Gove.png"
5846,"E_M_Ewan_McGregor.png","P_M_Gordon_Brown.png","FALSE","pictures/stimuli/E","pictures/stimuli/P","M","M","6","58542426733c730001a5d1f4","10/14/2022, 09:17:10",0.63964113844792,"27","Male","right",0,1,0,0,TRUE,"E_M_Ewan_McGregor.png P_M_Gordon_Brown.png"
7263,"P_F_nicola_sturge.png","P_F_Theresa_May.png","TRUE","pictures/stimuli/P","pictures/stimuli/P","F","F","5","58542426733c730001a5d1f4","10/14/2022, 09:17:10",-0.587952965644047,"27","Male","right",1,1,0,0,FALSE,"P_F_nicola_sturge.png P_F_Theresa_May.png"
11743,"P_M_Gordon_Brown.png","P_M_keir_starmer.png","TRUE","pictures/stimuli/P","pictures/stimuli/P","M","M","5","58542426733c730001a5d1f4","10/14/2022, 09:17:10",-0.587952965644047,"27","Male","right",1,1,0,0,FALSE,"P_M_Gordon_Brown.png P_M_keir_starmer.png"
9375,"E_F_Julie_Walters.png","E_F_Sarah_Millican.png","TRUE","pictures/stimuli/E","pictures/stimuli/E","F","F","5","58542426733c730001a5d1f4","10/14/2022, 09:17:10",-0.587952965644047,"27","Male","right",0,1,0,0,TRUE,"E_F_Julie_Walters.png E_F_Sarah_Millican.png"
3408,"E_F_Sarah_Millican.png","E_M_Russell_Howard.png","TRUE","pictures/stimuli/E","pictures/stimuli/E","F","M","6","58542426733c730001a5d1f4","10/14/2022, 09:17:10",0.63964113844792,"27","Male","right",1,1,0,0,FALSE,"E_F_Sarah_Millican.png E_M_Russell_Howard.png"
9423,"E_F_Sarah_Millican.png","P_M_Michael_Gove.png","FALSE","pictures/stimuli/E","pictures/stimuli/P","F","M","5","58542426733c730001a5d1f4","10/14/2022, 09:17:10",-0.587952965644047,"27","Male","right",1,1,0,0,FALSE,"E_F_Sarah_Millican.png P_M_Michael_Gove.png"
4807,"E_M_Russell_Howard.png","P_M_nigel_farage.png","FALSE","pictures/stimuli/E","pictures/stimuli/P","M","M","6","58542426733c730001a5d1f4","10/14/2022, 09:17:10",0.63964113844792,"27","Male","right",1,1,0,0,FALSE,"E_M_Russell_Howard.png P_M_nigel_farage.png"
4231,"E_M_Ewan_McGregor.png","P_F_Theresa_May.png","FALSE","pictures/stimuli/E","pictures/stimuli/P","M","F","5","58542426733c730001a5d1f4","10/14/2022, 09:17:10",-0.587952965644047,"27","Male","right",0,1,0,0,TRUE,"E_M_Ewan_McGregor.png P_F_Theresa_May.png"
7999,"E_F_Sarah_Millican.png","P_F_Theresa_May.png","FALSE","pictures/stimuli/E","pictures/stimuli/P","F","F","6","58542426733c730001a5d1f4","10/14/2022, 09:17:10",0.63964113844792,"27","Male","right",1,1,0,0,FALSE,"E_F_Sarah_Millican.png P_F_Theresa_May.png"
4263,"E_M_Peter_Kay.png","P_M_Gordon_Brown.png","FALSE","pictures/stimuli/E","pictures/stimuli/P","M","M","4","58542426733c730001a5d1f4","10/14/2022, 09:17:10",-1.81554706973601,"27","Male","right",1,1,0,0,FALSE,"E_M_Peter_Kay.png P_M_Gordon_Brown.png"
2719,"E_F_Sarah_Millican.png","P_M_Gordon_Brown.png","FALSE","pictures/stimuli/E","pictures/stimuli/P","F","M","6","58542426733c730001a5d1f4","10/14/2022, 09:17:10",0.63964113844792,"27","Male","right",1,1,0,0,FALSE,"E_F_Sarah_Millican.png P_M_Gordon_Brown.png"
3783,"E_F_Sarah_Millican.png","E_M_Ewan_McGregor.png","TRUE","pictures/stimuli/E","pictures/stimuli/E","F","M","5","58542426733c730001a5d1f4","10/14/2022, 09:17:10",-0.587952965644047,"27","Male","right",1,0,0,0,TRUE,"E_F_Sarah_Millican.png E_M_Ewan_McGregor.png"
3128,"E_F_Dawn_Roma_French.png","E_M_Michael_McIntyr.png","TRUE","pictures/stimuli/E","pictures/stimuli/E","F","M","6","58542426733c730001a5d1f4","10/14/2022, 09:17:10",0.63964113844792,"27","Male","right",0,1,0,0,TRUE,"E_F_Dawn_Roma_French.png E_M_Michael_McIntyr.png"
2230,"P_M_jeremy_corbyn.png","P_M_Sajid_Javid.png","TRUE","pictures/stimuli/P","pictures/stimuli/P","M","M","6","58542426733c730001a5d1f4","10/14/2022, 09:17:10",0.63964113844792,"27","Male","right",1,1,0,0,FALSE,"P_M_jeremy_corbyn.png P_M_Sajid_Javid.png"
2152,"E_F_Sarah_Millican.png","P_M_nigel_farage.png","FALSE","pictures/stimuli/E","pictures/stimuli/P","F","M","6","58542426733c730001a5d1f4","10/14/2022, 09:17:10",0.63964113844792,"27","Male","right",1,1,0,0,FALSE,"E_F_Sarah_Millican.png P_M_nigel_farage.png"
3823,"E_M_Michael_McIntyr.png","P_M_Michael_Gove.png","FALSE","pictures/stimuli/E","pictures/stimuli/P","M","M","5","58542426733c730001a5d1f4","10/14/2022, 09:17:10",-0.587952965644047,"27","Male","right",1,1,0,0,FALSE,"E_M_Michael_McIntyr.png P_M_Michael_Gove.png"
7424,"E_F_Dawn_Roma_French.png","P_M_Sajid_Javid.png","FALSE","pictures/stimuli/E","pictures/stimuli/P","F","M","6","58542426733c730001a5d1f4","10/14/2022, 09:17:10",0.63964113844792,"27","Male","right",0,1,0,0,TRUE,"E_F_Dawn_Roma_French.png P_M_Sajid_Javid.png"
3296,"E_M_Simon_Pegg.png","P_F_Theresa_May.png","FALSE","pictures/stimuli/E","pictures/stimuli/P","M","F","6","58542426733c730001a5d1f4","10/14/2022, 09:17:10",0.63964113844792,"27","Male","right",1,1,0,0,FALSE,"E_M_Simon_Pegg.png P_F_Theresa_May.png"
2127,"E_M_Ewan_McGregor.png","P_M_david_camer.png","FALSE","pictures/stimuli/E","pictures/stimuli/P","M","M","6","58542426733c730001a5d1f4","10/14/2022, 09:17:10",0.63964113844792,"27","Male","right",0,1,0,0,TRUE,"E_M_Ewan_McGregor.png P_M_david_camer.png"
5127,"E_F_Julie_Walters.png","P_M_nigel_farage.png","FALSE","pictures/stimuli/E","pictures/stimuli/P","F","M","6","58542426733c730001a5d1f4","10/14/2022, 09:17:10",0.63964113844792,"27","Male","right",0,1,0,0,TRUE,"E_F_Julie_Walters.png P_M_nigel_farage.png"
2142,"E_F_Jennifer_Saunders.png","P_M_jeremy_corbyn.png","FALSE","pictures/stimuli/E","pictures/stimuli/P","F","M","6","58542426733c730001a5d1f4","10/14/2022, 09:17:10",0.63964113844792,"27","Male","right",0,1,0,0,TRUE,"E_F_Jennifer_Saunders.png P_M_jeremy_corbyn.png"
7783,"E_F_Julie_Walters.png","P_F_nicola_sturge.png","FALSE","pictures/stimuli/E","pictures/stimuli/P","F","F","5","58542426733c730001a5d1f4","10/14/2022, 09:17:10",-0.587952965644047,"27","Male","right",0,1,0,0,TRUE,"E_F_Julie_Walters.png P_F_nicola_sturge.png"
6208,"P_M_Michael_Gove.png","P_M_Tony_Blair.png","TRUE","pictures/stimuli/P","pictures/stimuli/P","M","M","6","58542426733c730001a5d1f4","10/14/2022, 09:17:10",0.63964113844792,"27","Male","right",1,1,0,0,FALSE,"P_M_Michael_Gove.png P_M_Tony_Blair.png"
6831,"E_M_Peter_Kay.png","P_M_david_camer.png","FALSE","pictures/stimuli/E","pictures/stimuli/P","M","M","4","58542426733c730001a5d1f4","10/14/2022, 09:17:10",-1.81554706973601,"27","Male","right",1,1,0,0,FALSE,"E_M_Peter_Kay.png P_M_david_camer.png"
5599,"E_F_Sarah_Millican.png","E_M_Jimmy_Carr.png","TRUE","pictures/stimuli/E","pictures/stimuli/E","F","M","6","58542426733c730001a5d1f4","10/14/2022, 09:17:10",0.63964113844792,"27","Male","right",1,1,0,0,FALSE,"E_F_Sarah_Millican.png E_M_Jimmy_Carr.png"
3102,"E_F_Dawn_Roma_French.png","E_F_Sarah_Millican.png","TRUE","pictures/stimuli/E","pictures/stimuli/E","F","F","6","58542426733c730001a5d1f4","10/14/2022, 09:17:10",0.63964113844792,"27","Male","right",0,1,0,0,TRUE,"E_F_Dawn_Roma_French.png E_F_Sarah_Millican.png"
2887,"E_M_Ewan_McGregor.png","P_M_keir_starmer.png","FALSE","pictures/stimuli/E","pictures/stimuli/P","M","M","4","58542426733c730001a5d1f4","10/14/2022, 09:17:10",-1.81554706973601,"27","Male","right",0,1,0,0,TRUE,"E_M_Ewan_McGregor.png P_M_keir_starmer.png"
4031,"P_M_keir_starmer.png","P_M_Tony_Blair.png","TRUE","pictures/stimuli/P","pictures/stimuli/P","M","M","6","58542426733c730001a5d1f4","10/14/2022, 09:17:10",0.63964113844792,"27","Male","right",1,1,0,0,FALSE,"P_M_keir_starmer.png P_M_Tony_Blair.png"
3175,"E_F_Sarah_Millican.png","P_M_Tony_Blair.png","FALSE","pictures/stimuli/E","pictures/stimuli/P","F","M","6","58542426733c730001a5d1f4","10/14/2022, 09:17:10",0.63964113844792,"27","Male","right",1,1,0,0,FALSE,"E_F_Sarah_Millican.png P_M_Tony_Blair.png"
1935,"E_M_Jimmy_Carr.png","P_M_Sajid_Javid.png","FALSE","pictures/stimuli/E","pictures/stimuli/P","M","M","6","58542426733c730001a5d1f4","10/14/2022, 09:17:10",0.63964113844792,"27","Male","right",1,1,0,0,FALSE,"E_M_Jimmy_Carr.png P_M_Sajid_Javid.png"
13655,"E_F_Julie_Walters.png","P_M_Michael_Gove.png","FALSE","pictures/stimuli/E","pictures/stimuli/P","F","M","6","58542426733c730001a5d1f4","10/14/2022, 09:17:10",0.63964113844792,"27","Male","right",0,1,0,0,TRUE,"E_F_Julie_Walters.png P_M_Michael_Gove.png"
2895,"E_F_Jennifer_Saunders.png","E_M_Michael_McIntyr.png","TRUE","pictures/stimuli/E","pictures/stimuli/E","F","M","6","58542426733c730001a5d1f4","10/14/2022, 09:17:10",0.63964113844792,"27","Male","right",0,1,0,0,TRUE,"E_F_Jennifer_Saunders.png E_M_Michael_McIntyr.png"
2310,"P_M_jeremy_corbyn.png","P_M_Michael_Gove.png","TRUE","pictures/stimuli/P","pictures/stimuli/P","M","M","6","58542426733c730001a5d1f4","10/14/2022, 09:17:10",0.63964113844792,"27","Male","right",1,1,0,0,FALSE,"P_M_jeremy_corbyn.png P_M_Michael_Gove.png"
2808,"E_M_Russell_Howard.png","P_M_Michael_Gove.png","FALSE","pictures/stimuli/E","pictures/stimuli/P","M","M","6","58542426733c730001a5d1f4","10/14/2022, 09:17:10",0.63964113844792,"27","Male","right",1,1,0,0,FALSE,"E_M_Russell_Howard.png P_M_Michael_Gove.png"
3022,"E_F_Julie_Walters.png","P_M_Sajid_Javid.png","FALSE","pictures/stimuli/E","pictures/stimuli/P","F","M","6","58542426733c730001a5d1f4","10/14/2022, 09:17:10",0.63964113844792,"27","Male","right",0,1,0,0,TRUE,"E_F_Julie_Walters.png P_M_Sajid_Javid.png"
3335,"E_F_Dawn_Roma_French.png","P_M_nigel_farage.png","FALSE","pictures/stimuli/E","pictures/stimuli/P","F","M","6","58542426733c730001a5d1f4","10/14/2022, 09:17:10",0.63964113844792,"27","Male","right",0,1,0,0,TRUE,"E_F_Dawn_Roma_French.png P_M_nigel_farage.png"
3095,"P_F_nicola_sturge.png","P_M_Sajid_Javid.png","TRUE","pictures/stimuli/P","pictures/stimuli/P","F","M","6","58542426733c730001a5d1f4","10/14/2022, 09:17:10",0.63964113844792,"27","Male","right",1,1,0,0,FALSE,"P_F_nicola_sturge.png P_M_Sajid_Javid.png"
9303,"E_M_Simon_Pegg.png","P_M_Tony_Blair.png","FALSE","pictures/stimuli/E","pictures/stimuli/P","M","M","5","58542426733c730001a5d1f4","10/14/2022, 09:17:10",-0.587952965644047,"27","Male","right",1,1,0,0,FALSE,"E_M_Simon_Pegg.png P_M_Tony_Blair.png"
1806,"E_F_Sarah_Millican.png","E_M_Simon_Pegg.png","TRUE","pictures/stimuli/E","pictures/stimuli/E","F","M","6","58542426733c730001a5d1f4","10/14/2022, 09:17:10",0.63964113844792,"27","Male","right",1,1,0,0,FALSE,"E_F_Sarah_Millican.png E_M_Simon_Pegg.png"
1880,"E_M_Ewan_McGregor.png","P_M_jeremy_corbyn.png","FALSE","pictures/stimuli/E","pictures/stimuli/P","M","M","6","58542426733c730001a5d1f4","10/14/2022, 09:17:10",0.63964113844792,"27","Male","right",0,1,0,0,TRUE,"E_M_Ewan_McGregor.png P_M_jeremy_corbyn.png"
2903,"E_F_Julie_Walters.png","E_M_Jimmy_Carr.png","TRUE","pictures/stimuli/E","pictures/stimuli/E","F","M","5","58542426733c730001a5d1f4","10/14/2022, 09:17:10",-0.587952965644047,"27","Male","right",0,1,0,0,TRUE,"E_F_Julie_Walters.png E_M_Jimmy_Carr.png"
2039,"E_F_Dawn_Roma_French.png","E_M_Simon_Pegg.png","TRUE","pictures/stimuli/E","pictures/stimuli/E","F","M","6","58542426733c730001a5d1f4","10/14/2022, 09:17:10",0.63964113844792,"27","Male","right",0,1,0,0,TRUE,"E_F_Dawn_Roma_French.png E_M_Simon_Pegg.png"
4320,"P_F_Theresa_May.png","P_M_Sajid_Javid.png","TRUE","pictures/stimuli/P","pictures/stimuli/P","F","M","6","58542426733c730001a5d1f4","10/14/2022, 09:17:10",0.63964113844792,"27","Male","right",1,1,0,0,FALSE,"P_F_Theresa_May.png P_M_Sajid_Javid.png"
2639,"E_F_Jennifer_Saunders.png","E_M_Russell_Howard.png","TRUE","pictures/stimuli/E","pictures/stimuli/E","F","M","6","58542426733c730001a5d1f4","10/14/2022, 09:17:10",0.63964113844792,"27","Male","right",0,1,0,0,TRUE,"E_F_Jennifer_Saunders.png E_M_Russell_Howard.png"
4287,"E_M_Jimmy_Carr.png","P_M_jeremy_corbyn.png","FALSE","pictures/stimuli/E","pictures/stimuli/P","M","M","5","58542426733c730001a5d1f4","10/14/2022, 09:17:10",-0.587952965644047,"27","Male","right",1,1,0,0,FALSE,"E_M_Jimmy_Carr.png P_M_jeremy_corbyn.png"
2367,"E_M_Michael_McIntyr.png","P_M_david_camer.png","FALSE","pictures/stimuli/E","pictures/stimuli/P","M","M","4","58542426733c730001a5d1f4","10/14/2022, 09:17:10",-1.81554706973601,"27","Male","right",1,1,0,0,FALSE,"E_M_Michael_McIntyr.png P_M_david_camer.png"
2198,"P_M_nigel_farage.png","P_M_Sajid_Javid.png","TRUE","pictures/stimuli/P","pictures/stimuli/P","M","M","6","58542426733c730001a5d1f4","10/14/2022, 09:17:10",0.63964113844792,"27","Male","right",1,1,0,0,FALSE,"P_M_nigel_farage.png P_M_Sajid_Javid.png"
2503,"E_M_Ewan_McGregor.png","E_M_Simon_Pegg.png","TRUE","pictures/stimuli/E","pictures/stimuli/E","M","M","6","58542426733c730001a5d1f4","10/14/2022, 09:17:10",0.63964113844792,"27","Male","right",0,1,0,0,TRUE,"E_M_Ewan_McGregor.png E_M_Simon_Pegg.png"
6440,"E_M_Peter_Kay.png","E_M_Simon_Pegg.png","TRUE","pictures/stimuli/E","pictures/stimuli/E","M","M","6","58542426733c730001a5d1f4","10/14/2022, 09:17:10",0.63964113844792,"27","Male","right",1,1,0,0,FALSE,"E_M_Peter_Kay.png E_M_Simon_Pegg.png"
4999,"P_M_Gordon_Brown.png","P_M_nigel_farage.png","TRUE","pictures/stimuli/P","pictures/stimuli/P","M","M","5","58542426733c730001a5d1f4","10/14/2022, 09:17:10",-0.587952965644047,"27","Male","right",1,1,0,0,FALSE,"P_M_Gordon_Brown.png P_M_nigel_farage.png"
6847,"E_F_Julie_Walters.png","E_M_Peter_Kay.png","TRUE","pictures/stimuli/E","pictures/stimuli/E","F","M","6","58542426733c730001a5d1f4","10/14/2022, 09:17:10",0.63964113844792,"27","Male","right",0,1,0,0,TRUE,"E_F_Julie_Walters.png E_M_Peter_Kay.png"
6167,"E_M_Peter_Kay.png","P_M_Sajid_Javid.png","FALSE","pictures/stimuli/E","pictures/stimuli/P","M","M","6","58542426733c730001a5d1f4","10/14/2022, 09:17:10",0.63964113844792,"27","Male","right",1,1,0,0,FALSE,"E_M_Peter_Kay.png P_M_Sajid_Javid.png"
2072,"E_F_Dawn_Roma_French.png","E_M_Peter_Kay.png","TRUE","pictures/stimuli/E","pictures/stimuli/E","F","M","6","58542426733c730001a5d1f4","10/14/2022, 09:17:10",0.63964113844792,"27","Male","right",0,1,0,0,TRUE,"E_F_Dawn_Roma_French.png E_M_Peter_Kay.png"
2343,"P_M_david_camer.png","P_M_Sajid_Javid.png","TRUE","pictures/stimuli/P","pictures/stimuli/P","M","M","6","58542426733c730001a5d1f4","10/14/2022, 09:17:10",0.63964113844792,"27","Male","right",1,1,0,0,FALSE,"P_M_david_camer.png P_M_Sajid_Javid.png"
3023,"E_F_Sarah_Millican.png","E_M_Michael_McIntyr.png","TRUE","pictures/stimuli/E","pictures/stimuli/E","F","M","6","58542426733c730001a5d1f4","10/14/2022, 09:17:10",0.63964113844792,"27","Male","right",1,1,0,0,FALSE,"E_F_Sarah_Millican.png E_M_Michael_McIntyr.png"
5576,"E_M_Russell_Howard.png","P_M_Sajid_Javid.png","FALSE","pictures/stimuli/E","pictures/stimuli/P","M","M","5","58542426733c730001a5d1f4","10/14/2022, 09:17:10",-0.587952965644047,"27","Male","right",1,1,0,0,FALSE,"E_M_Russell_Howard.png P_M_Sajid_Javid.png"
4351,"E_M_Ewan_McGregor.png","P_F_nicola_sturge.png","FALSE","pictures/stimuli/E","pictures/stimuli/P","M","F","6","58542426733c730001a5d1f4","10/14/2022, 09:17:10",0.63964113844792,"27","Male","right",0,1,0,0,TRUE,"E_M_Ewan_McGregor.png P_F_nicola_sturge.png"
12727,"P_F_Theresa_May.png","P_M_david_camer.png","TRUE","pictures/stimuli/P","pictures/stimuli/P","F","M","6","58542426733c730001a5d1f4","10/14/2022, 09:17:10",0.63964113844792,"27","Male","right",1,1,0,0,FALSE,"P_F_Theresa_May.png P_M_david_camer.png"
4328,"P_M_david_camer.png","P_M_jeremy_corbyn.png","TRUE","pictures/stimuli/P","pictures/stimuli/P","M","M","6","58542426733c730001a5d1f4","10/14/2022, 09:17:10",0.63964113844792,"27","Male","right",1,1,0,0,FALSE,"P_M_david_camer.png P_M_jeremy_corbyn.png"
7567,"E_F_Julie_Walters.png","P_M_Gordon_Brown.png","FALSE","pictures/stimuli/E","pictures/stimuli/P","F","M","4","58542426733c730001a5d1f4","10/14/2022, 09:17:10",-1.81554706973601,"27","Male","right",0,1,0,0,TRUE,"E_F_Julie_Walters.png P_M_Gordon_Brown.png"
3567,"E_F_Jennifer_Saunders.png","P_F_nicola_sturge.png","FALSE","pictures/stimuli/E","pictures/stimuli/P","F","F","6","58542426733c730001a5d1f4","10/14/2022, 09:17:10",0.63964113844792,"27","Male","right",0,1,0,0,TRUE,"E_F_Jennifer_Saunders.png P_F_nicola_sturge.png"
1871,"E_M_Jimmy_Carr.png","P_M_david_camer.png","FALSE","pictures/stimuli/E","pictures/stimuli/P","M","M","6","58542426733c730001a5d1f4","10/14/2022, 09:17:10",0.63964113844792,"27","Male","right",1,1,0,0,FALSE,"E_M_Jimmy_Carr.png P_M_david_camer.png"
5208,"E_F_Dawn_Roma_French.png","E_M_Russell_Howard.png","TRUE","pictures/stimuli/E","pictures/stimuli/E","F","M","6","58542426733c730001a5d1f4","10/14/2022, 09:17:10",0.63964113844792,"27","Male","right",0,1,0,0,TRUE,"E_F_Dawn_Roma_French.png E_M_Russell_Howard.png"
2231,"E_F_Dawn_Roma_French.png","P_F_nicola_sturge.png","FALSE","pictures/stimuli/E","pictures/stimuli/P","F","F","6","58542426733c730001a5d1f4","10/14/2022, 09:17:10",0.63964113844792,"27","Male","right",0,1,0,0,TRUE,"E_F_Dawn_Roma_French.png P_F_nicola_sturge.png"
4319,"E_M_Russell_Howard.png","P_M_keir_starmer.png","FALSE","pictures/stimuli/E","pictures/stimuli/P","M","M","6","58542426733c730001a5d1f4","10/14/2022, 09:17:10",0.63964113844792,"27","Male","right",1,1,0,0,FALSE,"E_M_Russell_Howard.png P_M_keir_starmer.png"
1799,"P_M_keir_starmer.png","P_M_Sajid_Javid.png","TRUE","pictures/stimuli/P","pictures/stimuli/P","M","M","6","58542426733c730001a5d1f4","10/14/2022, 09:17:10",0.63964113844792,"27","Male","right",1,1,0,0,FALSE,"P_M_keir_starmer.png P_M_Sajid_Javid.png"
2823,"P_M_Gordon_Brown.png","P_M_Michael_Gove.png","TRUE","pictures/stimuli/P","pictures/stimuli/P","M","M","5","58542426733c730001a5d1f4","10/14/2022, 09:17:10",-0.587952965644047,"27","Male","right",1,1,0,0,FALSE,"P_M_Gordon_Brown.png P_M_Michael_Gove.png"
1968,"E_F_Jennifer_Saunders.png","P_M_Gordon_Brown.png","FALSE","pictures/stimuli/E","pictures/stimuli/P","F","M","6","58542426733c730001a5d1f4","10/14/2022, 09:17:10",0.63964113844792,"27","Male","right",0,1,0,0,TRUE,"E_F_Jennifer_Saunders.png P_M_Gordon_Brown.png"
2328,"E_M_Peter_Kay.png","P_F_Theresa_May.png","FALSE","pictures/stimuli/E","pictures/stimuli/P","M","F","6","58542426733c730001a5d1f4","10/14/2022, 09:17:10",0.63964113844792,"27","Male","right",1,1,0,0,FALSE,"E_M_Peter_Kay.png P_F_Theresa_May.png"
6462,"E_F_Julie_Walters.png","E_M_Michael_McIntyr.png","TRUE","pictures/stimuli/E","pictures/stimuli/E","F","M","5","58542426733c730001a5d1f4","10/14/2022, 09:17:10",-0.587952965644047,"27","Male","right",0,1,0,0,TRUE,"E_F_Julie_Walters.png E_M_Michael_McIntyr.png"
4919,"E_F_Dawn_Roma_French.png","E_F_Jennifer_Saunders.png","TRUE","pictures/stimuli/E","pictures/stimuli/E","F","F","6","58542426733c730001a5d1f4","10/14/2022, 09:17:10",0.63964113844792,"27","Male","right",0,0,0,0,TRUE,"E_F_Dawn_Roma_French.png E_F_Jennifer_Saunders.png"
5063,"E_M_Simon_Pegg.png","P_M_Michael_Gove.png","FALSE","pictures/stimuli/E","pictures/stimuli/P","M","M","5","58542426733c730001a5d1f4","10/14/2022, 09:17:10",-0.587952965644047,"27","Male","right",1,1,0,0,FALSE,"E_M_Simon_Pegg.png P_M_Michael_Gove.png"
6050,"E_M_Russell_Howard.png","P_M_keir_starmer.png","FALSE","pictures/stimuli/E","pictures/stimuli/P","M","M","4","599973b4336b6b000159e62d","10/14/2022, 09:20:01",-0.183518716213529,"25","Male","right",1,1,0,0,FALSE,"E_M_Russell_Howard.png P_M_keir_starmer.png"
2685,"P_M_Sajid_Javid.png","P_M_Tony_Blair.png","TRUE","pictures/stimuli/P","pictures/stimuli/P","M","M","5","599973b4336b6b000159e62d","10/14/2022, 09:20:01",1.06178685809256,"25","Male","right",1,1,0,0,FALSE,"P_M_Sajid_Javid.png P_M_Tony_Blair.png"
3321,"P_M_david_camer.png","P_M_Sajid_Javid.png","TRUE","pictures/stimuli/P","pictures/stimuli/P","M","M","5","599973b4336b6b000159e62d","10/14/2022, 09:20:01",1.06178685809256,"25","Male","right",1,1,0,0,FALSE,"P_M_david_camer.png P_M_Sajid_Javid.png"
2821,"P_F_nicola_sturge.png","P_M_Tony_Blair.png","TRUE","pictures/stimuli/P","pictures/stimuli/P","F","M","4","599973b4336b6b000159e62d","10/14/2022, 09:20:01",-0.183518716213529,"25","Male","right",1,1,0,0,FALSE,"P_F_nicola_sturge.png P_M_Tony_Blair.png"
6661,"E_M_Ewan_McGregor.png","P_F_Theresa_May.png","FALSE","pictures/stimuli/E","pictures/stimuli/P","M","F","5","599973b4336b6b000159e62d","10/14/2022, 09:20:01",1.06178685809256,"25","Male","right",1,1,0,0,FALSE,"E_M_Ewan_McGregor.png P_F_Theresa_May.png"
2075,"E_F_Julie_Walters.png","P_M_keir_starmer.png","FALSE","pictures/stimuli/E","pictures/stimuli/P","F","M","4","599973b4336b6b000159e62d","10/14/2022, 09:20:01",-0.183518716213529,"25","Male","right",1,1,0,0,FALSE,"E_F_Julie_Walters.png P_M_keir_starmer.png"
1890,"E_F_Julie_Walters.png","P_M_Tony_Blair.png","FALSE","pictures/stimuli/E","pictures/stimuli/P","F","M","4","599973b4336b6b000159e62d","10/14/2022, 09:20:01",-0.183518716213529,"25","Male","right",1,1,0,0,FALSE,"E_F_Julie_Walters.png P_M_Tony_Blair.png"
3417,"P_M_david_camer.png","P_M_Gordon_Brown.png","TRUE","pictures/stimuli/P","pictures/stimuli/P","M","M","5","599973b4336b6b000159e62d","10/14/2022, 09:20:01",1.06178685809256,"25","Male","right",1,1,0,0,FALSE,"P_M_david_camer.png P_M_Gordon_Brown.png"
1392,"E_M_Russell_Howard.png","P_M_Sajid_Javid.png","FALSE","pictures/stimuli/E","pictures/stimuli/P","M","M","6","599973b4336b6b000159e62d","10/14/2022, 09:20:01",2.30709243239865,"25","Male","right",1,1,0,0,FALSE,"E_M_Russell_Howard.png P_M_Sajid_Javid.png"
1952,"E_M_Jimmy_Carr.png","E_M_Michael_McIntyr.png","TRUE","pictures/stimuli/E","pictures/stimuli/E","M","M","4","599973b4336b6b000159e62d","10/14/2022, 09:20:01",-0.183518716213529,"25","Male","right",1,1,0,0,FALSE,"E_M_Jimmy_Carr.png E_M_Michael_McIntyr.png"
1719,"P_F_Theresa_May.png","P_M_Sajid_Javid.png","TRUE","pictures/stimuli/P","pictures/stimuli/P","F","M","6","599973b4336b6b000159e62d","10/14/2022, 09:20:01",2.30709243239865,"25","Male","right",1,1,0,0,FALSE,"P_F_Theresa_May.png P_M_Sajid_Javid.png"
1691,"E_M_Jimmy_Carr.png","P_M_keir_starmer.png","FALSE","pictures/stimuli/E","pictures/stimuli/P","M","M","5","599973b4336b6b000159e62d","10/14/2022, 09:20:01",1.06178685809256,"25","Male","right",1,1,0,0,FALSE,"E_M_Jimmy_Carr.png P_M_keir_starmer.png"
16507,"E_F_Sarah_Millican.png","P_M_Michael_Gove.png","FALSE","pictures/stimuli/E","pictures/stimuli/P","F","M","5","599973b4336b6b000159e62d","10/14/2022, 09:20:01",1.06178685809256,"25","Male","right",1,1,0,0,FALSE,"E_F_Sarah_Millican.png P_M_Michael_Gove.png"
3121,"E_F_Sarah_Millican.png","P_M_Tony_Blair.png","FALSE","pictures/stimuli/E","pictures/stimuli/P","F","M","4","599973b4336b6b000159e62d","10/14/2022, 09:20:01",-0.183518716213529,"25","Male","right",1,1,0,0,FALSE,"E_F_Sarah_Millican.png P_M_Tony_Blair.png"
2089,"P_F_Theresa_May.png","P_M_Tony_Blair.png","TRUE","pictures/stimuli/P","pictures/stimuli/P","F","M","5","599973b4336b6b000159e62d","10/14/2022, 09:20:01",1.06178685809256,"25","Male","right",1,1,0,0,FALSE,"P_F_Theresa_May.png P_M_Tony_Blair.png"
1962,"E_M_Peter_Kay.png","P_M_Sajid_Javid.png","FALSE","pictures/stimuli/E","pictures/stimuli/P","M","M","5","599973b4336b6b000159e62d","10/14/2022, 09:20:01",1.06178685809256,"25","Male","right",1,1,0,0,FALSE,"E_M_Peter_Kay.png P_M_Sajid_Javid.png"
1485,"E_F_Dawn_Roma_French.png","P_M_Tony_Blair.png","FALSE","pictures/stimuli/E","pictures/stimuli/P","F","M","5","599973b4336b6b000159e62d","10/14/2022, 09:20:01",1.06178685809256,"25","Male","right",1,1,0,0,FALSE,"E_F_Dawn_Roma_French.png P_M_Tony_Blair.png"
1645,"E_M_Michael_McIntyr.png","P_M_Michael_Gove.png","FALSE","pictures/stimuli/E","pictures/stimuli/P","M","M","4","599973b4336b6b000159e62d","10/14/2022, 09:20:01",-0.183518716213529,"25","Male","right",1,1,0,0,FALSE,"E_M_Michael_McIntyr.png P_M_Michael_Gove.png"
2836,"E_F_Sarah_Millican.png","P_M_Sajid_Javid.png","FALSE","pictures/stimuli/E","pictures/stimuli/P","F","M","5","599973b4336b6b000159e62d","10/14/2022, 09:20:01",1.06178685809256,"25","Male","right",1,1,0,0,FALSE,"E_F_Sarah_Millican.png P_M_Sajid_Javid.png"
1678,"P_M_keir_starmer.png","P_M_Michael_Gove.png","TRUE","pictures/stimuli/P","pictures/stimuli/P","M","M","4","599973b4336b6b000159e62d","10/14/2022, 09:20:01",-0.183518716213529,"25","Male","right",1,1,0,0,FALSE,"P_M_keir_starmer.png P_M_Michael_Gove.png"
1900,"E_F_Sarah_Millican.png","E_M_Simon_Pegg.png","TRUE","pictures/stimuli/E","pictures/stimuli/E","F","M","5","599973b4336b6b000159e62d","10/14/2022, 09:20:01",1.06178685809256,"25","Male","right",1,1,0,0,FALSE,"E_F_Sarah_Millican.png E_M_Simon_Pegg.png"
1639,"E_M_Michael_McIntyr.png","E_M_Peter_Kay.png","TRUE","pictures/stimuli/E","pictures/stimuli/E","M","M","3","599973b4336b6b000159e62d","10/14/2022, 09:20:01",-1.42882429051962,"25","Male","right",1,1,0,0,FALSE,"E_M_Michael_McIntyr.png E_M_Peter_Kay.png"
1860,"E_M_Peter_Kay.png","P_M_keir_starmer.png","FALSE","pictures/stimuli/E","pictures/stimuli/P","M","M","4","599973b4336b6b000159e62d","10/14/2022, 09:20:01",-0.183518716213529,"25","Male","right",1,1,0,0,FALSE,"E_M_Peter_Kay.png P_M_keir_starmer.png"
1192,"E_M_Simon_Pegg.png","P_M_Michael_Gove.png","FALSE","pictures/stimuli/E","pictures/stimuli/P","M","M","5","599973b4336b6b000159e62d","10/14/2022, 09:20:01",1.06178685809256,"25","Male","right",1,1,0,0,FALSE,"E_M_Simon_Pegg.png P_M_Michael_Gove.png"
2489,"E_F_Jennifer_Saunders.png","P_M_Gordon_Brown.png","FALSE","pictures/stimuli/E","pictures/stimuli/P","F","M","4","599973b4336b6b000159e62d","10/14/2022, 09:20:01",-0.183518716213529,"25","Male","right",1,1,0,0,FALSE,"E_F_Jennifer_Saunders.png P_M_Gordon_Brown.png"
1462,"P_F_nicola_sturge.png","P_F_Theresa_May.png","TRUE","pictures/stimuli/P","pictures/stimuli/P","F","F","3","599973b4336b6b000159e62d","10/14/2022, 09:20:01",-1.42882429051962,"25","Male","right",1,1,0,0,FALSE,"P_F_nicola_sturge.png P_F_Theresa_May.png"
1302,"E_M_Jimmy_Carr.png","P_M_Michael_Gove.png","FALSE","pictures/stimuli/E","pictures/stimuli/P","M","M","5","599973b4336b6b000159e62d","10/14/2022, 09:20:01",1.06178685809256,"25","Male","right",1,1,0,0,FALSE,"E_M_Jimmy_Carr.png P_M_Michael_Gove.png"
620,"E_F_Sarah_Millican.png","E_M_Jimmy_Carr.png","TRUE","pictures/stimuli/E","pictures/stimuli/E","F","M","4","599973b4336b6b000159e62d","10/14/2022, 09:20:01",-0.183518716213529,"25","Male","right",1,1,0,0,FALSE,"E_F_Sarah_Millican.png E_M_Jimmy_Carr.png"
3583,"E_F_Dawn_Roma_French.png","P_F_nicola_sturge.png","FALSE","pictures/stimuli/E","pictures/stimuli/P","F","F","4","599973b4336b6b000159e62d","10/14/2022, 09:20:01",-0.183518716213529,"25","Male","right",1,1,0,0,FALSE,"E_F_Dawn_Roma_French.png P_F_nicola_sturge.png"
2284,"E_M_Michael_McIntyr.png","E_M_Simon_Pegg.png","TRUE","pictures/stimuli/E","pictures/stimuli/E","M","M","5","599973b4336b6b000159e62d","10/14/2022, 09:20:01",1.06178685809256,"25","Male","right",1,1,0,0,FALSE,"E_M_Michael_McIntyr.png E_M_Simon_Pegg.png"
1166,"E_F_Sarah_Millican.png","E_M_Ewan_McGregor.png","TRUE","pictures/stimuli/E","pictures/stimuli/E","F","M","5","599973b4336b6b000159e62d","10/14/2022, 09:20:01",1.06178685809256,"25","Male","right",1,1,0,0,FALSE,"E_F_Sarah_Millican.png E_M_Ewan_McGregor.png"
1241,"P_F_Theresa_May.png","P_M_david_camer.png","TRUE","pictures/stimuli/P","pictures/stimuli/P","F","M","4","599973b4336b6b000159e62d","10/14/2022, 09:20:01",-0.183518716213529,"25","Male","right",1,1,0,0,FALSE,"P_F_Theresa_May.png P_M_david_camer.png"
3342,"E_M_Michael_McIntyr.png","P_F_nicola_sturge.png","FALSE","pictures/stimuli/E","pictures/stimuli/P","M","F","4","599973b4336b6b000159e62d","10/14/2022, 09:20:01",-0.183518716213529,"25","Male","right",1,1,0,0,FALSE,"E_M_Michael_McIntyr.png P_F_nicola_sturge.png"
1271,"E_M_Michael_McIntyr.png","P_M_Gordon_Brown.png","FALSE","pictures/stimuli/E","pictures/stimuli/P","M","M","5","599973b4336b6b000159e62d","10/14/2022, 09:20:01",1.06178685809256,"25","Male","right",1,1,0,0,FALSE,"E_M_Michael_McIntyr.png P_M_Gordon_Brown.png"
1786,"E_F_Jennifer_Saunders.png","P_M_Sajid_Javid.png","FALSE","pictures/stimuli/E","pictures/stimuli/P","F","M","6","599973b4336b6b000159e62d","10/14/2022, 09:20:01",2.30709243239865,"25","Male","right",1,1,0,0,FALSE,"E_F_Jennifer_Saunders.png P_M_Sajid_Javid.png"
1259,"E_M_Russell_Howard.png","P_M_nigel_farage.png","FALSE","pictures/stimuli/E","pictures/stimuli/P","M","M","5","599973b4336b6b000159e62d","10/14/2022, 09:20:01",1.06178685809256,"25","Male","right",1,1,0,0,FALSE,"E_M_Russell_Howard.png P_M_nigel_farage.png"
1419,"P_M_Michael_Gove.png","P_M_Tony_Blair.png","TRUE","pictures/stimuli/P","pictures/stimuli/P","M","M","4","599973b4336b6b000159e62d","10/14/2022, 09:20:01",-0.183518716213529,"25","Male","right",1,1,0,0,FALSE,"P_M_Michael_Gove.png P_M_Tony_Blair.png"
1687,"E_M_Ewan_McGregor.png","P_M_jeremy_corbyn.png","FALSE","pictures/stimuli/E","pictures/stimuli/P","M","M","4","599973b4336b6b000159e62d","10/14/2022, 09:20:01",-0.183518716213529,"25","Male","right",1,1,0,0,FALSE,"E_M_Ewan_McGregor.png P_M_jeremy_corbyn.png"
3633,"E_M_Jimmy_Carr.png","E_M_Russell_Howard.png","TRUE","pictures/stimuli/E","pictures/stimuli/E","M","M","2","599973b4336b6b000159e62d","10/14/2022, 09:20:01",-2.67412986482571,"25","Male","right",1,1,0,0,FALSE,"E_M_Jimmy_Carr.png E_M_Russell_Howard.png"
1463,"E_M_Peter_Kay.png","E_M_Simon_Pegg.png","TRUE","pictures/stimuli/E","pictures/stimuli/E","M","M","4","599973b4336b6b000159e62d","10/14/2022, 09:20:01",-0.183518716213529,"25","Male","right",1,1,0,0,FALSE,"E_M_Peter_Kay.png E_M_Simon_Pegg.png"
1113,"E_M_Ewan_McGregor.png","P_M_Gordon_Brown.png","FALSE","pictures/stimuli/E","pictures/stimuli/P","M","M","4","599973b4336b6b000159e62d","10/14/2022, 09:20:01",-0.183518716213529,"25","Male","right",1,1,0,0,FALSE,"E_M_Ewan_McGregor.png P_M_Gordon_Brown.png"
2385,"E_F_Dawn_Roma_French.png","P_F_Theresa_May.png","FALSE","pictures/stimuli/E","pictures/stimuli/P","F","F","4","599973b4336b6b000159e62d","10/14/2022, 09:20:01",-0.183518716213529,"25","Male","right",1,1,0,0,FALSE,"E_F_Dawn_Roma_French.png P_F_Theresa_May.png"
1588,"E_M_Jimmy_Carr.png","P_M_Sajid_Javid.png","FALSE","pictures/stimuli/E","pictures/stimuli/P","M","M","5","599973b4336b6b000159e62d","10/14/2022, 09:20:01",1.06178685809256,"25","Male","right",1,1,0,0,FALSE,"E_M_Jimmy_Carr.png P_M_Sajid_Javid.png"
1276,"E_M_Ewan_McGregor.png","P_M_keir_starmer.png","FALSE","pictures/stimuli/E","pictures/stimuli/P","M","M","4","599973b4336b6b000159e62d","10/14/2022, 09:20:01",-0.183518716213529,"25","Male","right",1,1,0,0,FALSE,"E_M_Ewan_McGregor.png P_M_keir_starmer.png"
1279,"E_M_Ewan_McGregor.png","P_M_nigel_farage.png","FALSE","pictures/stimuli/E","pictures/stimuli/P","M","M","5","599973b4336b6b000159e62d","10/14/2022, 09:20:01",1.06178685809256,"25","Male","right",1,1,0,0,FALSE,"E_M_Ewan_McGregor.png P_M_nigel_farage.png"
1009,"E_F_Sarah_Millican.png","E_M_Russell_Howard.png","TRUE","pictures/stimuli/E","pictures/stimuli/E","F","M","5","599973b4336b6b000159e62d","10/14/2022, 09:20:01",1.06178685809256,"25","Male","right",1,1,0,0,FALSE,"E_F_Sarah_Millican.png E_M_Russell_Howard.png"
1873,"P_M_nigel_farage.png","P_M_Tony_Blair.png","TRUE","pictures/stimuli/P","pictures/stimuli/P","M","M","2","599973b4336b6b000159e62d","10/14/2022, 09:20:01",-2.67412986482571,"25","Male","right",1,1,0,0,FALSE,"P_M_nigel_farage.png P_M_Tony_Blair.png"
1363,"E_M_Russell_Howard.png","P_M_david_camer.png","FALSE","pictures/stimuli/E","pictures/stimuli/P","M","M","3","599973b4336b6b000159e62d","10/14/2022, 09:20:01",-1.42882429051962,"25","Male","right",1,1,0,0,FALSE,"E_M_Russell_Howard.png P_M_david_camer.png"
1574,"P_M_keir_starmer.png","P_M_nigel_farage.png","TRUE","pictures/stimuli/P","pictures/stimuli/P","M","M","4","599973b4336b6b000159e62d","10/14/2022, 09:20:01",-0.183518716213529,"25","Male","right",1,1,0,0,FALSE,"P_M_keir_starmer.png P_M_nigel_farage.png"
2612,"P_M_david_camer.png","P_M_keir_starmer.png","TRUE","pictures/stimuli/P","pictures/stimuli/P","M","M","2","599973b4336b6b000159e62d","10/14/2022, 09:20:01",-2.67412986482571,"25","Male","right",1,1,0,0,FALSE,"P_M_david_camer.png P_M_keir_starmer.png"
2028,"E_F_Julie_Walters.png","E_M_Russell_Howard.png","TRUE","pictures/stimuli/E","pictures/stimuli/E","F","M","4","599973b4336b6b000159e62d","10/14/2022, 09:20:01",-0.183518716213529,"25","Male","right",1,1,0,0,FALSE,"E_F_Julie_Walters.png E_M_Russell_Howard.png"
1583,"E_M_Ewan_McGregor.png","E_M_Michael_McIntyr.png","TRUE","pictures/stimuli/E","pictures/stimuli/E","M","M","4","599973b4336b6b000159e62d","10/14/2022, 09:20:01",-0.183518716213529,"25","Male","right",1,1,0,0,FALSE,"E_M_Ewan_McGregor.png E_M_Michael_McIntyr.png"
45381,"E_M_Peter_Kay.png","P_F_Theresa_May.png","FALSE","pictures/stimuli/E","pictures/stimuli/P","M","F","4","599973b4336b6b000159e62d","10/14/2022, 09:20:01",-0.183518716213529,"25","Male","right",1,1,0,0,TRUE,"E_M_Peter_Kay.png P_F_Theresa_May.png"
1535,"E_F_Sarah_Millican.png","P_F_Theresa_May.png","FALSE","pictures/stimuli/E","pictures/stimuli/P","F","F","4","599973b4336b6b000159e62d","10/14/2022, 09:20:01",-0.183518716213529,"25","Male","right",1,1,0,0,FALSE,"E_F_Sarah_Millican.png P_F_Theresa_May.png"
1027,"E_F_Sarah_Millican.png","E_M_Peter_Kay.png","TRUE","pictures/stimuli/E","pictures/stimuli/E","F","M","4","599973b4336b6b000159e62d","10/14/2022, 09:20:01",-0.183518716213529,"25","Male","right",1,1,0,0,FALSE,"E_F_Sarah_Millican.png E_M_Peter_Kay.png"
1634,"E_F_Dawn_Roma_French.png","P_M_Sajid_Javid.png","FALSE","pictures/stimuli/E","pictures/stimuli/P","F","M","5","599973b4336b6b000159e62d","10/14/2022, 09:20:01",1.06178685809256,"25","Male","right",1,1,0,0,FALSE,"E_F_Dawn_Roma_French.png P_M_Sajid_Javid.png"
1401,"E_F_Sarah_Millican.png","P_M_david_camer.png","FALSE","pictures/stimuli/E","pictures/stimuli/P","F","M","4","599973b4336b6b000159e62d","10/14/2022, 09:20:01",-0.183518716213529,"25","Male","right",1,1,0,0,FALSE,"E_F_Sarah_Millican.png P_M_david_camer.png"
2176,"P_M_Gordon_Brown.png","P_M_jeremy_corbyn.png","TRUE","pictures/stimuli/P","pictures/stimuli/P","M","M","4","599973b4336b6b000159e62d","10/14/2022, 09:20:01",-0.183518716213529,"25","Male","right",1,1,0,0,FALSE,"P_M_Gordon_Brown.png P_M_jeremy_corbyn.png"
1841,"P_F_Theresa_May.png","P_M_keir_starmer.png","TRUE","pictures/stimuli/P","pictures/stimuli/P","F","M","4","599973b4336b6b000159e62d","10/14/2022, 09:20:01",-0.183518716213529,"25","Male","right",1,1,0,0,FALSE,"P_F_Theresa_May.png P_M_keir_starmer.png"
1207,"E_M_Jimmy_Carr.png","P_M_jeremy_corbyn.png","FALSE","pictures/stimuli/E","pictures/stimuli/P","M","M","5","599973b4336b6b000159e62d","10/14/2022, 09:20:01",1.06178685809256,"25","Male","right",1,1,0,0,FALSE,"E_M_Jimmy_Carr.png P_M_jeremy_corbyn.png"
1625,"E_F_Jennifer_Saunders.png","E_F_Julie_Walters.png","TRUE","pictures/stimuli/E","pictures/stimuli/E","F","F","2","599973b4336b6b000159e62d","10/14/2022, 09:20:01",-2.67412986482571,"25","Male","right",1,1,0,0,FALSE,"E_F_Jennifer_Saunders.png E_F_Julie_Walters.png"
1220,"E_M_Peter_Kay.png","P_F_nicola_sturge.png","FALSE","pictures/stimuli/E","pictures/stimuli/P","M","F","4","599973b4336b6b000159e62d","10/14/2022, 09:20:01",-0.183518716213529,"25","Male","right",1,1,0,0,FALSE,"E_M_Peter_Kay.png P_F_nicola_sturge.png"
1830,"E_M_Russell_Howard.png","P_M_Michael_Gove.png","FALSE","pictures/stimuli/E","pictures/stimuli/P","M","M","4","599973b4336b6b000159e62d","10/14/2022, 09:20:01",-0.183518716213529,"25","Male","right",1,1,0,0,FALSE,"E_M_Russell_Howard.png P_M_Michael_Gove.png"
1442,"E_M_Jimmy_Carr.png","P_M_Tony_Blair.png","FALSE","pictures/stimuli/E","pictures/stimuli/P","M","M","4","599973b4336b6b000159e62d","10/14/2022, 09:20:01",-0.183518716213529,"25","Male","right",1,1,0,0,FALSE,"E_M_Jimmy_Carr.png P_M_Tony_Blair.png"
1887,"P_M_david_camer.png","P_M_nigel_farage.png","TRUE","pictures/stimuli/P","pictures/stimuli/P","M","M","3","599973b4336b6b000159e62d","10/14/2022, 09:20:01",-1.42882429051962,"25","Male","right",1,1,0,0,FALSE,"P_M_david_camer.png P_M_nigel_farage.png"
1513,"P_M_jeremy_corbyn.png","P_M_keir_starmer.png","TRUE","pictures/stimuli/P","pictures/stimuli/P","M","M","5","599973b4336b6b000159e62d","10/14/2022, 09:20:01",1.06178685809256,"25","Male","right",1,1,0,0,FALSE,"P_M_jeremy_corbyn.png P_M_keir_starmer.png"
1108,"E_F_Dawn_Roma_French.png","P_M_Michael_Gove.png","FALSE","pictures/stimuli/E","pictures/stimuli/P","F","M","5","599973b4336b6b000159e62d","10/14/2022, 09:20:01",1.06178685809256,"25","Male","right",1,1,0,0,FALSE,"E_F_Dawn_Roma_French.png P_M_Michael_Gove.png"
1286,"P_M_jeremy_corbyn.png","P_M_nigel_farage.png","TRUE","pictures/stimuli/P","pictures/stimuli/P","M","M","4","599973b4336b6b000159e62d","10/14/2022, 09:20:01",-0.183518716213529,"25","Male","right",1,1,0,0,FALSE,"P_M_jeremy_corbyn.png P_M_nigel_farage.png"
1178,"E_M_Simon_Pegg.png","P_M_Gordon_Brown.png","FALSE","pictures/stimuli/E","pictures/stimuli/P","M","M","5","599973b4336b6b000159e62d","10/14/2022, 09:20:01",1.06178685809256,"25","Male","right",1,1,0,0,FALSE,"E_M_Simon_Pegg.png P_M_Gordon_Brown.png"
15953,"E_F_Julie_Walters.png","P_M_nigel_farage.png","FALSE","pictures/stimuli/E","pictures/stimuli/P","F","M","5","599973b4336b6b000159e62d","10/14/2022, 09:20:01",1.06178685809256,"25","Male","right",1,1,0,0,FALSE,"E_F_Julie_Walters.png P_M_nigel_farage.png"
1017,"E_F_Julie_Walters.png","E_M_Michael_McIntyr.png","TRUE","pictures/stimuli/E","pictures/stimuli/E","F","M","5","599973b4336b6b000159e62d","10/14/2022, 09:20:01",1.06178685809256,"25","Male","right",1,1,0,0,FALSE,"E_F_Julie_Walters.png E_M_Michael_McIntyr.png"
1208,"E_M_Michael_McIntyr.png","P_F_Theresa_May.png","FALSE","pictures/stimuli/E","pictures/stimuli/P","M","F","4","599973b4336b6b000159e62d","10/14/2022, 09:20:01",-0.183518716213529,"25","Male","right",1,1,0,0,FALSE,"E_M_Michael_McIntyr.png P_F_Theresa_May.png"
1824,"E_F_Jennifer_Saunders.png","P_M_Tony_Blair.png","FALSE","pictures/stimuli/E","pictures/stimuli/P","F","M","4","599973b4336b6b000159e62d","10/14/2022, 09:20:01",-0.183518716213529,"25","Male","right",1,1,0,0,FALSE,"E_F_Jennifer_Saunders.png P_M_Tony_Blair.png"
2023,"E_M_Ewan_McGregor.png","E_M_Simon_Pegg.png","TRUE","pictures/stimuli/E","pictures/stimuli/E","M","M","3","599973b4336b6b000159e62d","10/14/2022, 09:20:01",-1.42882429051962,"25","Male","right",1,1,0,0,FALSE,"E_M_Ewan_McGregor.png E_M_Simon_Pegg.png"
1562,"P_M_jeremy_corbyn.png","P_M_Tony_Blair.png","TRUE","pictures/stimuli/P","pictures/stimuli/P","M","M","5","599973b4336b6b000159e62d","10/14/2022, 09:20:01",1.06178685809256,"25","Male","right",1,1,0,0,FALSE,"P_M_jeremy_corbyn.png P_M_Tony_Blair.png"
1508,"P_M_keir_starmer.png","P_M_Tony_Blair.png","TRUE","pictures/stimuli/P","pictures/stimuli/P","M","M","2","599973b4336b6b000159e62d","10/14/2022, 09:20:01",-2.67412986482571,"25","Male","right",1,1,0,0,FALSE,"P_M_keir_starmer.png P_M_Tony_Blair.png"
1206,"E_F_Sarah_Millican.png","P_M_nigel_farage.png","FALSE","pictures/stimuli/E","pictures/stimuli/P","F","M","4","599973b4336b6b000159e62d","10/14/2022, 09:20:01",-0.183518716213529,"25","Male","right",1,1,0,0,FALSE,"E_F_Sarah_Millican.png P_M_nigel_farage.png"
1409,"E_M_Simon_Pegg.png","P_M_Tony_Blair.png","FALSE","pictures/stimuli/E","pictures/stimuli/P","M","M","4","599973b4336b6b000159e62d","10/14/2022, 09:20:01",-0.183518716213529,"25","Male","right",1,1,0,0,FALSE,"E_M_Simon_Pegg.png P_M_Tony_Blair.png"
1044,"E_M_Ewan_McGregor.png","E_M_Jimmy_Carr.png","TRUE","pictures/stimuli/E","pictures/stimuli/E","M","M","4","599973b4336b6b000159e62d","10/14/2022, 09:20:01",-0.183518716213529,"25","Male","right",1,1,0,0,FALSE,"E_M_Ewan_McGregor.png E_M_Jimmy_Carr.png"
1528,"E_F_Jennifer_Saunders.png","E_M_Michael_McIntyr.png","TRUE","pictures/stimuli/E","pictures/stimuli/E","F","M","4","599973b4336b6b000159e62d","10/14/2022, 09:20:01",-0.183518716213529,"25","Male","right",1,1,0,0,FALSE,"E_F_Jennifer_Saunders.png E_M_Michael_McIntyr.png"
16787,"E_F_Dawn_Roma_French.png","E_M_Jimmy_Carr.png","TRUE","pictures/stimuli/E","pictures/stimuli/E","F","M","3","599973b4336b6b000159e62d","10/14/2022, 09:20:01",-1.42882429051962,"25","Male","right",1,1,0,0,FALSE,"E_F_Dawn_Roma_French.png E_M_Jimmy_Carr.png"
1553,"E_F_Julie_Walters.png","P_M_Michael_Gove.png","FALSE","pictures/stimuli/E","pictures/stimuli/P","F","M","4","599973b4336b6b000159e62d","10/14/2022, 09:20:01",-0.183518716213529,"25","Male","right",1,1,0,0,FALSE,"E_F_Julie_Walters.png P_M_Michael_Gove.png"
2171,"E_F_Julie_Walters.png","E_M_Simon_Pegg.png","TRUE","pictures/stimuli/E","pictures/stimuli/E","F","M","4","599973b4336b6b000159e62d","10/14/2022, 09:20:01",-0.183518716213529,"25","Male","right",1,1,0,0,FALSE,"E_F_Julie_Walters.png E_M_Simon_Pegg.png"
1525,"E_F_Dawn_Roma_French.png","E_M_Peter_Kay.png","TRUE","pictures/stimuli/E","pictures/stimuli/E","F","M","3","599973b4336b6b000159e62d","10/14/2022, 09:20:01",-1.42882429051962,"25","Male","right",1,1,0,0,FALSE,"E_F_Dawn_Roma_French.png E_M_Peter_Kay.png"
1483,"P_F_nicola_sturge.png","P_M_Gordon_Brown.png","TRUE","pictures/stimuli/P","pictures/stimuli/P","F","M","4","599973b4336b6b000159e62d","10/14/2022, 09:20:01",-0.183518716213529,"25","Male","right",1,1,0,0,FALSE,"P_F_nicola_sturge.png P_M_Gordon_Brown.png"
8933,"P_M_nigel_farage.png","P_M_Sajid_Javid.png","TRUE","pictures/stimuli/P","pictures/stimuli/P","M","M","5","599973b4336b6b000159e62d","10/14/2022, 09:20:01",1.06178685809256,"25","Male","right",1,1,0,0,FALSE,"P_M_nigel_farage.png P_M_Sajid_Javid.png"
8692,"E_F_Jennifer_Saunders.png","P_M_david_camer.png","FALSE","pictures/stimuli/E","pictures/stimuli/P","F","M","4","599973b4336b6b000159e62d","10/14/2022, 09:20:01",-0.183518716213529,"25","Male","right",1,1,0,0,FALSE,"E_F_Jennifer_Saunders.png P_M_david_camer.png"
1296,"E_M_Jimmy_Carr.png","P_M_david_camer.png","FALSE","pictures/stimuli/E","pictures/stimuli/P","M","M","3","599973b4336b6b000159e62d","10/14/2022, 09:20:01",-1.42882429051962,"25","Male","right",1,1,0,0,FALSE,"E_M_Jimmy_Carr.png P_M_david_camer.png"
1061,"E_M_Ewan_McGregor.png","P_F_nicola_sturge.png","FALSE","pictures/stimuli/E","pictures/stimuli/P","M","F","4","599973b4336b6b000159e62d","10/14/2022, 09:20:01",-0.183518716213529,"25","Male","right",1,1,0,0,FALSE,"E_M_Ewan_McGregor.png P_F_nicola_sturge.png"
962,"P_F_nicola_sturge.png","P_M_Sajid_Javid.png","TRUE","pictures/stimuli/P","pictures/stimuli/P","F","M","5","599973b4336b6b000159e62d","10/14/2022, 09:20:01",1.06178685809256,"25","Male","right",1,1,0,0,FALSE,"P_F_nicola_sturge.png P_M_Sajid_Javid.png"
974,"E_M_Ewan_McGregor.png","E_M_Peter_Kay.png","TRUE","pictures/stimuli/E","pictures/stimuli/E","M","M","4","599973b4336b6b000159e62d","10/14/2022, 09:20:01",-0.183518716213529,"25","Male","right",1,1,0,0,FALSE,"E_M_Ewan_McGregor.png E_M_Peter_Kay.png"
1165,"E_M_Ewan_McGregor.png","P_M_Michael_Gove.png","FALSE","pictures/stimuli/E","pictures/stimuli/P","M","M","4","599973b4336b6b000159e62d","10/14/2022, 09:20:01",-0.183518716213529,"25","Male","right",1,1,0,0,FALSE,"E_M_Ewan_McGregor.png P_M_Michael_Gove.png"
1194,"E_F_Dawn_Roma_French.png","E_M_Russell_Howard.png","TRUE","pictures/stimuli/E","pictures/stimuli/E","F","M","5","599973b4336b6b000159e62d","10/14/2022, 09:20:01",1.06178685809256,"25","Male","right",1,1,0,0,FALSE,"E_F_Dawn_Roma_French.png E_M_Russell_Howard.png"
2937,"P_M_Michael_Gove.png","P_M_nigel_farage.png","TRUE","pictures/stimuli/P","pictures/stimuli/P","M","M","3","599973b4336b6b000159e62d","10/14/2022, 09:20:01",-1.42882429051962,"25","Male","right",1,1,0,0,FALSE,"P_M_Michael_Gove.png P_M_nigel_farage.png"
2202,"E_F_Julie_Walters.png","E_M_Jimmy_Carr.png","TRUE","pictures/stimuli/E","pictures/stimuli/E","F","M","4","599973b4336b6b000159e62d","10/14/2022, 09:20:01",-0.183518716213529,"25","Male","right",1,1,0,0,FALSE,"E_F_Julie_Walters.png E_M_Jimmy_Carr.png"
1347,"E_M_Michael_McIntyr.png","P_M_nigel_farage.png","FALSE","pictures/stimuli/E","pictures/stimuli/P","M","M","4","599973b4336b6b000159e62d","10/14/2022, 09:20:01",-0.183518716213529,"25","Male","right",1,1,0,0,FALSE,"E_M_Michael_McIntyr.png P_M_nigel_farage.png"
1520,"E_M_Russell_Howard.png","P_M_Gordon_Brown.png","FALSE","pictures/stimuli/E","pictures/stimuli/P","M","M","5","599973b4336b6b000159e62d","10/14/2022, 09:20:01",1.06178685809256,"25","Male","right",1,1,0,0,FALSE,"E_M_Russell_Howard.png P_M_Gordon_Brown.png"
1618,"E_F_Sarah_Millican.png","E_M_Michael_McIntyr.png","TRUE","pictures/stimuli/E","pictures/stimuli/E","F","M","4","599973b4336b6b000159e62d","10/14/2022, 09:20:01",-0.183518716213529,"25","Male","right",1,1,0,0,FALSE,"E_F_Sarah_Millican.png E_M_Michael_McIntyr.png"
1622,"P_F_Theresa_May.png","P_M_Gordon_Brown.png","TRUE","pictures/stimuli/P","pictures/stimuli/P","F","M","5","599973b4336b6b000159e62d","10/14/2022, 09:20:01",1.06178685809256,"25","Male","right",1,1,0,0,FALSE,"P_F_Theresa_May.png P_M_Gordon_Brown.png"
648,"E_M_Michael_McIntyr.png","P_M_david_camer.png","FALSE","pictures/stimuli/E","pictures/stimuli/P","M","M","4","599973b4336b6b000159e62d","10/14/2022, 09:20:01",-0.183518716213529,"25","Male","right",1,1,0,0,FALSE,"E_M_Michael_McIntyr.png P_M_david_camer.png"
1389,"E_M_Peter_Kay.png","P_M_nigel_farage.png","FALSE","pictures/stimuli/E","pictures/stimuli/P","M","M","5","599973b4336b6b000159e62d","10/14/2022, 09:20:01",1.06178685809256,"25","Male","right",1,1,0,0,FALSE,"E_M_Peter_Kay.png P_M_nigel_farage.png"
1858,"P_M_david_camer.png","P_M_Tony_Blair.png","TRUE","pictures/stimuli/P","pictures/stimuli/P","M","M","2","599973b4336b6b000159e62d","10/14/2022, 09:20:01",-2.67412986482571,"25","Male","right",1,1,0,0,FALSE,"P_M_david_camer.png P_M_Tony_Blair.png"
1107,"E_M_Russell_Howard.png","E_M_Simon_Pegg.png","TRUE","pictures/stimuli/E","pictures/stimuli/E","M","M","4","599973b4336b6b000159e62d","10/14/2022, 09:20:01",-0.183518716213529,"25","Male","right",1,1,0,0,FALSE,"E_M_Russell_Howard.png E_M_Simon_Pegg.png"
14082,"P_F_nicola_sturge.png","P_M_nigel_farage.png","TRUE","pictures/stimuli/P","pictures/stimuli/P","F","M","4","599973b4336b6b000159e62d","10/14/2022, 09:20:01",-0.183518716213529,"25","Male","right",1,1,0,0,FALSE,"P_F_nicola_sturge.png P_M_nigel_farage.png"
1994,"E_M_Michael_McIntyr.png","E_M_Russell_Howard.png","TRUE","pictures/stimuli/E","pictures/stimuli/E","M","M","3","599973b4336b6b000159e62d","10/14/2022, 09:20:01",-1.42882429051962,"25","Male","right",1,1,0,0,FALSE,"E_M_Michael_McIntyr.png E_M_Russell_Howard.png"
1205,"E_F_Dawn_Roma_French.png","E_M_Simon_Pegg.png","TRUE","pictures/stimuli/E","pictures/stimuli/E","F","M","4","599973b4336b6b000159e62d","10/14/2022, 09:20:01",-0.183518716213529,"25","Male","right",1,1,0,0,FALSE,"E_F_Dawn_Roma_French.png E_M_Simon_Pegg.png"
1724,"E_F_Jennifer_Saunders.png","P_F_nicola_sturge.png","FALSE","pictures/stimuli/E","pictures/stimuli/P","F","F","3","599973b4336b6b000159e62d","10/14/2022, 09:20:01",-1.42882429051962,"25","Male","right",1,1,0,0,FALSE,"E_F_Jennifer_Saunders.png P_F_nicola_sturge.png"
1330,"E_M_Jimmy_Carr.png","E_M_Simon_Pegg.png","TRUE","pictures/stimuli/E","pictures/stimuli/E","M","M","4","599973b4336b6b000159e62d","10/14/2022, 09:20:01",-0.183518716213529,"25","Male","right",1,1,0,0,FALSE,"E_M_Jimmy_Carr.png E_M_Simon_Pegg.png"
1812,"E_M_Jimmy_Carr.png","E_M_Peter_Kay.png","TRUE","pictures/stimuli/E","pictures/stimuli/E","M","M","3","599973b4336b6b000159e62d","10/14/2022, 09:20:01",-1.42882429051962,"25","Male","right",1,1,0,0,FALSE,"E_M_Jimmy_Carr.png E_M_Peter_Kay.png"
1461,"E_M_Russell_Howard.png","P_M_Tony_Blair.png","FALSE","pictures/stimuli/E","pictures/stimuli/P","M","M","4","599973b4336b6b000159e62d","10/14/2022, 09:20:01",-0.183518716213529,"25","Male","right",1,1,0,0,FALSE,"E_M_Russell_Howard.png P_M_Tony_Blair.png"
908,"E_M_Simon_Pegg.png","P_M_david_camer.png","FALSE","pictures/stimuli/E","pictures/stimuli/P","M","M","4","599973b4336b6b000159e62d","10/14/2022, 09:20:01",-0.183518716213529,"25","Male","right",1,1,0,0,FALSE,"E_M_Simon_Pegg.png P_M_david_camer.png"
1464,"P_M_Gordon_Brown.png","P_M_Tony_Blair.png","TRUE","pictures/stimuli/P","pictures/stimuli/P","M","M","2","599973b4336b6b000159e62d","10/14/2022, 09:20:01",-2.67412986482571,"25","Male","right",1,1,0,0,FALSE,"P_M_Gordon_Brown.png P_M_Tony_Blair.png"
1631,"P_M_jeremy_corbyn.png","P_M_Sajid_Javid.png","TRUE","pictures/stimuli/P","pictures/stimuli/P","M","M","5","599973b4336b6b000159e62d","10/14/2022, 09:20:01",1.06178685809256,"25","Male","right",1,1,0,0,FALSE,"P_M_jeremy_corbyn.png P_M_Sajid_Javid.png"
1213,"E_M_Simon_Pegg.png","P_M_jeremy_corbyn.png","FALSE","pictures/stimuli/E","pictures/stimuli/P","M","M","5","599973b4336b6b000159e62d","10/14/2022, 09:20:01",1.06178685809256,"25","Male","right",1,1,0,0,FALSE,"E_M_Simon_Pegg.png P_M_jeremy_corbyn.png"
1715,"P_M_david_camer.png","P_M_jeremy_corbyn.png","TRUE","pictures/stimuli/P","pictures/stimuli/P","M","M","5","599973b4336b6b000159e62d","10/14/2022, 09:20:01",1.06178685809256,"25","Male","right",1,1,0,0,FALSE,"P_M_david_camer.png P_M_jeremy_corbyn.png"
6792,"E_F_Jennifer_Saunders.png","E_M_Peter_Kay.png","TRUE","pictures/stimuli/E","pictures/stimuli/E","F","M","4","599973b4336b6b000159e62d","10/14/2022, 09:20:01",-0.183518716213529,"25","Male","right",1,1,0,0,FALSE,"E_F_Jennifer_Saunders.png E_M_Peter_Kay.png"
1320,"E_M_Peter_Kay.png","E_M_Russell_Howard.png","TRUE","pictures/stimuli/E","pictures/stimuli/E","M","M","3","599973b4336b6b000159e62d","10/14/2022, 09:20:01",-1.42882429051962,"25","Male","right",1,1,0,0,FALSE,"E_M_Peter_Kay.png E_M_Russell_Howard.png"
1837,"E_M_Russell_Howard.png","P_M_jeremy_corbyn.png","FALSE","pictures/stimuli/E","pictures/stimuli/P","M","M","4","599973b4336b6b000159e62d","10/14/2022, 09:20:01",-0.183518716213529,"25","Male","right",1,1,0,0,FALSE,"E_M_Russell_Howard.png P_M_jeremy_corbyn.png"
1497,"E_M_Ewan_McGregor.png","P_M_Tony_Blair.png","FALSE","pictures/stimuli/E","pictures/stimuli/P","M","M","4","599973b4336b6b000159e62d","10/14/2022, 09:20:01",-0.183518716213529,"25","Male","right",1,1,0,0,FALSE,"E_M_Ewan_McGregor.png P_M_Tony_Blair.png"
1493,"P_F_Theresa_May.png","P_M_nigel_farage.png","TRUE","pictures/stimuli/P","pictures/stimuli/P","F","M","5","599973b4336b6b000159e62d","10/14/2022, 09:20:01",1.06178685809256,"25","Male","right",1,1,0,0,FALSE,"P_F_Theresa_May.png P_M_nigel_farage.png"
2177,"E_F_Sarah_Millican.png","P_M_Gordon_Brown.png","FALSE","pictures/stimuli/E","pictures/stimuli/P","F","M","4","599973b4336b6b000159e62d","10/14/2022, 09:20:01",-0.183518716213529,"25","Male","right",1,1,0,0,FALSE,"E_F_Sarah_Millican.png P_M_Gordon_Brown.png"
7477,"E_F_Jennifer_Saunders.png","E_M_Ewan_McGregor.png","TRUE","pictures/stimuli/E","pictures/stimuli/E","F","M","4","599973b4336b6b000159e62d","10/14/2022, 09:20:01",-0.183518716213529,"25","Male","right",1,1,0,0,FALSE,"E_F_Jennifer_Saunders.png E_M_Ewan_McGregor.png"
1892,"E_F_Julie_Walters.png","P_M_jeremy_corbyn.png","FALSE","pictures/stimuli/E","pictures/stimuli/P","F","M","5","599973b4336b6b000159e62d","10/14/2022, 09:20:01",1.06178685809256,"25","Male","right",1,1,0,0,FALSE,"E_F_Julie_Walters.png P_M_jeremy_corbyn.png"
1603,"E_M_Simon_Pegg.png","P_M_keir_starmer.png","FALSE","pictures/stimuli/E","pictures/stimuli/P","M","M","4","599973b4336b6b000159e62d","10/14/2022, 09:20:01",-0.183518716213529,"25","Male","right",1,1,0,0,FALSE,"E_M_Simon_Pegg.png P_M_keir_starmer.png"
2923,"E_F_Dawn_Roma_French.png","P_M_jeremy_corbyn.png","FALSE","pictures/stimuli/E","pictures/stimuli/P","F","M","4","599973b4336b6b000159e62d","10/14/2022, 09:20:01",-0.183518716213529,"25","Male","right",1,1,0,0,FALSE,"E_F_Dawn_Roma_French.png P_M_jeremy_corbyn.png"
1165,"P_M_Gordon_Brown.png","P_M_Sajid_Javid.png","TRUE","pictures/stimuli/P","pictures/stimuli/P","M","M","5","599973b4336b6b000159e62d","10/14/2022, 09:20:01",1.06178685809256,"25","Male","right",1,1,0,0,FALSE,"P_M_Gordon_Brown.png P_M_Sajid_Javid.png"
1208,"E_F_Julie_Walters.png","P_M_Gordon_Brown.png","FALSE","pictures/stimuli/E","pictures/stimuli/P","F","M","5","599973b4336b6b000159e62d","10/14/2022, 09:20:01",1.06178685809256,"25","Male","right",1,1,0,0,FALSE,"E_F_Julie_Walters.png P_M_Gordon_Brown.png"
11275,"E_F_Jennifer_Saunders.png","E_M_Simon_Pegg.png","TRUE","pictures/stimuli/E","pictures/stimuli/E","F","M","4","599973b4336b6b000159e62d","10/14/2022, 09:20:01",-0.183518716213529,"25","Male","right",1,1,0,0,FALSE,"E_F_Jennifer_Saunders.png E_M_Simon_Pegg.png"
1085,"P_M_Michael_Gove.png","P_M_Sajid_Javid.png","TRUE","pictures/stimuli/P","pictures/stimuli/P","M","M","5","599973b4336b6b000159e62d","10/14/2022, 09:20:01",1.06178685809256,"25","Male","right",1,1,0,0,FALSE,"P_M_Michael_Gove.png P_M_Sajid_Javid.png"
1050,"E_F_Jennifer_Saunders.png","E_M_Jimmy_Carr.png","TRUE","pictures/stimuli/E","pictures/stimuli/E","F","M","4","599973b4336b6b000159e62d","10/14/2022, 09:20:01",-0.183518716213529,"25","Male","right",1,1,0,0,FALSE,"E_F_Jennifer_Saunders.png E_M_Jimmy_Carr.png"
1122,"P_F_nicola_sturge.png","P_M_jeremy_corbyn.png","TRUE","pictures/stimuli/P","pictures/stimuli/P","F","M","4","599973b4336b6b000159e62d","10/14/2022, 09:20:01",-0.183518716213529,"25","Male","right",1,1,0,0,FALSE,"P_F_nicola_sturge.png P_M_jeremy_corbyn.png"
1470,"E_M_Peter_Kay.png","P_M_Tony_Blair.png","FALSE","pictures/stimuli/E","pictures/stimuli/P","M","M","5","599973b4336b6b000159e62d","10/14/2022, 09:20:01",1.06178685809256,"25","Male","right",1,1,0,0,FALSE,"E_M_Peter_Kay.png P_M_Tony_Blair.png"
910,"E_F_Julie_Walters.png","P_M_david_camer.png","FALSE","pictures/stimuli/E","pictures/stimuli/P","F","M","5","599973b4336b6b000159e62d","10/14/2022, 09:20:01",1.06178685809256,"25","Male","right",1,1,0,0,FALSE,"E_F_Julie_Walters.png P_M_david_camer.png"
1444,"E_F_Dawn_Roma_French.png","E_F_Julie_Walters.png","TRUE","pictures/stimuli/E","pictures/stimuli/E","F","F","4","599973b4336b6b000159e62d","10/14/2022, 09:20:01",-0.183518716213529,"25","Male","right",1,1,0,0,FALSE,"E_F_Dawn_Roma_French.png E_F_Julie_Walters.png"
1836,"E_F_Jennifer_Saunders.png","P_M_Michael_Gove.png","FALSE","pictures/stimuli/E","pictures/stimuli/P","F","M","3","599973b4336b6b000159e62d","10/14/2022, 09:20:01",-1.42882429051962,"25","Male","right",1,1,0,0,FALSE,"E_F_Jennifer_Saunders.png P_M_Michael_Gove.png"
626,"E_F_Julie_Walters.png","E_M_Ewan_McGregor.png","TRUE","pictures/stimuli/E","pictures/stimuli/E","F","M","4","599973b4336b6b000159e62d","10/14/2022, 09:20:01",-0.183518716213529,"25","Male","right",1,1,0,0,FALSE,"E_F_Julie_Walters.png E_M_Ewan_McGregor.png"
1542,"E_F_Julie_Walters.png","P_F_nicola_sturge.png","FALSE","pictures/stimuli/E","pictures/stimuli/P","F","F","3","599973b4336b6b000159e62d","10/14/2022, 09:20:01",-1.42882429051962,"25","Male","right",1,1,0,0,FALSE,"E_F_Julie_Walters.png P_F_nicola_sturge.png"
628,"E_F_Dawn_Roma_French.png","P_M_keir_starmer.png","FALSE","pictures/stimuli/E","pictures/stimuli/P","F","M","4","599973b4336b6b000159e62d","10/14/2022, 09:20:01",-0.183518716213529,"25","Male","right",1,1,0,0,FALSE,"E_F_Dawn_Roma_French.png P_M_keir_starmer.png"
953,"P_M_Gordon_Brown.png","P_M_nigel_farage.png","TRUE","pictures/stimuli/P","pictures/stimuli/P","M","M","4","599973b4336b6b000159e62d","10/14/2022, 09:20:01",-0.183518716213529,"25","Male","right",1,1,0,0,FALSE,"P_M_Gordon_Brown.png P_M_nigel_farage.png"
1064,"E_F_Julie_Walters.png","E_M_Peter_Kay.png","TRUE","pictures/stimuli/E","pictures/stimuli/E","F","M","4","599973b4336b6b000159e62d","10/14/2022, 09:20:01",-0.183518716213529,"25","Male","right",1,1,0,0,FALSE,"E_F_Julie_Walters.png E_M_Peter_Kay.png"
1004,"E_M_Michael_McIntyr.png","P_M_Tony_Blair.png","FALSE","pictures/stimuli/E","pictures/stimuli/P","M","M","3","599973b4336b6b000159e62d","10/14/2022, 09:20:01",-1.42882429051962,"25","Male","right",1,1,0,0,FALSE,"E_M_Michael_McIntyr.png P_M_Tony_Blair.png"
1552,"P_F_Theresa_May.png","P_M_jeremy_corbyn.png","TRUE","pictures/stimuli/P","pictures/stimuli/P","F","M","5","599973b4336b6b000159e62d","10/14/2022, 09:20:01",1.06178685809256,"25","Male","right",1,1,0,0,FALSE,"P_F_Theresa_May.png P_M_jeremy_corbyn.png"
1607,"E_F_Jennifer_Saunders.png","P_M_keir_starmer.png","FALSE","pictures/stimuli/E","pictures/stimuli/P","F","M","4","599973b4336b6b000159e62d","10/14/2022, 09:20:01",-0.183518716213529,"25","Male","right",1,1,0,0,FALSE,"E_F_Jennifer_Saunders.png P_M_keir_starmer.png"
1346,"P_F_nicola_sturge.png","P_M_david_camer.png","TRUE","pictures/stimuli/P","pictures/stimuli/P","F","M","4","599973b4336b6b000159e62d","10/14/2022, 09:20:01",-0.183518716213529,"25","Male","right",1,1,0,0,FALSE,"P_F_nicola_sturge.png P_M_david_camer.png"
1265,"P_M_Gordon_Brown.png","P_M_Michael_Gove.png","TRUE","pictures/stimuli/P","pictures/stimuli/P","M","M","4","599973b4336b6b000159e62d","10/14/2022, 09:20:01",-0.183518716213529,"25","Male","right",1,1,0,0,FALSE,"P_M_Gordon_Brown.png P_M_Michael_Gove.png"
1225,"E_M_Jimmy_Carr.png","P_F_Theresa_May.png","FALSE","pictures/stimuli/E","pictures/stimuli/P","M","F","5","599973b4336b6b000159e62d","10/14/2022, 09:20:01",1.06178685809256,"25","Male","right",1,1,0,0,FALSE,"E_M_Jimmy_Carr.png P_F_Theresa_May.png"
660,"E_M_Simon_Pegg.png","P_M_Sajid_Javid.png","FALSE","pictures/stimuli/E","pictures/stimuli/P","M","M","4","599973b4336b6b000159e62d","10/14/2022, 09:20:01",-0.183518716213529,"25","Male","right",1,1,0,0,FALSE,"E_M_Simon_Pegg.png P_M_Sajid_Javid.png"
1838,"E_M_Peter_Kay.png","P_M_Gordon_Brown.png","FALSE","pictures/stimuli/E","pictures/stimuli/P","M","M","4","599973b4336b6b000159e62d","10/14/2022, 09:20:01",-0.183518716213529,"25","Male","right",1,1,0,0,FALSE,"E_M_Peter_Kay.png P_M_Gordon_Brown.png"
1202,"E_M_Simon_Pegg.png","P_F_Theresa_May.png","FALSE","pictures/stimuli/E","pictures/stimuli/P","M","F","5","599973b4336b6b000159e62d","10/14/2022, 09:20:01",1.06178685809256,"25","Male","right",1,1,0,0,FALSE,"E_M_Simon_Pegg.png P_F_Theresa_May.png"
931,"E_F_Julie_Walters.png","P_M_Sajid_Javid.png","FALSE","pictures/stimuli/E","pictures/stimuli/P","F","M","5","599973b4336b6b000159e62d","10/14/2022, 09:20:01",1.06178685809256,"25","Male","right",1,1,0,0,FALSE,"E_F_Julie_Walters.png P_M_Sajid_Javid.png"
1790,"E_M_Ewan_McGregor.png","E_M_Russell_Howard.png","TRUE","pictures/stimuli/E","pictures/stimuli/E","M","M","3","599973b4336b6b000159e62d","10/14/2022, 09:20:01",-1.42882429051962,"25","Male","right",1,1,0,0,FALSE,"E_M_Ewan_McGregor.png E_M_Russell_Howard.png"
712,"E_M_Michael_McIntyr.png","P_M_jeremy_corbyn.png","FALSE","pictures/stimuli/E","pictures/stimuli/P","M","M","4","599973b4336b6b000159e62d","10/14/2022, 09:20:01",-0.183518716213529,"25","Male","right",1,1,0,0,FALSE,"E_M_Michael_McIntyr.png P_M_jeremy_corbyn.png"
1002,"E_M_Michael_McIntyr.png","P_M_keir_starmer.png","FALSE","pictures/stimuli/E","pictures/stimuli/P","M","M","4","599973b4336b6b000159e62d","10/14/2022, 09:20:01",-0.183518716213529,"25","Male","right",1,1,0,0,FALSE,"E_M_Michael_McIntyr.png P_M_keir_starmer.png"
1194,"E_M_Jimmy_Carr.png","P_F_nicola_sturge.png","FALSE","pictures/stimuli/E","pictures/stimuli/P","M","F","5","599973b4336b6b000159e62d","10/14/2022, 09:20:01",1.06178685809256,"25","Male","right",1,1,0,0,FALSE,"E_M_Jimmy_Carr.png P_F_nicola_sturge.png"
872,"E_F_Dawn_Roma_French.png","E_M_Ewan_McGregor.png","TRUE","pictures/stimuli/E","pictures/stimuli/E","F","M","4","599973b4336b6b000159e62d","10/14/2022, 09:20:01",-0.183518716213529,"25","Male","right",1,1,0,0,FALSE,"E_F_Dawn_Roma_French.png E_M_Ewan_McGregor.png"
1269,"E_F_Dawn_Roma_French.png","E_F_Sarah_Millican.png","TRUE","pictures/stimuli/E","pictures/stimuli/E","F","F","4","599973b4336b6b000159e62d","10/14/2022, 09:20:01",-0.183518716213529,"25","Male","right",1,1,0,0,FALSE,"E_F_Dawn_Roma_French.png E_F_Sarah_Millican.png"
1040,"E_M_Peter_Kay.png","P_M_Michael_Gove.png","FALSE","pictures/stimuli/E","pictures/stimuli/P","M","M","5","599973b4336b6b000159e62d","10/14/2022, 09:20:01",1.06178685809256,"25","Male","right",1,1,0,0,FALSE,"E_M_Peter_Kay.png P_M_Michael_Gove.png"
1489,"E_F_Jennifer_Saunders.png","E_M_Russell_Howard.png","TRUE","pictures/stimuli/E","pictures/stimuli/E","F","M","4","599973b4336b6b000159e62d","10/14/2022, 09:20:01",-0.183518716213529,"25","Male","right",1,1,0,0,FALSE,"E_F_Jennifer_Saunders.png E_M_Russell_Howard.png"
1455,"E_F_Dawn_Roma_French.png","P_M_nigel_farage.png","FALSE","pictures/stimuli/E","pictures/stimuli/P","F","M","5","599973b4336b6b000159e62d","10/14/2022, 09:20:01",1.06178685809256,"25","Male","right",1,1,0,0,FALSE,"E_F_Dawn_Roma_French.png P_M_nigel_farage.png"
1820,"E_M_Ewan_McGregor.png","P_M_david_camer.png","FALSE","pictures/stimuli/E","pictures/stimuli/P","M","M","3","599973b4336b6b000159e62d","10/14/2022, 09:20:01",-1.42882429051962,"25","Male","right",1,1,0,0,FALSE,"E_M_Ewan_McGregor.png P_M_david_camer.png"
2262,"P_M_keir_starmer.png","P_M_Sajid_Javid.png","TRUE","pictures/stimuli/P","pictures/stimuli/P","M","M","5","599973b4336b6b000159e62d","10/14/2022, 09:20:01",1.06178685809256,"25","Male","right",1,1,0,0,FALSE,"P_M_keir_starmer.png P_M_Sajid_Javid.png"
1038,"E_F_Jennifer_Saunders.png","P_M_nigel_farage.png","FALSE","pictures/stimuli/E","pictures/stimuli/P","F","M","4","599973b4336b6b000159e62d","10/14/2022, 09:20:01",-0.183518716213529,"25","Male","right",1,1,0,0,FALSE,"E_F_Jennifer_Saunders.png P_M_nigel_farage.png"
1252,"E_F_Dawn_Roma_French.png","E_M_Michael_McIntyr.png","TRUE","pictures/stimuli/E","pictures/stimuli/E","F","M","3","599973b4336b6b000159e62d","10/14/2022, 09:20:01",-1.42882429051962,"25","Male","right",1,1,0,0,FALSE,"E_F_Dawn_Roma_French.png E_M_Michael_McIntyr.png"
851,"E_M_Jimmy_Carr.png","P_M_nigel_farage.png","FALSE","pictures/stimuli/E","pictures/stimuli/P","M","M","4","599973b4336b6b000159e62d","10/14/2022, 09:20:01",-0.183518716213529,"25","Male","right",1,1,0,0,FALSE,"E_M_Jimmy_Carr.png P_M_nigel_farage.png"
1748,"P_F_nicola_sturge.png","P_M_Michael_Gove.png","TRUE","pictures/stimuli/P","pictures/stimuli/P","F","M","4","599973b4336b6b000159e62d","10/14/2022, 09:20:01",-0.183518716213529,"25","Male","right",1,1,0,0,FALSE,"P_F_nicola_sturge.png P_M_Michael_Gove.png"
1451,"P_M_jeremy_corbyn.png","P_M_Michael_Gove.png","TRUE","pictures/stimuli/P","pictures/stimuli/P","M","M","5","599973b4336b6b000159e62d","10/14/2022, 09:20:01",1.06178685809256,"25","Male","right",1,1,0,0,FALSE,"P_M_jeremy_corbyn.png P_M_Michael_Gove.png"
1045,"E_M_Jimmy_Carr.png","P_M_Gordon_Brown.png","FALSE","pictures/stimuli/E","pictures/stimuli/P","M","M","4","599973b4336b6b000159e62d","10/14/2022, 09:20:01",-0.183518716213529,"25","Male","right",1,1,0,0,FALSE,"E_M_Jimmy_Carr.png P_M_Gordon_Brown.png"
2309,"P_M_Gordon_Brown.png","P_M_keir_starmer.png","TRUE","pictures/stimuli/P","pictures/stimuli/P","M","M","2","599973b4336b6b000159e62d","10/14/2022, 09:20:01",-2.67412986482571,"25","Male","right",1,1,0,0,FALSE,"P_M_Gordon_Brown.png P_M_keir_starmer.png"
2283,"E_F_Dawn_Roma_French.png","E_F_Jennifer_Saunders.png","TRUE","pictures/stimuli/E","pictures/stimuli/E","F","F","3","599973b4336b6b000159e62d","10/14/2022, 09:20:01",-1.42882429051962,"25","Male","right",1,1,0,0,FALSE,"E_F_Dawn_Roma_French.png E_F_Jennifer_Saunders.png"
1081,"E_F_Jennifer_Saunders.png","P_M_jeremy_corbyn.png","FALSE","pictures/stimuli/E","pictures/stimuli/P","F","M","4","599973b4336b6b000159e62d","10/14/2022, 09:20:01",-0.183518716213529,"25","Male","right",1,1,0,0,FALSE,"E_F_Jennifer_Saunders.png P_M_jeremy_corbyn.png"
2438,"E_F_Sarah_Millican.png","P_M_keir_starmer.png","FALSE","pictures/stimuli/E","pictures/stimuli/P","F","M","4","599973b4336b6b000159e62d","10/14/2022, 09:20:01",-0.183518716213529,"25","Male","right",1,1,0,0,FALSE,"E_F_Sarah_Millican.png P_M_keir_starmer.png"
1982,"E_F_Sarah_Millican.png","P_F_nicola_sturge.png","FALSE","pictures/stimuli/E","pictures/stimuli/P","F","F","4","599973b4336b6b000159e62d","10/14/2022, 09:20:01",-0.183518716213529,"25","Male","right",1,1,0,0,FALSE,"E_F_Sarah_Millican.png P_F_nicola_sturge.png"
1315,"E_F_Jennifer_Saunders.png","E_F_Sarah_Millican.png","TRUE","pictures/stimuli/E","pictures/stimuli/E","F","F","4","599973b4336b6b000159e62d","10/14/2022, 09:20:01",-0.183518716213529,"25","Male","right",1,1,0,0,FALSE,"E_F_Jennifer_Saunders.png E_F_Sarah_Millican.png"
1433,"E_M_Russell_Howard.png","P_F_nicola_sturge.png","FALSE","pictures/stimuli/E","pictures/stimuli/P","M","F","4","599973b4336b6b000159e62d","10/14/2022, 09:20:01",-0.183518716213529,"25","Male","right",1,1,0,0,FALSE,"E_M_Russell_Howard.png P_F_nicola_sturge.png"
1293,"E_F_Jennifer_Saunders.png","P_F_Theresa_May.png","FALSE","pictures/stimuli/E","pictures/stimuli/P","F","F","4","599973b4336b6b000159e62d","10/14/2022, 09:20:01",-0.183518716213529,"25","Male","right",1,1,0,0,FALSE,"E_F_Jennifer_Saunders.png P_F_Theresa_May.png"
1176,"E_F_Julie_Walters.png","E_F_Sarah_Millican.png","TRUE","pictures/stimuli/E","pictures/stimuli/E","F","F","4","599973b4336b6b000159e62d","10/14/2022, 09:20:01",-0.183518716213529,"25","Male","right",1,1,0,0,FALSE,"E_F_Julie_Walters.png E_F_Sarah_Millican.png"
920,"E_F_Sarah_Millican.png","P_M_jeremy_corbyn.png","FALSE","pictures/stimuli/E","pictures/stimuli/P","F","M","5","599973b4336b6b000159e62d","10/14/2022, 09:20:01",1.06178685809256,"25","Male","right",1,1,0,0,FALSE,"E_F_Sarah_Millican.png P_M_jeremy_corbyn.png"
1921,"P_M_david_camer.png","P_M_Michael_Gove.png","TRUE","pictures/stimuli/P","pictures/stimuli/P","M","M","3","599973b4336b6b000159e62d","10/14/2022, 09:20:01",-1.42882429051962,"25","Male","right",1,1,0,0,FALSE,"P_M_david_camer.png P_M_Michael_Gove.png"
1024,"E_M_Peter_Kay.png","P_M_jeremy_corbyn.png","FALSE","pictures/stimuli/E","pictures/stimuli/P","M","M","4","599973b4336b6b000159e62d","10/14/2022, 09:20:01",-0.183518716213529,"25","Male","right",1,1,0,0,FALSE,"E_M_Peter_Kay.png P_M_jeremy_corbyn.png"
984,"E_F_Dawn_Roma_French.png","P_M_Gordon_Brown.png","FALSE","pictures/stimuli/E","pictures/stimuli/P","F","M","5","599973b4336b6b000159e62d","10/14/2022, 09:20:01",1.06178685809256,"25","Male","right",1,1,0,0,FALSE,"E_F_Dawn_Roma_French.png P_M_Gordon_Brown.png"
521,"E_M_Michael_McIntyr.png","P_M_Sajid_Javid.png","FALSE","pictures/stimuli/E","pictures/stimuli/P","M","M","4","599973b4336b6b000159e62d","10/14/2022, 09:20:01",-0.183518716213529,"25","Male","right",1,1,0,0,FALSE,"E_M_Michael_McIntyr.png P_M_Sajid_Javid.png"
952,"E_M_Simon_Pegg.png","P_F_nicola_sturge.png","FALSE","pictures/stimuli/E","pictures/stimuli/P","M","F","5","599973b4336b6b000159e62d","10/14/2022, 09:20:01",1.06178685809256,"25","Male","right",1,1,0,0,FALSE,"E_M_Simon_Pegg.png P_F_nicola_sturge.png"
2539,"P_F_nicola_sturge.png","P_M_keir_starmer.png","TRUE","pictures/stimuli/P","pictures/stimuli/P","F","M","3","599973b4336b6b000159e62d","10/14/2022, 09:20:01",-1.42882429051962,"25","Male","right",1,1,0,0,FALSE,"P_F_nicola_sturge.png P_M_keir_starmer.png"
1123,"E_M_Russell_Howard.png","P_F_Theresa_May.png","FALSE","pictures/stimuli/E","pictures/stimuli/P","M","F","4","599973b4336b6b000159e62d","10/14/2022, 09:20:01",-0.183518716213529,"25","Male","right",1,1,0,0,FALSE,"E_M_Russell_Howard.png P_F_Theresa_May.png"
636,"E_F_Julie_Walters.png","P_F_Theresa_May.png","FALSE","pictures/stimuli/E","pictures/stimuli/P","F","F","5","599973b4336b6b000159e62d","10/14/2022, 09:20:01",1.06178685809256,"25","Male","right",1,1,0,0,FALSE,"E_F_Julie_Walters.png P_F_Theresa_May.png"
1679,"P_F_Theresa_May.png","P_M_Michael_Gove.png","TRUE","pictures/stimuli/P","pictures/stimuli/P","F","M","5","599973b4336b6b000159e62d","10/14/2022, 09:20:01",1.06178685809256,"25","Male","right",1,1,0,0,FALSE,"P_F_Theresa_May.png P_M_Michael_Gove.png"
697,"E_M_Simon_Pegg.png","P_M_nigel_farage.png","FALSE","pictures/stimuli/E","pictures/stimuli/P","M","M","4","599973b4336b6b000159e62d","10/14/2022, 09:20:01",-0.183518716213529,"25","Male","right",1,1,0,0,FALSE,"E_M_Simon_Pegg.png P_M_nigel_farage.png"
1751,"E_M_Peter_Kay.png","P_M_david_camer.png","FALSE","pictures/stimuli/E","pictures/stimuli/P","M","M","5","599973b4336b6b000159e62d","10/14/2022, 09:20:01",1.06178685809256,"25","Male","right",1,1,0,0,FALSE,"E_M_Peter_Kay.png P_M_david_camer.png"
589,"E_M_Ewan_McGregor.png","P_M_Sajid_Javid.png","FALSE","pictures/stimuli/E","pictures/stimuli/P","M","M","4","599973b4336b6b000159e62d","10/14/2022, 09:20:01",-0.183518716213529,"25","Male","right",1,1,0,0,FALSE,"E_M_Ewan_McGregor.png P_M_Sajid_Javid.png"
1720,"E_F_Dawn_Roma_French.png","P_M_david_camer.png","FALSE","pictures/stimuli/E","pictures/stimuli/P","F","M","5","599973b4336b6b000159e62d","10/14/2022, 09:20:01",1.06178685809256,"25","Male","right",1,1,0,0,FALSE,"E_F_Dawn_Roma_French.png P_M_david_camer.png"
4030,"E_F_Julie_Walters.png","E_F_Sarah_Millican.png","TRUE","pictures/stimuli/E","pictures/stimuli/E","F","F","5","59b7de7811212f0001cd0f55","10/14/2022, 09:13:59",0.798567602331818,"32","Male","right",1,1,0,0,FALSE,"E_F_Julie_Walters.png E_F_Sarah_Millican.png"
3806,"P_M_nigel_farage.png","P_M_Tony_Blair.png","TRUE","pictures/stimuli/P","pictures/stimuli/P","M","M","4","59b7de7811212f0001cd0f55","10/14/2022, 09:13:59",0.115108843579361,"32","Male","right",1,1,0,0,FALSE,"P_M_nigel_farage.png P_M_Tony_Blair.png"
3501,"E_F_Julie_Walters.png","P_M_nigel_farage.png","FALSE","pictures/stimuli/E","pictures/stimuli/P","F","M","6","59b7de7811212f0001cd0f55","10/14/2022, 09:13:59",1.48202636108427,"32","Male","right",1,1,0,0,FALSE,"E_F_Julie_Walters.png P_M_nigel_farage.png"
