"RT","img_1","img_2","isSameProffesion","img1proffesion","img2proffesion","img1Gender","img2Gender","keyPressed","participant","time","normlised_keyPress","age","gender","handedness","isFamiliar_img1","isFamiliar_img2","vividness_img1","vividness_img2","reject_trial","pair"
7352,"E_F_Julie_Walters.png","E_F_Sarah_Millican.png","TRUE","pictures/stimuli/E","pictures/stimuli/E","F","F","6","5b755869d5d7a80001b45a1e","10/27/2022, 12:50:25",0.395403222031597,"25","Female","left",0,0,0,0,TRUE,"E_F_Julie_Walters.png E_F_Sarah_Millican.png"
2828,"E_F_Jennifer_Saunders.png","P_M_Michael_Gove.png","FALSE","pictures/stimuli/E","pictures/stimuli/P","F","M","6","5b755869d5d7a80001b45a1e","10/27/2022, 12:50:25",0.395403222031597,"25","Female","left",0,0,0,0,TRUE,"E_F_Jennifer_Saunders.png P_M_Michael_Gove.png"
5620,"P_M_Gordon_Brown.png","P_M_Tony_Blair.png","TRUE","pictures/stimuli/P","pictures/stimuli/P","M","M","5","5b755869d5d7a80001b45a1e","10/27/2022, 12:50:25",-1.48276208261849,"25","Female","left",0,0,0,0,TRUE,"P_M_Gordon_Brown.png P_M_Tony_Blair.png"
3578,"P_M_Gordon_Brown.png","P_M_Sajid_Javid.png","TRUE","pictures/stimuli/P","pictures/stimuli/P","M","M","6","5b755869d5d7a80001b45a1e","10/27/2022, 12:50:25",0.395403222031597,"25","Female","left",0,0,0,0,TRUE,"P_M_Gordon_Brown.png P_M_Sajid_Javid.png"
2759,"P_F_Theresa_May.png","P_M_Michael_Gove.png","TRUE","pictures/stimuli/P","pictures/stimuli/P","F","M","6","5b755869d5d7a80001b45a1e","10/27/2022, 12:50:25",0.395403222031597,"25","Female","left",1,0,0,0,TRUE,"P_F_Theresa_May.png P_M_Michael_Gove.png"
4406,"P_M_david_camer.png","P_M_jeremy_corbyn.png","TRUE","pictures/stimuli/P","pictures/stimuli/P","M","M","5","5b755869d5d7a80001b45a1e","10/27/2022, 12:50:25",-1.48276208261849,"25","Female","left",1,1,0,0,TRUE,"P_M_david_camer.png P_M_jeremy_corbyn.png"
3064,"P_M_david_camer.png","P_M_Michael_Gove.png","TRUE","pictures/stimuli/P","pictures/stimuli/P","M","M","6","5b755869d5d7a80001b45a1e","10/27/2022, 12:50:25",0.395403222031597,"25","Female","left",1,0,0,0,TRUE,"P_M_david_camer.png P_M_Michael_Gove.png"
2923,"E_M_Jimmy_Carr.png","P_M_Michael_Gove.png","FALSE","pictures/stimuli/E","pictures/stimuli/P","M","M","6","5b755869d5d7a80001b45a1e","10/27/2022, 12:50:25",0.395403222031597,"25","Female","left",0,0,0,0,TRUE,"E_M_Jimmy_Carr.png P_M_Michael_Gove.png"
4671,"E_M_Simon_Pegg.png","P_M_Michael_Gove.png","FALSE","pictures/stimuli/E","pictures/stimuli/P","M","M","6","5b755869d5d7a80001b45a1e","10/27/2022, 12:50:25",0.395403222031597,"25","Female","left",0,0,0,0,TRUE,"E_M_Simon_Pegg.png P_M_Michael_Gove.png"
2843,"P_M_Gordon_Brown.png","P_M_Michael_Gove.png","TRUE","pictures/stimuli/P","pictures/stimuli/P","M","M","6","5b755869d5d7a80001b45a1e","10/27/2022, 12:50:25",0.395403222031597,"25","Female","left",0,0,0,0,TRUE,"P_M_Gordon_Brown.png P_M_Michael_Gove.png"
3847,"E_M_Peter_Kay.png","P_M_nigel_farage.png","FALSE","pictures/stimuli/E","pictures/stimuli/P","M","M","6","5b755869d5d7a80001b45a1e","10/27/2022, 12:50:25",0.395403222031597,"25","Female","left",0,0,0,0,TRUE,"E_M_Peter_Kay.png P_M_nigel_farage.png"
5266,"E_M_Michael_McIntyr.png","P_M_Gordon_Brown.png","FALSE","pictures/stimuli/E","pictures/stimuli/P","M","M","4","5b755869d5d7a80001b45a1e","10/27/2022, 12:50:25",-3.36092738726858,"25","Female","left",0,0,0,0,TRUE,"E_M_Michael_McIntyr.png P_M_Gordon_Brown.png"
3051,"E_F_Sarah_Millican.png","P_F_Theresa_May.png","FALSE","pictures/stimuli/E","pictures/stimuli/P","F","F","6","5b755869d5d7a80001b45a1e","10/27/2022, 12:50:25",0.395403222031597,"25","Female","left",0,1,0,0,TRUE,"E_F_Sarah_Millican.png P_F_Theresa_May.png"
3452,"P_F_nicola_sturge.png","P_M_Sajid_Javid.png","TRUE","pictures/stimuli/P","pictures/stimuli/P","F","M","6","5b755869d5d7a80001b45a1e","10/27/2022, 12:50:25",0.395403222031597,"25","Female","left",1,0,0,0,TRUE,"P_F_nicola_sturge.png P_M_Sajid_Javid.png"
3642,"P_M_keir_starmer.png","P_M_Sajid_Javid.png","TRUE","pictures/stimuli/P","pictures/stimuli/P","M","M","6","5b755869d5d7a80001b45a1e","10/27/2022, 12:50:25",0.395403222031597,"25","Female","left",0,0,0,0,TRUE,"P_M_keir_starmer.png P_M_Sajid_Javid.png"
3480,"E_F_Jennifer_Saunders.png","P_M_keir_starmer.png","FALSE","pictures/stimuli/E","pictures/stimuli/P","F","M","6","5b755869d5d7a80001b45a1e","10/27/2022, 12:50:25",0.395403222031597,"25","Female","left",0,0,0,0,TRUE,"E_F_Jennifer_Saunders.png P_M_keir_starmer.png"
2909,"E_F_Jennifer_Saunders.png","E_M_Peter_Kay.png","TRUE","pictures/stimuli/E","pictures/stimuli/E","F","M","6","5b755869d5d7a80001b45a1e","10/27/2022, 12:50:25",0.395403222031597,"25","Female","left",0,0,0,0,TRUE,"E_F_Jennifer_Saunders.png E_M_Peter_Kay.png"
2798,"E_M_Jimmy_Carr.png","P_M_jeremy_corbyn.png","FALSE","pictures/stimuli/E","pictures/stimuli/P","M","M","6","5b755869d5d7a80001b45a1e","10/27/2022, 12:50:25",0.395403222031597,"25","Female","left",0,1,0,0,TRUE,"E_M_Jimmy_Carr.png P_M_jeremy_corbyn.png"
2483,"E_F_Dawn_Roma_French.png","P_M_nigel_farage.png","FALSE","pictures/stimuli/E","pictures/stimuli/P","F","M","6","5b755869d5d7a80001b45a1e","10/27/2022, 12:50:25",0.395403222031597,"25","Female","left",0,0,0,0,TRUE,"E_F_Dawn_Roma_French.png P_M_nigel_farage.png"
2783,"P_F_nicola_sturge.png","P_M_keir_starmer.png","TRUE","pictures/stimuli/P","pictures/stimuli/P","F","M","6","5b755869d5d7a80001b45a1e","10/27/2022, 12:50:25",0.395403222031597,"25","Female","left",1,0,0,0,TRUE,"P_F_nicola_sturge.png P_M_keir_starmer.png"
2513,"E_F_Sarah_Millican.png","P_M_keir_starmer.png","FALSE","pictures/stimuli/E","pictures/stimuli/P","F","M","6","5b755869d5d7a80001b45a1e","10/27/2022, 12:50:25",0.395403222031597,"25","Female","left",0,0,0,0,TRUE,"E_F_Sarah_Millican.png P_M_keir_starmer.png"
2842,"P_M_david_camer.png","P_M_Tony_Blair.png","TRUE","pictures/stimuli/P","pictures/stimuli/P","M","M","6","5b755869d5d7a80001b45a1e","10/27/2022, 12:50:25",0.395403222031597,"25","Female","left",1,0,0,0,TRUE,"P_M_david_camer.png P_M_Tony_Blair.png"
3016,"E_M_Michael_McIntyr.png","P_F_Theresa_May.png","FALSE","pictures/stimuli/E","pictures/stimuli/P","M","F","6","5b755869d5d7a80001b45a1e","10/27/2022, 12:50:25",0.395403222031597,"25","Female","left",0,1,0,0,TRUE,"E_M_Michael_McIntyr.png P_F_Theresa_May.png"
2331,"E_F_Sarah_Millican.png","P_M_Michael_Gove.png","FALSE","pictures/stimuli/E","pictures/stimuli/P","F","M","6","5b755869d5d7a80001b45a1e","10/27/2022, 12:50:25",0.395403222031597,"25","Female","left",0,0,0,0,TRUE,"E_F_Sarah_Millican.png P_M_Michael_Gove.png"
2250,"E_F_Sarah_Millican.png","E_M_Simon_Pegg.png","TRUE","pictures/stimuli/E","pictures/stimuli/E","F","M","6","5b755869d5d7a80001b45a1e","10/27/2022, 12:50:25",0.395403222031597,"25","Female","left",0,0,0,0,TRUE,"E_F_Sarah_Millican.png E_M_Simon_Pegg.png"
5999,"E_M_Russell_Howard.png","P_M_Tony_Blair.png","FALSE","pictures/stimuli/E","pictures/stimuli/P","M","M","4","5b755869d5d7a80001b45a1e","10/27/2022, 12:50:25",-3.36092738726858,"25","Female","left",0,0,0,0,TRUE,"E_M_Russell_Howard.png P_M_Tony_Blair.png"
3110,"E_F_Julie_Walters.png","P_F_nicola_sturge.png","FALSE","pictures/stimuli/E","pictures/stimuli/P","F","F","6","5b755869d5d7a80001b45a1e","10/27/2022, 12:50:25",0.395403222031597,"25","Female","left",0,1,0,0,TRUE,"E_F_Julie_Walters.png P_F_nicola_sturge.png"
2657,"E_M_Peter_Kay.png","P_M_Michael_Gove.png","FALSE","pictures/stimuli/E","pictures/stimuli/P","M","M","6","5b755869d5d7a80001b45a1e","10/27/2022, 12:50:25",0.395403222031597,"25","Female","left",0,0,0,0,TRUE,"E_M_Peter_Kay.png P_M_Michael_Gove.png"
2550,"E_M_Peter_Kay.png","P_F_Theresa_May.png","FALSE","pictures/stimuli/E","pictures/stimuli/P","M","F","6","5b755869d5d7a80001b45a1e","10/27/2022, 12:50:25",0.395403222031597,"25","Female","left",0,1,0,0,TRUE,"E_M_Peter_Kay.png P_F_Theresa_May.png"
3621,"E_M_Ewan_McGregor.png","P_F_Theresa_May.png","FALSE","pictures/stimuli/E","pictures/stimuli/P","M","F","6","5b755869d5d7a80001b45a1e","10/27/2022, 12:50:25",0.395403222031597,"25","Female","left",0,1,0,0,TRUE,"E_M_Ewan_McGregor.png P_F_Theresa_May.png"
2547,"E_M_Michael_McIntyr.png","E_M_Simon_Pegg.png","TRUE","pictures/stimuli/E","pictures/stimuli/E","M","M","6","5b755869d5d7a80001b45a1e","10/27/2022, 12:50:25",0.395403222031597,"25","Female","left",0,0,0,0,TRUE,"E_M_Michael_McIntyr.png E_M_Simon_Pegg.png"
2751,"E_F_Julie_Walters.png","E_M_Michael_McIntyr.png","TRUE","pictures/stimuli/E","pictures/stimuli/E","F","M","6","5b755869d5d7a80001b45a1e","10/27/2022, 12:50:25",0.395403222031597,"25","Female","left",0,0,0,0,TRUE,"E_F_Julie_Walters.png E_M_Michael_McIntyr.png"
2485,"E_M_Ewan_McGregor.png","P_F_nicola_sturge.png","FALSE","pictures/stimuli/E","pictures/stimuli/P","M","F","6","5b755869d5d7a80001b45a1e","10/27/2022, 12:50:25",0.395403222031597,"25","Female","left",0,1,0,0,TRUE,"E_M_Ewan_McGregor.png P_F_nicola_sturge.png"
2500,"P_F_nicola_sturge.png","P_M_Michael_Gove.png","TRUE","pictures/stimuli/P","pictures/stimuli/P","F","M","6","5b755869d5d7a80001b45a1e","10/27/2022, 12:50:25",0.395403222031597,"25","Female","left",1,0,0,0,TRUE,"P_F_nicola_sturge.png P_M_Michael_Gove.png"
3525,"E_M_Peter_Kay.png","P_M_keir_starmer.png","FALSE","pictures/stimuli/E","pictures/stimuli/P","M","M","5","5b755869d5d7a80001b45a1e","10/27/2022, 12:50:25",-1.48276208261849,"25","Female","left",0,0,0,0,TRUE,"E_M_Peter_Kay.png P_M_keir_starmer.png"
3657,"E_F_Dawn_Roma_French.png","P_M_Tony_Blair.png","FALSE","pictures/stimuli/E","pictures/stimuli/P","F","M","6","5b755869d5d7a80001b45a1e","10/27/2022, 12:50:25",0.395403222031597,"25","Female","left",0,0,0,0,TRUE,"E_F_Dawn_Roma_French.png P_M_Tony_Blair.png"
2250,"E_F_Dawn_Roma_French.png","P_M_Michael_Gove.png","FALSE","pictures/stimuli/E","pictures/stimuli/P","F","M","6","5b755869d5d7a80001b45a1e","10/27/2022, 12:50:25",0.395403222031597,"25","Female","left",0,0,0,0,TRUE,"E_F_Dawn_Roma_French.png P_M_Michael_Gove.png"
3126,"E_F_Jennifer_Saunders.png","E_F_Sarah_Millican.png","TRUE","pictures/stimuli/E","pictures/stimuli/E","F","F","6","5b755869d5d7a80001b45a1e","10/27/2022, 12:50:25",0.395403222031597,"25","Female","left",0,0,0,0,TRUE,"E_F_Jennifer_Saunders.png E_F_Sarah_Millican.png"
2519,"E_F_Julie_Walters.png","E_M_Simon_Pegg.png","TRUE","pictures/stimuli/E","pictures/stimuli/E","F","M","6","5b755869d5d7a80001b45a1e","10/27/2022, 12:50:25",0.395403222031597,"25","Female","left",0,0,0,0,TRUE,"E_F_Julie_Walters.png E_M_Simon_Pegg.png"
2784,"P_M_Gordon_Brown.png","P_M_jeremy_corbyn.png","TRUE","pictures/stimuli/P","pictures/stimuli/P","M","M","6","5b755869d5d7a80001b45a1e","10/27/2022, 12:50:25",0.395403222031597,"25","Female","left",0,1,0,0,TRUE,"P_M_Gordon_Brown.png P_M_jeremy_corbyn.png"
2674,"E_F_Dawn_Roma_French.png","E_M_Simon_Pegg.png","TRUE","pictures/stimuli/E","pictures/stimuli/E","F","M","6","5b755869d5d7a80001b45a1e","10/27/2022, 12:50:25",0.395403222031597,"25","Female","left",0,0,0,0,TRUE,"E_F_Dawn_Roma_French.png E_M_Simon_Pegg.png"
2511,"E_M_Simon_Pegg.png","P_F_nicola_sturge.png","FALSE","pictures/stimuli/E","pictures/stimuli/P","M","F","6","5b755869d5d7a80001b45a1e","10/27/2022, 12:50:25",0.395403222031597,"25","Female","left",0,1,0,0,TRUE,"E_M_Simon_Pegg.png P_F_nicola_sturge.png"
2626,"E_F_Sarah_Millican.png","E_M_Ewan_McGregor.png","TRUE","pictures/stimuli/E","pictures/stimuli/E","F","M","6","5b755869d5d7a80001b45a1e","10/27/2022, 12:50:25",0.395403222031597,"25","Female","left",0,0,0,0,TRUE,"E_F_Sarah_Millican.png E_M_Ewan_McGregor.png"
3349,"E_M_Russell_Howard.png","P_M_keir_starmer.png","FALSE","pictures/stimuli/E","pictures/stimuli/P","M","M","6","5b755869d5d7a80001b45a1e","10/27/2022, 12:50:25",0.395403222031597,"25","Female","left",0,0,0,0,TRUE,"E_M_Russell_Howard.png P_M_keir_starmer.png"
2645,"P_M_jeremy_corbyn.png","P_M_keir_starmer.png","TRUE","pictures/stimuli/P","pictures/stimuli/P","M","M","6","5b755869d5d7a80001b45a1e","10/27/2022, 12:50:25",0.395403222031597,"25","Female","left",1,0,0,0,TRUE,"P_M_jeremy_corbyn.png P_M_keir_starmer.png"
2455,"E_M_Simon_Pegg.png","P_M_nigel_farage.png","FALSE","pictures/stimuli/E","pictures/stimuli/P","M","M","6","5b755869d5d7a80001b45a1e","10/27/2022, 12:50:25",0.395403222031597,"25","Female","left",0,0,0,0,TRUE,"E_M_Simon_Pegg.png P_M_nigel_farage.png"
4470,"E_F_Julie_Walters.png","P_M_david_camer.png","FALSE","pictures/stimuli/E","pictures/stimuli/P","F","M","6","5b755869d5d7a80001b45a1e","10/27/2022, 12:50:25",0.395403222031597,"25","Female","left",0,1,0,0,TRUE,"E_F_Julie_Walters.png P_M_david_camer.png"
3813,"E_F_Julie_Walters.png","P_F_Theresa_May.png","FALSE","pictures/stimuli/E","pictures/stimuli/P","F","F","5","5b755869d5d7a80001b45a1e","10/27/2022, 12:50:25",-1.48276208261849,"25","Female","left",0,1,0,0,TRUE,"E_F_Julie_Walters.png P_F_Theresa_May.png"
3297,"E_F_Sarah_Millican.png","P_M_Gordon_Brown.png","FALSE","pictures/stimuli/E","pictures/stimuli/P","F","M","5","5b755869d5d7a80001b45a1e","10/27/2022, 12:50:25",-1.48276208261849,"25","Female","left",0,0,0,0,TRUE,"E_F_Sarah_Millican.png P_M_Gordon_Brown.png"
5297,"E_M_Jimmy_Carr.png","P_M_Tony_Blair.png","FALSE","pictures/stimuli/E","pictures/stimuli/P","M","M","5","5b755869d5d7a80001b45a1e","10/27/2022, 12:50:25",-1.48276208261849,"25","Female","left",0,0,0,0,TRUE,"E_M_Jimmy_Carr.png P_M_Tony_Blair.png"
2642,"P_F_Theresa_May.png","P_M_david_camer.png","TRUE","pictures/stimuli/P","pictures/stimuli/P","F","M","6","5b755869d5d7a80001b45a1e","10/27/2022, 12:50:25",0.395403222031597,"25","Female","left",1,1,0,0,TRUE,"P_F_Theresa_May.png P_M_david_camer.png"
4729,"E_M_Simon_Pegg.png","P_F_Theresa_May.png","FALSE","pictures/stimuli/E","pictures/stimuli/P","M","F","5","5b755869d5d7a80001b45a1e","10/27/2022, 12:50:25",-1.48276208261849,"25","Female","left",0,1,0,0,TRUE,"E_M_Simon_Pegg.png P_F_Theresa_May.png"
2431,"E_M_Ewan_McGregor.png","P_M_Michael_Gove.png","FALSE","pictures/stimuli/E","pictures/stimuli/P","M","M","6","5b755869d5d7a80001b45a1e","10/27/2022, 12:50:25",0.395403222031597,"25","Female","left",0,0,0,0,TRUE,"E_M_Ewan_McGregor.png P_M_Michael_Gove.png"
2830,"P_F_Theresa_May.png","P_M_Sajid_Javid.png","TRUE","pictures/stimuli/P","pictures/stimuli/P","F","M","6","5b755869d5d7a80001b45a1e","10/27/2022, 12:50:25",0.395403222031597,"25","Female","left",1,0,0,0,TRUE,"P_F_Theresa_May.png P_M_Sajid_Javid.png"
2642,"E_F_Dawn_Roma_French.png","E_F_Julie_Walters.png","TRUE","pictures/stimuli/E","pictures/stimuli/E","F","F","6","5b755869d5d7a80001b45a1e","10/27/2022, 12:50:25",0.395403222031597,"25","Female","left",0,0,0,0,TRUE,"E_F_Dawn_Roma_French.png E_F_Julie_Walters.png"
3227,"E_M_Russell_Howard.png","P_M_Michael_Gove.png","FALSE","pictures/stimuli/E","pictures/stimuli/P","M","M","6","5b755869d5d7a80001b45a1e","10/27/2022, 12:50:25",0.395403222031597,"25","Female","left",0,0,0,0,TRUE,"E_M_Russell_Howard.png P_M_Michael_Gove.png"
3204,"P_M_keir_starmer.png","P_M_Tony_Blair.png","TRUE","pictures/stimuli/P","pictures/stimuli/P","M","M","6","5b755869d5d7a80001b45a1e","10/27/2022, 12:50:25",0.395403222031597,"25","Female","left",0,0,0,0,TRUE,"P_M_keir_starmer.png P_M_Tony_Blair.png"
4016,"E_M_Michael_McIntyr.png","E_M_Russell_Howard.png","TRUE","pictures/stimuli/E","pictures/stimuli/E","M","M","5","5b755869d5d7a80001b45a1e","10/27/2022, 12:50:25",-1.48276208261849,"25","Female","left",0,0,0,0,TRUE,"E_M_Michael_McIntyr.png E_M_Russell_Howard.png"
2734,"E_M_Ewan_McGregor.png","E_M_Jimmy_Carr.png","TRUE","pictures/stimuli/E","pictures/stimuli/E","M","M","6","5b755869d5d7a80001b45a1e","10/27/2022, 12:50:25",0.395403222031597,"25","Female","left",0,0,0,0,TRUE,"E_M_Ewan_McGregor.png E_M_Jimmy_Carr.png"
7736,"P_M_jeremy_corbyn.png","P_M_Michael_Gove.png","TRUE","pictures/stimuli/P","pictures/stimuli/P","M","M","5","5b755869d5d7a80001b45a1e","10/27/2022, 12:50:25",-1.48276208261849,"25","Female","left",1,0,0,0,TRUE,"P_M_jeremy_corbyn.png P_M_Michael_Gove.png"
2657,"E_F_Julie_Walters.png","E_M_Jimmy_Carr.png","TRUE","pictures/stimuli/E","pictures/stimuli/E","F","M","6","5b755869d5d7a80001b45a1e","10/27/2022, 12:50:25",0.395403222031597,"25","Female","left",0,0,0,0,TRUE,"E_F_Julie_Walters.png E_M_Jimmy_Carr.png"
2704,"E_F_Julie_Walters.png","P_M_nigel_farage.png","FALSE","pictures/stimuli/E","pictures/stimuli/P","F","M","6","5b755869d5d7a80001b45a1e","10/27/2022, 12:50:25",0.395403222031597,"25","Female","left",0,0,0,0,TRUE,"E_F_Julie_Walters.png P_M_nigel_farage.png"
2939,"E_F_Jennifer_Saunders.png","P_M_Gordon_Brown.png","FALSE","pictures/stimuli/E","pictures/stimuli/P","F","M","6","5b755869d5d7a80001b45a1e","10/27/2022, 12:50:25",0.395403222031597,"25","Female","left",0,0,0,0,TRUE,"E_F_Jennifer_Saunders.png P_M_Gordon_Brown.png"
2732,"E_M_Ewan_McGregor.png","E_M_Michael_McIntyr.png","TRUE","pictures/stimuli/E","pictures/stimuli/E","M","M","6","5b755869d5d7a80001b45a1e","10/27/2022, 12:50:25",0.395403222031597,"25","Female","left",0,0,0,0,TRUE,"E_M_Ewan_McGregor.png E_M_Michael_McIntyr.png"
3407,"E_M_Ewan_McGregor.png","E_M_Russell_Howard.png","TRUE","pictures/stimuli/E","pictures/stimuli/E","M","M","6","5b755869d5d7a80001b45a1e","10/27/2022, 12:50:25",0.395403222031597,"25","Female","left",0,0,0,0,TRUE,"E_M_Ewan_McGregor.png E_M_Russell_Howard.png"
2124,"E_M_Russell_Howard.png","P_M_david_camer.png","FALSE","pictures/stimuli/E","pictures/stimuli/P","M","M","6","5b755869d5d7a80001b45a1e","10/27/2022, 12:50:25",0.395403222031597,"25","Female","left",0,1,0,0,TRUE,"E_M_Russell_Howard.png P_M_david_camer.png"
2642,"E_M_Ewan_McGregor.png","P_M_nigel_farage.png","FALSE","pictures/stimuli/E","pictures/stimuli/P","M","M","6","5b755869d5d7a80001b45a1e","10/27/2022, 12:50:25",0.395403222031597,"25","Female","left",0,0,0,0,TRUE,"E_M_Ewan_McGregor.png P_M_nigel_farage.png"
2843,"E_M_Simon_Pegg.png","P_M_Sajid_Javid.png","FALSE","pictures/stimuli/E","pictures/stimuli/P","M","M","5","5b755869d5d7a80001b45a1e","10/27/2022, 12:50:25",-1.48276208261849,"25","Female","left",0,0,0,0,TRUE,"E_M_Simon_Pegg.png P_M_Sajid_Javid.png"
2486,"E_F_Jennifer_Saunders.png","P_M_nigel_farage.png","FALSE","pictures/stimuli/E","pictures/stimuli/P","F","M","6","5b755869d5d7a80001b45a1e","10/27/2022, 12:50:25",0.395403222031597,"25","Female","left",0,0,0,0,TRUE,"E_F_Jennifer_Saunders.png P_M_nigel_farage.png"
2532,"P_M_david_camer.png","P_M_Sajid_Javid.png","TRUE","pictures/stimuli/P","pictures/stimuli/P","M","M","6","5b755869d5d7a80001b45a1e","10/27/2022, 12:50:25",0.395403222031597,"25","Female","left",1,0,0,0,TRUE,"P_M_david_camer.png P_M_Sajid_Javid.png"
2830,"P_F_nicola_sturge.png","P_M_Gordon_Brown.png","TRUE","pictures/stimuli/P","pictures/stimuli/P","F","M","6","5b755869d5d7a80001b45a1e","10/27/2022, 12:50:25",0.395403222031597,"25","Female","left",1,0,0,0,TRUE,"P_F_nicola_sturge.png P_M_Gordon_Brown.png"
3814,"P_M_david_camer.png","P_M_keir_starmer.png","TRUE","pictures/stimuli/P","pictures/stimuli/P","M","M","4","5b755869d5d7a80001b45a1e","10/27/2022, 12:50:25",-3.36092738726858,"25","Female","left",1,0,0,0,TRUE,"P_M_david_camer.png P_M_keir_starmer.png"
4001,"E_F_Sarah_Millican.png","E_M_Peter_Kay.png","TRUE","pictures/stimuli/E","pictures/stimuli/E","F","M","5","5b755869d5d7a80001b45a1e","10/27/2022, 12:50:25",-1.48276208261849,"25","Female","left",0,0,0,0,TRUE,"E_F_Sarah_Millican.png E_M_Peter_Kay.png"
2597,"P_F_nicola_sturge.png","P_M_nigel_farage.png","TRUE","pictures/stimuli/P","pictures/stimuli/P","F","M","6","5b755869d5d7a80001b45a1e","10/27/2022, 12:50:25",0.395403222031597,"25","Female","left",1,0,0,0,TRUE,"P_F_nicola_sturge.png P_M_nigel_farage.png"
2672,"E_F_Dawn_Roma_French.png","P_M_keir_starmer.png","FALSE","pictures/stimuli/E","pictures/stimuli/P","F","M","6","5b755869d5d7a80001b45a1e","10/27/2022, 12:50:25",0.395403222031597,"25","Female","left",0,0,0,0,TRUE,"E_F_Dawn_Roma_French.png P_M_keir_starmer.png"
2439,"E_M_Russell_Howard.png","P_F_Theresa_May.png","FALSE","pictures/stimuli/E","pictures/stimuli/P","M","F","6","5b755869d5d7a80001b45a1e","10/27/2022, 12:50:25",0.395403222031597,"25","Female","left",0,1,0,0,TRUE,"E_M_Russell_Howard.png P_F_Theresa_May.png"
2485,"E_F_Jennifer_Saunders.png","E_M_Ewan_McGregor.png","TRUE","pictures/stimuli/E","pictures/stimuli/E","F","M","6","5b755869d5d7a80001b45a1e","10/27/2022, 12:50:25",0.395403222031597,"25","Female","left",0,0,0,0,TRUE,"E_F_Jennifer_Saunders.png E_M_Ewan_McGregor.png"
2314,"E_F_Sarah_Millican.png","P_M_nigel_farage.png","FALSE","pictures/stimuli/E","pictures/stimuli/P","F","M","6","5b755869d5d7a80001b45a1e","10/27/2022, 12:50:25",0.395403222031597,"25","Female","left",0,0,0,0,TRUE,"E_F_Sarah_Millican.png P_M_nigel_farage.png"
3205,"E_F_Julie_Walters.png","E_M_Ewan_McGregor.png","TRUE","pictures/stimuli/E","pictures/stimuli/E","F","M","6","5b755869d5d7a80001b45a1e","10/27/2022, 12:50:25",0.395403222031597,"25","Female","left",0,0,0,0,TRUE,"E_F_Julie_Walters.png E_M_Ewan_McGregor.png"
3689,"E_M_Michael_McIntyr.png","P_M_Michael_Gove.png","FALSE","pictures/stimuli/E","pictures/stimuli/P","M","M","6","5b755869d5d7a80001b45a1e","10/27/2022, 12:50:25",0.395403222031597,"25","Female","left",0,0,0,0,TRUE,"E_M_Michael_McIntyr.png P_M_Michael_Gove.png"
3726,"E_M_Michael_McIntyr.png","P_M_Tony_Blair.png","FALSE","pictures/stimuli/E","pictures/stimuli/P","M","M","6","5b755869d5d7a80001b45a1e","10/27/2022, 12:50:25",0.395403222031597,"25","Female","left",0,0,0,0,TRUE,"E_M_Michael_McIntyr.png P_M_Tony_Blair.png"
2649,"E_M_Jimmy_Carr.png","E_M_Simon_Pegg.png","TRUE","pictures/stimuli/E","pictures/stimuli/E","M","M","6","5b755869d5d7a80001b45a1e","10/27/2022, 12:50:25",0.395403222031597,"25","Female","left",0,0,0,0,TRUE,"E_M_Jimmy_Carr.png E_M_Simon_Pegg.png"
2750,"P_M_jeremy_corbyn.png","P_M_nigel_farage.png","TRUE","pictures/stimuli/P","pictures/stimuli/P","M","M","6","5b755869d5d7a80001b45a1e","10/27/2022, 12:50:25",0.395403222031597,"25","Female","left",1,0,0,0,TRUE,"P_M_jeremy_corbyn.png P_M_nigel_farage.png"
3722,"P_M_Michael_Gove.png","P_M_Sajid_Javid.png","TRUE","pictures/stimuli/P","pictures/stimuli/P","M","M","5","5b755869d5d7a80001b45a1e","10/27/2022, 12:50:25",-1.48276208261849,"25","Female","left",0,0,0,0,TRUE,"P_M_Michael_Gove.png P_M_Sajid_Javid.png"
2850,"E_F_Jennifer_Saunders.png","E_M_Russell_Howard.png","TRUE","pictures/stimuli/E","pictures/stimuli/E","F","M","6","5b755869d5d7a80001b45a1e","10/27/2022, 12:50:25",0.395403222031597,"25","Female","left",0,0,0,0,TRUE,"E_F_Jennifer_Saunders.png E_M_Russell_Howard.png"
2731,"P_F_nicola_sturge.png","P_M_jeremy_corbyn.png","TRUE","pictures/stimuli/P","pictures/stimuli/P","F","M","6","5b755869d5d7a80001b45a1e","10/27/2022, 12:50:25",0.395403222031597,"25","Female","left",1,1,0,0,TRUE,"P_F_nicola_sturge.png P_M_jeremy_corbyn.png"
2861,"E_F_Jennifer_Saunders.png","P_M_jeremy_corbyn.png","FALSE","pictures/stimuli/E","pictures/stimuli/P","F","M","6","5b755869d5d7a80001b45a1e","10/27/2022, 12:50:25",0.395403222031597,"25","Female","left",0,1,0,0,TRUE,"E_F_Jennifer_Saunders.png P_M_jeremy_corbyn.png"
3079,"E_F_Dawn_Roma_French.png","P_M_jeremy_corbyn.png","FALSE","pictures/stimuli/E","pictures/stimuli/P","F","M","6","5b755869d5d7a80001b45a1e","10/27/2022, 12:50:25",0.395403222031597,"25","Female","left",0,1,0,0,TRUE,"E_F_Dawn_Roma_French.png P_M_jeremy_corbyn.png"
4267,"E_F_Sarah_Millican.png","P_F_nicola_sturge.png","FALSE","pictures/stimuli/E","pictures/stimuli/P","F","F","6","5b755869d5d7a80001b45a1e","10/27/2022, 12:50:25",0.395403222031597,"25","Female","left",0,1,0,0,TRUE,"E_F_Sarah_Millican.png P_F_nicola_sturge.png"
3279,"E_M_Michael_McIntyr.png","E_M_Peter_Kay.png","TRUE","pictures/stimuli/E","pictures/stimuli/E","M","M","6","5b755869d5d7a80001b45a1e","10/27/2022, 12:50:25",0.395403222031597,"25","Female","left",0,0,0,0,TRUE,"E_M_Michael_McIntyr.png E_M_Peter_Kay.png"
2063,"E_M_Jimmy_Carr.png","E_M_Peter_Kay.png","TRUE","pictures/stimuli/E","pictures/stimuli/E","M","M","6","5b755869d5d7a80001b45a1e","10/27/2022, 12:50:25",0.395403222031597,"25","Female","left",0,0,0,0,TRUE,"E_M_Jimmy_Carr.png E_M_Peter_Kay.png"
2651,"E_F_Dawn_Roma_French.png","E_F_Sarah_Millican.png","TRUE","pictures/stimuli/E","pictures/stimuli/E","F","F","6","5b755869d5d7a80001b45a1e","10/27/2022, 12:50:25",0.395403222031597,"25","Female","left",0,0,0,0,TRUE,"E_F_Dawn_Roma_French.png E_F_Sarah_Millican.png"
3407,"E_M_Russell_Howard.png","P_M_Sajid_Javid.png","FALSE","pictures/stimuli/E","pictures/stimuli/P","M","M","6","5b755869d5d7a80001b45a1e","10/27/2022, 12:50:25",0.395403222031597,"25","Female","left",0,0,0,0,TRUE,"E_M_Russell_Howard.png P_M_Sajid_Javid.png"
3160,"E_M_Ewan_McGregor.png","E_M_Simon_Pegg.png","TRUE","pictures/stimuli/E","pictures/stimuli/E","M","M","6","5b755869d5d7a80001b45a1e","10/27/2022, 12:50:25",0.395403222031597,"25","Female","left",0,0,0,0,TRUE,"E_M_Ewan_McGregor.png E_M_Simon_Pegg.png"
3145,"P_M_Michael_Gove.png","P_M_nigel_farage.png","TRUE","pictures/stimuli/P","pictures/stimuli/P","M","M","6","5b755869d5d7a80001b45a1e","10/27/2022, 12:50:25",0.395403222031597,"25","Female","left",0,0,0,0,TRUE,"P_M_Michael_Gove.png P_M_nigel_farage.png"
2676,"E_F_Jennifer_Saunders.png","P_M_david_camer.png","FALSE","pictures/stimuli/E","pictures/stimuli/P","F","M","6","5b755869d5d7a80001b45a1e","10/27/2022, 12:50:25",0.395403222031597,"25","Female","left",0,1,0,0,TRUE,"E_F_Jennifer_Saunders.png P_M_david_camer.png"
2143,"E_F_Dawn_Roma_French.png","P_M_Sajid_Javid.png","FALSE","pictures/stimuli/E","pictures/stimuli/P","F","M","6","5b755869d5d7a80001b45a1e","10/27/2022, 12:50:25",0.395403222031597,"25","Female","left",0,0,0,0,TRUE,"E_F_Dawn_Roma_French.png P_M_Sajid_Javid.png"
2383,"E_F_Jennifer_Saunders.png","E_M_Jimmy_Carr.png","TRUE","pictures/stimuli/E","pictures/stimuli/E","F","M","6","5b755869d5d7a80001b45a1e","10/27/2022, 12:50:25",0.395403222031597,"25","Female","left",0,0,0,0,TRUE,"E_F_Jennifer_Saunders.png E_M_Jimmy_Carr.png"
2311,"E_M_Jimmy_Carr.png","P_M_Sajid_Javid.png","FALSE","pictures/stimuli/E","pictures/stimuli/P","M","M","6","5b755869d5d7a80001b45a1e","10/27/2022, 12:50:25",0.395403222031597,"25","Female","left",0,0,0,0,TRUE,"E_M_Jimmy_Carr.png P_M_Sajid_Javid.png"
4273,"E_M_Ewan_McGregor.png","P_M_Gordon_Brown.png","FALSE","pictures/stimuli/E","pictures/stimuli/P","M","M","5","5b755869d5d7a80001b45a1e","10/27/2022, 12:50:25",-1.48276208261849,"25","Female","left",0,0,0,0,TRUE,"E_M_Ewan_McGregor.png P_M_Gordon_Brown.png"
2471,"E_M_Simon_Pegg.png","P_M_david_camer.png","FALSE","pictures/stimuli/E","pictures/stimuli/P","M","M","6","5b755869d5d7a80001b45a1e","10/27/2022, 12:50:25",0.395403222031597,"25","Female","left",0,1,0,0,TRUE,"E_M_Simon_Pegg.png P_M_david_camer.png"
2688,"E_M_Ewan_McGregor.png","P_M_keir_starmer.png","FALSE","pictures/stimuli/E","pictures/stimuli/P","M","M","5","5b755869d5d7a80001b45a1e","10/27/2022, 12:50:25",-1.48276208261849,"25","Female","left",0,0,0,0,TRUE,"E_M_Ewan_McGregor.png P_M_keir_starmer.png"
2234,"E_F_Dawn_Roma_French.png","P_F_Theresa_May.png","FALSE","pictures/stimuli/E","pictures/stimuli/P","F","F","6","5b755869d5d7a80001b45a1e","10/27/2022, 12:50:25",0.395403222031597,"25","Female","left",0,1,0,0,TRUE,"E_F_Dawn_Roma_French.png P_F_Theresa_May.png"
4993,"P_M_jeremy_corbyn.png","P_M_Sajid_Javid.png","TRUE","pictures/stimuli/P","pictures/stimuli/P","M","M","6","5b755869d5d7a80001b45a1e","10/27/2022, 12:50:25",0.395403222031597,"25","Female","left",1,0,0,0,TRUE,"P_M_jeremy_corbyn.png P_M_Sajid_Javid.png"
2579,"E_F_Julie_Walters.png","P_M_Michael_Gove.png","FALSE","pictures/stimuli/E","pictures/stimuli/P","F","M","6","5b755869d5d7a80001b45a1e","10/27/2022, 12:50:25",0.395403222031597,"25","Female","left",0,0,0,0,TRUE,"E_F_Julie_Walters.png P_M_Michael_Gove.png"
2610,"E_M_Michael_McIntyr.png","P_M_david_camer.png","FALSE","pictures/stimuli/E","pictures/stimuli/P","M","M","6","5b755869d5d7a80001b45a1e","10/27/2022, 12:50:25",0.395403222031597,"25","Female","left",0,1,0,0,TRUE,"E_M_Michael_McIntyr.png P_M_david_camer.png"
2752,"E_M_Peter_Kay.png","P_M_Sajid_Javid.png","FALSE","pictures/stimuli/E","pictures/stimuli/P","M","M","6","5b755869d5d7a80001b45a1e","10/27/2022, 12:50:25",0.395403222031597,"25","Female","left",0,0,0,0,TRUE,"E_M_Peter_Kay.png P_M_Sajid_Javid.png"
2344,"E_F_Sarah_Millican.png","E_M_Jimmy_Carr.png","TRUE","pictures/stimuli/E","pictures/stimuli/E","F","M","6","5b755869d5d7a80001b45a1e","10/27/2022, 12:50:25",0.395403222031597,"25","Female","left",0,0,0,0,TRUE,"E_F_Sarah_Millican.png E_M_Jimmy_Carr.png"
2204,"E_M_Simon_Pegg.png","P_M_Gordon_Brown.png","FALSE","pictures/stimuli/E","pictures/stimuli/P","M","M","6","5b755869d5d7a80001b45a1e","10/27/2022, 12:50:25",0.395403222031597,"25","Female","left",0,0,0,0,TRUE,"E_M_Simon_Pegg.png P_M_Gordon_Brown.png"
2358,"E_M_Jimmy_Carr.png","P_M_david_camer.png","FALSE","pictures/stimuli/E","pictures/stimuli/P","M","M","6","5b755869d5d7a80001b45a1e","10/27/2022, 12:50:25",0.395403222031597,"25","Female","left",0,1,0,0,TRUE,"E_M_Jimmy_Carr.png P_M_david_camer.png"
3983,"E_M_Jimmy_Carr.png","P_M_Gordon_Brown.png","FALSE","pictures/stimuli/E","pictures/stimuli/P","M","M","6","5b755869d5d7a80001b45a1e","10/27/2022, 12:50:25",0.395403222031597,"25","Female","left",0,0,0,0,TRUE,"E_M_Jimmy_Carr.png P_M_Gordon_Brown.png"
2268,"E_F_Dawn_Roma_French.png","E_M_Ewan_McGregor.png","TRUE","pictures/stimuli/E","pictures/stimuli/E","F","M","6","5b755869d5d7a80001b45a1e","10/27/2022, 12:50:25",0.395403222031597,"25","Female","left",0,0,0,0,TRUE,"E_F_Dawn_Roma_French.png E_M_Ewan_McGregor.png"
3622,"P_M_keir_starmer.png","P_M_Michael_Gove.png","TRUE","pictures/stimuli/P","pictures/stimuli/P","M","M","6","5b755869d5d7a80001b45a1e","10/27/2022, 12:50:25",0.395403222031597,"25","Female","left",0,0,0,0,TRUE,"P_M_keir_starmer.png P_M_Michael_Gove.png"
2735,"P_M_nigel_farage.png","P_M_Tony_Blair.png","TRUE","pictures/stimuli/P","pictures/stimuli/P","M","M","6","5b755869d5d7a80001b45a1e","10/27/2022, 12:50:25",0.395403222031597,"25","Female","left",0,0,0,0,TRUE,"P_M_nigel_farage.png P_M_Tony_Blair.png"
2972,"E_M_Russell_Howard.png","E_M_Simon_Pegg.png","TRUE","pictures/stimuli/E","pictures/stimuli/E","M","M","5","5b755869d5d7a80001b45a1e","10/27/2022, 12:50:25",-1.48276208261849,"25","Female","left",0,0,0,0,TRUE,"E_M_Russell_Howard.png E_M_Simon_Pegg.png"
2314,"E_M_Peter_Kay.png","P_M_jeremy_corbyn.png","FALSE","pictures/stimuli/E","pictures/stimuli/P","M","M","6","5b755869d5d7a80001b45a1e","10/27/2022, 12:50:25",0.395403222031597,"25","Female","left",0,1,0,0,TRUE,"E_M_Peter_Kay.png P_M_jeremy_corbyn.png"
2171,"P_M_david_camer.png","P_M_Gordon_Brown.png","TRUE","pictures/stimuli/P","pictures/stimuli/P","M","M","6","5b755869d5d7a80001b45a1e","10/27/2022, 12:50:25",0.395403222031597,"25","Female","left",1,0,0,0,TRUE,"P_M_david_camer.png P_M_Gordon_Brown.png"
3047,"P_F_Theresa_May.png","P_M_nigel_farage.png","TRUE","pictures/stimuli/P","pictures/stimuli/P","F","M","6","5b755869d5d7a80001b45a1e","10/27/2022, 12:50:25",0.395403222031597,"25","Female","left",1,0,0,0,TRUE,"P_F_Theresa_May.png P_M_nigel_farage.png"
4274,"E_M_Jimmy_Carr.png","E_M_Michael_McIntyr.png","TRUE","pictures/stimuli/E","pictures/stimuli/E","M","M","4","5b755869d5d7a80001b45a1e","10/27/2022, 12:50:25",-3.36092738726858,"25","Female","left",0,0,0,0,TRUE,"E_M_Jimmy_Carr.png E_M_Michael_McIntyr.png"
2750,"E_M_Michael_McIntyr.png","P_M_keir_starmer.png","FALSE","pictures/stimuli/E","pictures/stimuli/P","M","M","6","5b755869d5d7a80001b45a1e","10/27/2022, 12:50:25",0.395403222031597,"25","Female","left",0,0,0,0,TRUE,"E_M_Michael_McIntyr.png P_M_keir_starmer.png"
2658,"E_M_Ewan_McGregor.png","P_M_Tony_Blair.png","FALSE","pictures/stimuli/E","pictures/stimuli/P","M","M","6","5b755869d5d7a80001b45a1e","10/27/2022, 12:50:25",0.395403222031597,"25","Female","left",0,0,0,0,TRUE,"E_M_Ewan_McGregor.png P_M_Tony_Blair.png"
2331,"E_M_Ewan_McGregor.png","P_M_jeremy_corbyn.png","FALSE","pictures/stimuli/E","pictures/stimuli/P","M","M","6","5b755869d5d7a80001b45a1e","10/27/2022, 12:50:25",0.395403222031597,"25","Female","left",0,1,0,0,TRUE,"E_M_Ewan_McGregor.png P_M_jeremy_corbyn.png"
2447,"E_M_Russell_Howard.png","P_M_jeremy_corbyn.png","FALSE","pictures/stimuli/E","pictures/stimuli/P","M","M","6","5b755869d5d7a80001b45a1e","10/27/2022, 12:50:25",0.395403222031597,"25","Female","left",0,1,0,0,TRUE,"E_M_Russell_Howard.png P_M_jeremy_corbyn.png"
2466,"P_F_nicola_sturge.png","P_M_Tony_Blair.png","TRUE","pictures/stimuli/P","pictures/stimuli/P","F","M","6","5b755869d5d7a80001b45a1e","10/27/2022, 12:50:25",0.395403222031597,"25","Female","left",1,0,0,0,TRUE,"P_F_nicola_sturge.png P_M_Tony_Blair.png"
2424,"E_M_Russell_Howard.png","P_F_nicola_sturge.png","FALSE","pictures/stimuli/E","pictures/stimuli/P","M","F","6","5b755869d5d7a80001b45a1e","10/27/2022, 12:50:25",0.395403222031597,"25","Female","left",0,1,0,0,TRUE,"E_M_Russell_Howard.png P_F_nicola_sturge.png"
2320,"P_M_Gordon_Brown.png","P_M_nigel_farage.png","TRUE","pictures/stimuli/P","pictures/stimuli/P","M","M","6","5b755869d5d7a80001b45a1e","10/27/2022, 12:50:25",0.395403222031597,"25","Female","left",0,0,0,0,TRUE,"P_M_Gordon_Brown.png P_M_nigel_farage.png"
2316,"E_F_Dawn_Roma_French.png","E_F_Jennifer_Saunders.png","TRUE","pictures/stimuli/E","pictures/stimuli/E","F","F","6","5b755869d5d7a80001b45a1e","10/27/2022, 12:50:25",0.395403222031597,"25","Female","left",0,0,0,0,TRUE,"E_F_Dawn_Roma_French.png E_F_Jennifer_Saunders.png"
3455,"E_M_Russell_Howard.png","P_M_Gordon_Brown.png","FALSE","pictures/stimuli/E","pictures/stimuli/P","M","M","4","5b755869d5d7a80001b45a1e","10/27/2022, 12:50:25",-3.36092738726858,"25","Female","left",0,0,0,0,TRUE,"E_M_Russell_Howard.png P_M_Gordon_Brown.png"
2736,"E_F_Julie_Walters.png","P_M_jeremy_corbyn.png","FALSE","pictures/stimuli/E","pictures/stimuli/P","F","M","6","5b755869d5d7a80001b45a1e","10/27/2022, 12:50:25",0.395403222031597,"25","Female","left",0,1,0,0,TRUE,"E_F_Julie_Walters.png P_M_jeremy_corbyn.png"
2547,"E_M_Michael_McIntyr.png","P_M_Sajid_Javid.png","FALSE","pictures/stimuli/E","pictures/stimuli/P","M","M","6","5b755869d5d7a80001b45a1e","10/27/2022, 12:50:25",0.395403222031597,"25","Female","left",0,0,0,0,TRUE,"E_M_Michael_McIntyr.png P_M_Sajid_Javid.png"
2046,"P_F_Theresa_May.png","P_M_keir_starmer.png","TRUE","pictures/stimuli/P","pictures/stimuli/P","F","M","6","5b755869d5d7a80001b45a1e","10/27/2022, 12:50:25",0.395403222031597,"25","Female","left",1,0,0,0,TRUE,"P_F_Theresa_May.png P_M_keir_starmer.png"
3328,"P_M_Michael_Gove.png","P_M_Tony_Blair.png","TRUE","pictures/stimuli/P","pictures/stimuli/P","M","M","5","5b755869d5d7a80001b45a1e","10/27/2022, 12:50:25",-1.48276208261849,"25","Female","left",0,0,0,0,TRUE,"P_M_Michael_Gove.png P_M_Tony_Blair.png"
2513,"E_F_Sarah_Millican.png","E_M_Michael_McIntyr.png","TRUE","pictures/stimuli/E","pictures/stimuli/E","F","M","6","5b755869d5d7a80001b45a1e","10/27/2022, 12:50:25",0.395403222031597,"25","Female","left",0,0,0,0,TRUE,"E_F_Sarah_Millican.png E_M_Michael_McIntyr.png"
2437,"E_M_Jimmy_Carr.png","P_M_nigel_farage.png","FALSE","pictures/stimuli/E","pictures/stimuli/P","M","M","6","5b755869d5d7a80001b45a1e","10/27/2022, 12:50:25",0.395403222031597,"25","Female","left",0,0,0,0,TRUE,"E_M_Jimmy_Carr.png P_M_nigel_farage.png"
2157,"E_M_Ewan_McGregor.png","P_M_david_camer.png","FALSE","pictures/stimuli/E","pictures/stimuli/P","M","M","6","5b755869d5d7a80001b45a1e","10/27/2022, 12:50:25",0.395403222031597,"25","Female","left",0,1,0,0,TRUE,"E_M_Ewan_McGregor.png P_M_david_camer.png"
4237,"E_F_Jennifer_Saunders.png","P_M_Tony_Blair.png","FALSE","pictures/stimuli/E","pictures/stimuli/P","F","M","6","5b755869d5d7a80001b45a1e","10/27/2022, 12:50:25",0.395403222031597,"25","Female","left",0,0,0,0,TRUE,"E_F_Jennifer_Saunders.png P_M_Tony_Blair.png"
2144,"E_F_Julie_Walters.png","P_M_Gordon_Brown.png","FALSE","pictures/stimuli/E","pictures/stimuli/P","F","M","6","5b755869d5d7a80001b45a1e","10/27/2022, 12:50:25",0.395403222031597,"25","Female","left",0,0,0,0,TRUE,"E_F_Julie_Walters.png P_M_Gordon_Brown.png"
2902,"E_M_Simon_Pegg.png","P_M_Tony_Blair.png","FALSE","pictures/stimuli/E","pictures/stimuli/P","M","M","4","5b755869d5d7a80001b45a1e","10/27/2022, 12:50:25",-3.36092738726858,"25","Female","left",0,0,0,0,TRUE,"E_M_Simon_Pegg.png P_M_Tony_Blair.png"
2235,"P_M_Sajid_Javid.png","P_M_Tony_Blair.png","TRUE","pictures/stimuli/P","pictures/stimuli/P","M","M","6","5b755869d5d7a80001b45a1e","10/27/2022, 12:50:25",0.395403222031597,"25","Female","left",0,0,0,0,TRUE,"P_M_Sajid_Javid.png P_M_Tony_Blair.png"
3530,"E_F_Sarah_Millican.png","P_M_Sajid_Javid.png","FALSE","pictures/stimuli/E","pictures/stimuli/P","F","M","6","5b755869d5d7a80001b45a1e","10/27/2022, 12:50:25",0.395403222031597,"25","Female","left",0,0,0,0,TRUE,"E_F_Sarah_Millican.png P_M_Sajid_Javid.png"
3048,"P_M_jeremy_corbyn.png","P_M_Tony_Blair.png","TRUE","pictures/stimuli/P","pictures/stimuli/P","M","M","4","5b755869d5d7a80001b45a1e","10/27/2022, 12:50:25",-3.36092738726858,"25","Female","left",1,0,0,0,TRUE,"P_M_jeremy_corbyn.png P_M_Tony_Blair.png"
2438,"E_M_Jimmy_Carr.png","P_F_nicola_sturge.png","FALSE","pictures/stimuli/E","pictures/stimuli/P","M","F","6","5b755869d5d7a80001b45a1e","10/27/2022, 12:50:25",0.395403222031597,"25","Female","left",0,1,0,0,TRUE,"E_M_Jimmy_Carr.png P_F_nicola_sturge.png"
2376,"E_M_Peter_Kay.png","P_F_nicola_sturge.png","FALSE","pictures/stimuli/E","pictures/stimuli/P","M","F","6","5b755869d5d7a80001b45a1e","10/27/2022, 12:50:25",0.395403222031597,"25","Female","left",0,1,0,0,TRUE,"E_M_Peter_Kay.png P_F_nicola_sturge.png"
3765,"P_F_Theresa_May.png","P_M_Tony_Blair.png","TRUE","pictures/stimuli/P","pictures/stimuli/P","F","M","5","5b755869d5d7a80001b45a1e","10/27/2022, 12:50:25",-1.48276208261849,"25","Female","left",1,0,0,0,TRUE,"P_F_Theresa_May.png P_M_Tony_Blair.png"
2735,"E_M_Peter_Kay.png","E_M_Simon_Pegg.png","TRUE","pictures/stimuli/E","pictures/stimuli/E","M","M","6","5b755869d5d7a80001b45a1e","10/27/2022, 12:50:25",0.395403222031597,"25","Female","left",0,0,0,0,TRUE,"E_M_Peter_Kay.png E_M_Simon_Pegg.png"
2956,"E_M_Simon_Pegg.png","P_M_jeremy_corbyn.png","FALSE","pictures/stimuli/E","pictures/stimuli/P","M","M","4","5b755869d5d7a80001b45a1e","10/27/2022, 12:50:25",-3.36092738726858,"25","Female","left",0,1,0,0,TRUE,"E_M_Simon_Pegg.png P_M_jeremy_corbyn.png"
3251,"E_M_Peter_Kay.png","P_M_Gordon_Brown.png","FALSE","pictures/stimuli/E","pictures/stimuli/P","M","M","6","5b755869d5d7a80001b45a1e","10/27/2022, 12:50:25",0.395403222031597,"25","Female","left",0,0,0,0,TRUE,"E_M_Peter_Kay.png P_M_Gordon_Brown.png"
2939,"P_M_david_camer.png","P_M_nigel_farage.png","TRUE","pictures/stimuli/P","pictures/stimuli/P","M","M","6","5b755869d5d7a80001b45a1e","10/27/2022, 12:50:25",0.395403222031597,"25","Female","left",1,0,0,0,TRUE,"P_M_david_camer.png P_M_nigel_farage.png"
2564,"E_F_Dawn_Roma_French.png","P_M_Gordon_Brown.png","FALSE","pictures/stimuli/E","pictures/stimuli/P","F","M","6","5b755869d5d7a80001b45a1e","10/27/2022, 12:50:25",0.395403222031597,"25","Female","left",0,0,0,0,TRUE,"E_F_Dawn_Roma_French.png P_M_Gordon_Brown.png"
2307,"E_F_Julie_Walters.png","P_M_Tony_Blair.png","FALSE","pictures/stimuli/E","pictures/stimuli/P","F","M","6","5b755869d5d7a80001b45a1e","10/27/2022, 12:50:25",0.395403222031597,"25","Female","left",0,0,0,0,TRUE,"E_F_Julie_Walters.png P_M_Tony_Blair.png"
3423,"E_M_Simon_Pegg.png","P_M_keir_starmer.png","FALSE","pictures/stimuli/E","pictures/stimuli/P","M","M","6","5b755869d5d7a80001b45a1e","10/27/2022, 12:50:25",0.395403222031597,"25","Female","left",0,0,0,0,TRUE,"E_M_Simon_Pegg.png P_M_keir_starmer.png"
3018,"P_F_Theresa_May.png","P_M_jeremy_corbyn.png","TRUE","pictures/stimuli/P","pictures/stimuli/P","F","M","6","5b755869d5d7a80001b45a1e","10/27/2022, 12:50:25",0.395403222031597,"25","Female","left",1,1,0,0,TRUE,"P_F_Theresa_May.png P_M_jeremy_corbyn.png"
2602,"E_F_Jennifer_Saunders.png","P_M_Sajid_Javid.png","FALSE","pictures/stimuli/E","pictures/stimuli/P","F","M","6","5b755869d5d7a80001b45a1e","10/27/2022, 12:50:25",0.395403222031597,"25","Female","left",0,0,0,0,TRUE,"E_F_Jennifer_Saunders.png P_M_Sajid_Javid.png"
2999,"E_F_Jennifer_Saunders.png","P_F_Theresa_May.png","FALSE","pictures/stimuli/E","pictures/stimuli/P","F","F","5","5b755869d5d7a80001b45a1e","10/27/2022, 12:50:25",-1.48276208261849,"25","Female","left",0,1,0,0,TRUE,"E_F_Jennifer_Saunders.png P_F_Theresa_May.png"
2247,"E_F_Dawn_Roma_French.png","E_M_Russell_Howard.png","TRUE","pictures/stimuli/E","pictures/stimuli/E","F","M","6","5b755869d5d7a80001b45a1e","10/27/2022, 12:50:25",0.395403222031597,"25","Female","left",0,0,0,0,TRUE,"E_F_Dawn_Roma_French.png E_M_Russell_Howard.png"
2486,"E_F_Julie_Walters.png","E_M_Peter_Kay.png","TRUE","pictures/stimuli/E","pictures/stimuli/E","F","M","6","5b755869d5d7a80001b45a1e","10/27/2022, 12:50:25",0.395403222031597,"25","Female","left",0,0,0,0,TRUE,"E_F_Julie_Walters.png E_M_Peter_Kay.png"
2828,"E_M_Jimmy_Carr.png","P_F_Theresa_May.png","FALSE","pictures/stimuli/E","pictures/stimuli/P","M","F","6","5b755869d5d7a80001b45a1e","10/27/2022, 12:50:25",0.395403222031597,"25","Female","left",0,1,0,0,TRUE,"E_M_Jimmy_Carr.png P_F_Theresa_May.png"
3094,"E_M_Jimmy_Carr.png","P_M_keir_starmer.png","FALSE","pictures/stimuli/E","pictures/stimuli/P","M","M","6","5b755869d5d7a80001b45a1e","10/27/2022, 12:50:25",0.395403222031597,"25","Female","left",0,0,0,0,TRUE,"E_M_Jimmy_Carr.png P_M_keir_starmer.png"
2015,"E_M_Ewan_McGregor.png","P_M_Sajid_Javid.png","FALSE","pictures/stimuli/E","pictures/stimuli/P","M","M","6","5b755869d5d7a80001b45a1e","10/27/2022, 12:50:25",0.395403222031597,"25","Female","left",0,0,0,0,TRUE,"E_M_Ewan_McGregor.png P_M_Sajid_Javid.png"
2188,"P_M_keir_starmer.png","P_M_nigel_farage.png","TRUE","pictures/stimuli/P","pictures/stimuli/P","M","M","6","5b755869d5d7a80001b45a1e","10/27/2022, 12:50:25",0.395403222031597,"25","Female","left",0,0,0,0,TRUE,"P_M_keir_starmer.png P_M_nigel_farage.png"
2561,"E_M_Peter_Kay.png","P_M_Tony_Blair.png","FALSE","pictures/stimuli/E","pictures/stimuli/P","M","M","6","5b755869d5d7a80001b45a1e","10/27/2022, 12:50:25",0.395403222031597,"25","Female","left",0,0,0,0,TRUE,"E_M_Peter_Kay.png P_M_Tony_Blair.png"
2107,"E_M_Peter_Kay.png","E_M_Russell_Howard.png","TRUE","pictures/stimuli/E","pictures/stimuli/E","M","M","6","5b755869d5d7a80001b45a1e","10/27/2022, 12:50:25",0.395403222031597,"25","Female","left",0,0,0,0,TRUE,"E_M_Peter_Kay.png E_M_Russell_Howard.png"
3173,"E_M_Jimmy_Carr.png","E_M_Russell_Howard.png","TRUE","pictures/stimuli/E","pictures/stimuli/E","M","M","5","5b755869d5d7a80001b45a1e","10/27/2022, 12:50:25",-1.48276208261849,"25","Female","left",0,0,0,0,TRUE,"E_M_Jimmy_Carr.png E_M_Russell_Howard.png"
2578,"E_F_Jennifer_Saunders.png","E_F_Julie_Walters.png","TRUE","pictures/stimuli/E","pictures/stimuli/E","F","F","5","5b755869d5d7a80001b45a1e","10/27/2022, 12:50:25",-1.48276208261849,"25","Female","left",0,0,0,0,TRUE,"E_F_Jennifer_Saunders.png E_F_Julie_Walters.png"
2805,"E_F_Jennifer_Saunders.png","P_F_nicola_sturge.png","FALSE","pictures/stimuli/E","pictures/stimuli/P","F","F","6","5b755869d5d7a80001b45a1e","10/27/2022, 12:50:25",0.395403222031597,"25","Female","left",0,1,0,0,TRUE,"E_F_Jennifer_Saunders.png P_F_nicola_sturge.png"
2173,"E_F_Jennifer_Saunders.png","E_M_Simon_Pegg.png","TRUE","pictures/stimuli/E","pictures/stimuli/E","F","M","6","5b755869d5d7a80001b45a1e","10/27/2022, 12:50:25",0.395403222031597,"25","Female","left",0,0,0,0,TRUE,"E_F_Jennifer_Saunders.png E_M_Simon_Pegg.png"
2485,"P_M_nigel_farage.png","P_M_Sajid_Javid.png","TRUE","pictures/stimuli/P","pictures/stimuli/P","M","M","6","5b755869d5d7a80001b45a1e","10/27/2022, 12:50:25",0.395403222031597,"25","Female","left",0,0,0,0,TRUE,"P_M_nigel_farage.png P_M_Sajid_Javid.png"
2423,"E_F_Julie_Walters.png","E_M_Russell_Howard.png","TRUE","pictures/stimuli/E","pictures/stimuli/E","F","M","6","5b755869d5d7a80001b45a1e","10/27/2022, 12:50:25",0.395403222031597,"25","Female","left",0,0,0,0,TRUE,"E_F_Julie_Walters.png E_M_Russell_Howard.png"
2746,"P_F_nicola_sturge.png","P_F_Theresa_May.png","TRUE","pictures/stimuli/P","pictures/stimuli/P","F","F","6","5b755869d5d7a80001b45a1e","10/27/2022, 12:50:25",0.395403222031597,"25","Female","left",1,1,0,0,TRUE,"P_F_nicola_sturge.png P_F_Theresa_May.png"
2363,"E_F_Dawn_Roma_French.png","E_M_Peter_Kay.png","TRUE","pictures/stimuli/E","pictures/stimuli/E","F","M","6","5b755869d5d7a80001b45a1e","10/27/2022, 12:50:25",0.395403222031597,"25","Female","left",0,0,0,0,TRUE,"E_F_Dawn_Roma_French.png E_M_Peter_Kay.png"
2064,"E_F_Sarah_Millican.png","E_M_Russell_Howard.png","TRUE","pictures/stimuli/E","pictures/stimuli/E","F","M","6","5b755869d5d7a80001b45a1e","10/27/2022, 12:50:25",0.395403222031597,"25","Female","left",0,0,0,0,TRUE,"E_F_Sarah_Millican.png E_M_Russell_Howard.png"
2475,"E_F_Dawn_Roma_French.png","E_M_Michael_McIntyr.png","TRUE","pictures/stimuli/E","pictures/stimuli/E","F","M","6","5b755869d5d7a80001b45a1e","10/27/2022, 12:50:25",0.395403222031597,"25","Female","left",0,0,0,0,TRUE,"E_F_Dawn_Roma_French.png E_M_Michael_McIntyr.png"
2906,"E_F_Jennifer_Saunders.png","E_M_Michael_McIntyr.png","TRUE","pictures/stimuli/E","pictures/stimuli/E","F","M","6","5b755869d5d7a80001b45a1e","10/27/2022, 12:50:25",0.395403222031597,"25","Female","left",0,0,0,0,TRUE,"E_F_Jennifer_Saunders.png E_M_Michael_McIntyr.png"
2010,"E_F_Sarah_Millican.png","P_M_Tony_Blair.png","FALSE","pictures/stimuli/E","pictures/stimuli/P","F","M","6","5b755869d5d7a80001b45a1e","10/27/2022, 12:50:25",0.395403222031597,"25","Female","left",0,0,0,0,TRUE,"E_F_Sarah_Millican.png P_M_Tony_Blair.png"
2220,"E_M_Michael_McIntyr.png","P_F_nicola_sturge.png","FALSE","pictures/stimuli/E","pictures/stimuli/P","M","F","6","5b755869d5d7a80001b45a1e","10/27/2022, 12:50:25",0.395403222031597,"25","Female","left",0,1,0,0,TRUE,"E_M_Michael_McIntyr.png P_F_nicola_sturge.png"
2265,"E_F_Julie_Walters.png","P_M_keir_starmer.png","FALSE","pictures/stimuli/E","pictures/stimuli/P","F","M","6","5b755869d5d7a80001b45a1e","10/27/2022, 12:50:25",0.395403222031597,"25","Female","left",0,0,0,0,TRUE,"E_F_Julie_Walters.png P_M_keir_starmer.png"
2125,"E_M_Michael_McIntyr.png","P_M_nigel_farage.png","FALSE","pictures/stimuli/E","pictures/stimuli/P","M","M","6","5b755869d5d7a80001b45a1e","10/27/2022, 12:50:25",0.395403222031597,"25","Female","left",0,0,0,0,TRUE,"E_M_Michael_McIntyr.png P_M_nigel_farage.png"
2654,"P_F_nicola_sturge.png","P_M_david_camer.png","TRUE","pictures/stimuli/P","pictures/stimuli/P","F","M","6","5b755869d5d7a80001b45a1e","10/27/2022, 12:50:25",0.395403222031597,"25","Female","left",1,1,0,0,TRUE,"P_F_nicola_sturge.png P_M_david_camer.png"
3376,"E_M_Peter_Kay.png","P_M_david_camer.png","FALSE","pictures/stimuli/E","pictures/stimuli/P","M","M","3","5b755869d5d7a80001b45a1e","10/27/2022, 12:50:25",-5.23909269191867,"25","Female","left",0,1,0,0,TRUE,"E_M_Peter_Kay.png P_M_david_camer.png"
3064,"E_M_Russell_Howard.png","P_M_nigel_farage.png","FALSE","pictures/stimuli/E","pictures/stimuli/P","M","M","6","5b755869d5d7a80001b45a1e","10/27/2022, 12:50:25",0.395403222031597,"25","Female","left",0,0,0,0,TRUE,"E_M_Russell_Howard.png P_M_nigel_farage.png"
2416,"E_F_Dawn_Roma_French.png","P_M_david_camer.png","FALSE","pictures/stimuli/E","pictures/stimuli/P","F","M","6","5b755869d5d7a80001b45a1e","10/27/2022, 12:50:25",0.395403222031597,"25","Female","left",0,1,0,0,TRUE,"E_F_Dawn_Roma_French.png P_M_david_camer.png"
2610,"E_F_Julie_Walters.png","P_M_Sajid_Javid.png","FALSE","pictures/stimuli/E","pictures/stimuli/P","F","M","6","5b755869d5d7a80001b45a1e","10/27/2022, 12:50:25",0.395403222031597,"25","Female","left",0,0,0,0,TRUE,"E_F_Julie_Walters.png P_M_Sajid_Javid.png"
5511,"E_M_Ewan_McGregor.png","E_M_Peter_Kay.png","TRUE","pictures/stimuli/E","pictures/stimuli/E","M","M","5","5b755869d5d7a80001b45a1e","10/27/2022, 12:50:25",-1.48276208261849,"25","Female","left",0,0,0,0,TRUE,"E_M_Ewan_McGregor.png E_M_Peter_Kay.png"
2579,"E_F_Dawn_Roma_French.png","P_F_nicola_sturge.png","FALSE","pictures/stimuli/E","pictures/stimuli/P","F","F","6","5b755869d5d7a80001b45a1e","10/27/2022, 12:50:25",0.395403222031597,"25","Female","left",0,1,0,0,TRUE,"E_F_Dawn_Roma_French.png P_F_nicola_sturge.png"
2214,"E_F_Dawn_Roma_French.png","E_M_Jimmy_Carr.png","TRUE","pictures/stimuli/E","pictures/stimuli/E","F","M","6","5b755869d5d7a80001b45a1e","10/27/2022, 12:50:25",0.395403222031597,"25","Female","left",0,0,0,0,TRUE,"E_F_Dawn_Roma_French.png E_M_Jimmy_Carr.png"
3487,"P_M_Gordon_Brown.png","P_M_keir_starmer.png","TRUE","pictures/stimuli/P","pictures/stimuli/P","M","M","6","5b755869d5d7a80001b45a1e","10/27/2022, 12:50:25",0.395403222031597,"25","Female","left",0,0,0,0,TRUE,"P_M_Gordon_Brown.png P_M_keir_starmer.png"
4024,"E_M_Michael_McIntyr.png","P_M_jeremy_corbyn.png","FALSE","pictures/stimuli/E","pictures/stimuli/P","M","M","6","5b755869d5d7a80001b45a1e","10/27/2022, 12:50:25",0.395403222031597,"25","Female","left",0,1,0,0,TRUE,"E_M_Michael_McIntyr.png P_M_jeremy_corbyn.png"
3185,"E_F_Sarah_Millican.png","P_M_david_camer.png","FALSE","pictures/stimuli/E","pictures/stimuli/P","F","M","6","5b755869d5d7a80001b45a1e","10/27/2022, 12:50:25",0.395403222031597,"25","Female","left",0,1,0,0,TRUE,"E_F_Sarah_Millican.png P_M_david_camer.png"
4954,"P_F_Theresa_May.png","P_M_Gordon_Brown.png","TRUE","pictures/stimuli/P","pictures/stimuli/P","F","M","6","5b755869d5d7a80001b45a1e","10/27/2022, 12:50:25",0.395403222031597,"25","Female","left",1,0,0,0,TRUE,"P_F_Theresa_May.png P_M_Gordon_Brown.png"
2861,"E_F_Sarah_Millican.png","P_M_jeremy_corbyn.png","FALSE","pictures/stimuli/E","pictures/stimuli/P","F","M","6","5b755869d5d7a80001b45a1e","10/27/2022, 12:50:25",0.395403222031597,"25","Female","left",0,1,0,0,TRUE,"E_F_Sarah_Millican.png P_M_jeremy_corbyn.png"
4351,"E_M_Michael_McIntyr.png","E_M_Simon_Pegg.png","TRUE","pictures/stimuli/E","pictures/stimuli/E","M","M","4","5d66849f0e3ff20016f36599","10/27/2022, 13:42:44",-0.356445181825489,"30","Male","right",0,0,0,0,TRUE,"E_M_Michael_McIntyr.png E_M_Simon_Pegg.png"
2219,"E_F_Jennifer_Saunders.png","P_M_Gordon_Brown.png","FALSE","pictures/stimuli/E","pictures/stimuli/P","F","M","6","5d66849f0e3ff20016f36599","10/27/2022, 13:42:44",0.958595294812237,"30","Male","right",0,0,0,0,TRUE,"E_F_Jennifer_Saunders.png P_M_Gordon_Brown.png"
1871,"E_F_Jennifer_Saunders.png","E_M_Simon_Pegg.png","TRUE","pictures/stimuli/E","pictures/stimuli/E","F","M","6","5d66849f0e3ff20016f36599","10/27/2022, 13:42:44",0.958595294812237,"30","Male","right",0,0,0,0,TRUE,"E_F_Jennifer_Saunders.png E_M_Simon_Pegg.png"
2752,"E_M_Michael_McIntyr.png","P_M_Gordon_Brown.png","FALSE","pictures/stimuli/E","pictures/stimuli/P","M","M","3","5d66849f0e3ff20016f36599","10/27/2022, 13:42:44",-1.01396542014435,"30","Male","right",0,0,0,0,TRUE,"E_M_Michael_McIntyr.png P_M_Gordon_Brown.png"
3096,"E_F_Sarah_Millican.png","E_M_Russell_Howard.png","TRUE","pictures/stimuli/E","pictures/stimuli/E","F","M","6","5d66849f0e3ff20016f36599","10/27/2022, 13:42:44",0.958595294812237,"30","Male","right",0,0,0,0,TRUE,"E_F_Sarah_Millican.png E_M_Russell_Howard.png"
6169,"P_M_Michael_Gove.png","P_M_Sajid_Javid.png","TRUE","pictures/stimuli/P","pictures/stimuli/P","M","M","3","5d66849f0e3ff20016f36599","10/27/2022, 13:42:44",-1.01396542014435,"30","Male","right",0,0,0,0,TRUE,"P_M_Michael_Gove.png P_M_Sajid_Javid.png"
3489,"P_F_nicola_sturge.png","P_M_nigel_farage.png","TRUE","pictures/stimuli/P","pictures/stimuli/P","F","M","6","5d66849f0e3ff20016f36599","10/27/2022, 13:42:44",0.958595294812237,"30","Male","right",1,1,0,0,TRUE,"P_F_nicola_sturge.png P_M_nigel_farage.png"
4538,"E_F_Sarah_Millican.png","E_M_Peter_Kay.png","TRUE","pictures/stimuli/E","pictures/stimuli/E","F","M","6","5d66849f0e3ff20016f36599","10/27/2022, 13:42:44",0.958595294812237,"30","Male","right",0,0,0,0,TRUE,"E_F_Sarah_Millican.png E_M_Peter_Kay.png"
3658,"E_M_Jimmy_Carr.png","P_F_Theresa_May.png","FALSE","pictures/stimuli/E","pictures/stimuli/P","M","F","6","5d66849f0e3ff20016f36599","10/27/2022, 13:42:44",0.958595294812237,"30","Male","right",0,0,0,0,TRUE,"E_M_Jimmy_Carr.png P_F_Theresa_May.png"
3035,"P_F_Theresa_May.png","P_M_nigel_farage.png","TRUE","pictures/stimuli/P","pictures/stimuli/P","F","M","6","5d66849f0e3ff20016f36599","10/27/2022, 13:42:44",0.958595294812237,"30","Male","right",0,1,0,0,TRUE,"P_F_Theresa_May.png P_M_nigel_farage.png"
2058,"E_F_Jennifer_Saunders.png","E_M_Russell_Howard.png","TRUE","pictures/stimuli/E","pictures/stimuli/E","F","M","6","5d66849f0e3ff20016f36599","10/27/2022, 13:42:44",0.958595294812237,"30","Male","right",0,0,0,0,TRUE,"E_F_Jennifer_Saunders.png E_M_Russell_Howard.png"
1568,"E_F_Julie_Walters.png","P_M_Michael_Gove.png","FALSE","pictures/stimuli/E","pictures/stimuli/P","F","M","6","5d66849f0e3ff20016f36599","10/27/2022, 13:42:44",0.958595294812237,"30","Male","right",1,0,0,0,TRUE,"E_F_Julie_Walters.png P_M_Michael_Gove.png"
2161,"E_F_Sarah_Millican.png","P_M_Michael_Gove.png","FALSE","pictures/stimuli/E","pictures/stimuli/P","F","M","5","5d66849f0e3ff20016f36599","10/27/2022, 13:42:44",0.301075056493374,"30","Male","right",0,0,0,0,TRUE,"E_F_Sarah_Millican.png P_M_Michael_Gove.png"
3957,"E_M_Ewan_McGregor.png","E_M_Michael_McIntyr.png","TRUE","pictures/stimuli/E","pictures/stimuli/E","M","M","4","5d66849f0e3ff20016f36599","10/27/2022, 13:42:44",-0.356445181825489,"30","Male","right",0,0,0,0,TRUE,"E_M_Ewan_McGregor.png E_M_Michael_McIntyr.png"
5344,"E_F_Dawn_Roma_French.png","E_F_Sarah_Millican.png","TRUE","pictures/stimuli/E","pictures/stimuli/E","F","F","2","5d66849f0e3ff20016f36599","10/27/2022, 13:42:44",-1.67148565846322,"30","Male","right",0,0,0,0,TRUE,"E_F_Dawn_Roma_French.png E_F_Sarah_Millican.png"
7611,"E_F_Dawn_Roma_French.png","E_M_Peter_Kay.png","TRUE","pictures/stimuli/E","pictures/stimuli/E","F","M","6","5d66849f0e3ff20016f36599","10/27/2022, 13:42:44",0.958595294812237,"30","Male","right",0,0,0,0,TRUE,"E_F_Dawn_Roma_French.png E_M_Peter_Kay.png"
4800,"E_F_Julie_Walters.png","P_F_Theresa_May.png","FALSE","pictures/stimuli/E","pictures/stimuli/P","F","F","1","5d66849f0e3ff20016f36599","10/27/2022, 13:42:44",-2.32900589678208,"30","Male","right",1,0,0,0,TRUE,"E_F_Julie_Walters.png P_F_Theresa_May.png"
1938,"E_F_Jennifer_Saunders.png","P_M_nigel_farage.png","FALSE","pictures/stimuli/E","pictures/stimuli/P","F","M","6","5d66849f0e3ff20016f36599","10/27/2022, 13:42:44",0.958595294812237,"30","Male","right",0,1,0,0,TRUE,"E_F_Jennifer_Saunders.png P_M_nigel_farage.png"
13342,"E_M_Ewan_McGregor.png","E_M_Peter_Kay.png","TRUE","pictures/stimuli/E","pictures/stimuli/E","M","M","2","5d66849f0e3ff20016f36599","10/27/2022, 13:42:44",-1.67148565846322,"30","Male","right",0,0,0,0,TRUE,"E_M_Ewan_McGregor.png E_M_Peter_Kay.png"
2830,"P_M_keir_starmer.png","P_M_Tony_Blair.png","TRUE","pictures/stimuli/P","pictures/stimuli/P","M","M","2","5d66849f0e3ff20016f36599","10/27/2022, 13:42:44",-1.67148565846322,"30","Male","right",0,0,0,0,TRUE,"P_M_keir_starmer.png P_M_Tony_Blair.png"
3320,"P_M_jeremy_corbyn.png","P_M_nigel_farage.png","TRUE","pictures/stimuli/P","pictures/stimuli/P","M","M","4","5d66849f0e3ff20016f36599","10/27/2022, 13:42:44",-0.356445181825489,"30","Male","right",0,1,0,0,TRUE,"P_M_jeremy_corbyn.png P_M_nigel_farage.png"
3251,"P_F_Theresa_May.png","P_M_keir_starmer.png","TRUE","pictures/stimuli/P","pictures/stimuli/P","F","M","6","5d66849f0e3ff20016f36599","10/27/2022, 13:42:44",0.958595294812237,"30","Male","right",0,0,0,0,TRUE,"P_F_Theresa_May.png P_M_keir_starmer.png"
5866,"P_F_nicola_sturge.png","P_M_keir_starmer.png","TRUE","pictures/stimuli/P","pictures/stimuli/P","F","M","6","5d66849f0e3ff20016f36599","10/27/2022, 13:42:44",0.958595294812237,"30","Male","right",1,0,0,0,TRUE,"P_F_nicola_sturge.png P_M_keir_starmer.png"
4069,"E_F_Julie_Walters.png","P_M_Sajid_Javid.png","FALSE","pictures/stimuli/E","pictures/stimuli/P","F","M","6","5d66849f0e3ff20016f36599","10/27/2022, 13:42:44",0.958595294812237,"30","Male","right",1,0,0,0,TRUE,"E_F_Julie_Walters.png P_M_Sajid_Javid.png"
5296,"E_M_Michael_McIntyr.png","E_M_Russell_Howard.png","TRUE","pictures/stimuli/E","pictures/stimuli/E","M","M","2","5d66849f0e3ff20016f36599","10/27/2022, 13:42:44",-1.67148565846322,"30","Male","right",0,0,0,0,TRUE,"E_M_Michael_McIntyr.png E_M_Russell_Howard.png"
3321,"E_F_Sarah_Millican.png","P_M_Sajid_Javid.png","FALSE","pictures/stimuli/E","pictures/stimuli/P","F","M","6","5d66849f0e3ff20016f36599","10/27/2022, 13:42:44",0.958595294812237,"30","Male","right",0,0,0,0,TRUE,"E_F_Sarah_Millican.png P_M_Sajid_Javid.png"
3890,"P_M_david_camer.png","P_M_Michael_Gove.png","TRUE","pictures/stimuli/P","pictures/stimuli/P","M","M","1","5d66849f0e3ff20016f36599","10/27/2022, 13:42:44",-2.32900589678208,"30","Male","right",1,0,0,0,TRUE,"P_M_david_camer.png P_M_Michael_Gove.png"
1802,"P_F_Theresa_May.png","P_M_Sajid_Javid.png","TRUE","pictures/stimuli/P","pictures/stimuli/P","F","M","6","5d66849f0e3ff20016f36599","10/27/2022, 13:42:44",0.958595294812237,"30","Male","right",0,0,0,0,TRUE,"P_F_Theresa_May.png P_M_Sajid_Javid.png"
3167,"E_F_Jennifer_Saunders.png","P_M_Michael_Gove.png","FALSE","pictures/stimuli/E","pictures/stimuli/P","F","M","6","5d66849f0e3ff20016f36599","10/27/2022, 13:42:44",0.958595294812237,"30","Male","right",0,0,0,0,TRUE,"E_F_Jennifer_Saunders.png P_M_Michael_Gove.png"
6689,"E_F_Jennifer_Saunders.png","P_F_nicola_sturge.png","FALSE","pictures/stimuli/E","pictures/stimuli/P","F","F","3","5d66849f0e3ff20016f36599","10/27/2022, 13:42:44",-1.01396542014435,"30","Male","right",0,1,0,0,TRUE,"E_F_Jennifer_Saunders.png P_F_nicola_sturge.png"
3657,"E_F_Julie_Walters.png","P_M_Gordon_Brown.png","FALSE","pictures/stimuli/E","pictures/stimuli/P","F","M","4","5d66849f0e3ff20016f36599","10/27/2022, 13:42:44",-0.356445181825489,"30","Male","right",1,0,0,0,TRUE,"E_F_Julie_Walters.png P_M_Gordon_Brown.png"
3409,"P_F_nicola_sturge.png","P_M_Gordon_Brown.png","TRUE","pictures/stimuli/P","pictures/stimuli/P","F","M","3","5d66849f0e3ff20016f36599","10/27/2022, 13:42:44",-1.01396542014435,"30","Male","right",1,0,0,0,TRUE,"P_F_nicola_sturge.png P_M_Gordon_Brown.png"
5155,"P_M_Gordon_Brown.png","P_M_Michael_Gove.png","TRUE","pictures/stimuli/P","pictures/stimuli/P","M","M","6","5d66849f0e3ff20016f36599","10/27/2022, 13:42:44",0.958595294812237,"30","Male","right",0,0,0,0,TRUE,"P_M_Gordon_Brown.png P_M_Michael_Gove.png"
2788,"E_F_Dawn_Roma_French.png","P_F_nicola_sturge.png","FALSE","pictures/stimuli/E","pictures/stimuli/P","F","F","4","5d66849f0e3ff20016f36599","10/27/2022, 13:42:44",-0.356445181825489,"30","Male","right",0,1,0,0,TRUE,"E_F_Dawn_Roma_French.png P_F_nicola_sturge.png"
4039,"E_F_Jennifer_Saunders.png","P_F_Theresa_May.png","FALSE","pictures/stimuli/E","pictures/stimuli/P","F","F","4","5d66849f0e3ff20016f36599","10/27/2022, 13:42:44",-0.356445181825489,"30","Male","right",0,0,0,0,TRUE,"E_F_Jennifer_Saunders.png P_F_Theresa_May.png"
7428,"E_F_Jennifer_Saunders.png","E_M_Ewan_McGregor.png","TRUE","pictures/stimuli/E","pictures/stimuli/E","F","M","3","5d66849f0e3ff20016f36599","10/27/2022, 13:42:44",-1.01396542014435,"30","Male","right",0,0,0,0,TRUE,"E_F_Jennifer_Saunders.png E_M_Ewan_McGregor.png"
5356,"E_F_Sarah_Millican.png","E_M_Ewan_McGregor.png","TRUE","pictures/stimuli/E","pictures/stimuli/E","F","M","6","5d66849f0e3ff20016f36599","10/27/2022, 13:42:44",0.958595294812237,"30","Male","right",0,0,0,0,TRUE,"E_F_Sarah_Millican.png E_M_Ewan_McGregor.png"
5283,"E_F_Dawn_Roma_French.png","P_M_keir_starmer.png","FALSE","pictures/stimuli/E","pictures/stimuli/P","F","M","5","5d66849f0e3ff20016f36599","10/27/2022, 13:42:44",0.301075056493374,"30","Male","right",0,0,0,0,TRUE,"E_F_Dawn_Roma_French.png P_M_keir_starmer.png"
4624,"E_F_Sarah_Millican.png","P_F_nicola_sturge.png","FALSE","pictures/stimuli/E","pictures/stimuli/P","F","F","6","5d66849f0e3ff20016f36599","10/27/2022, 13:42:44",0.958595294812237,"30","Male","right",0,1,0,0,TRUE,"E_F_Sarah_Millican.png P_F_nicola_sturge.png"
3388,"E_F_Julie_Walters.png","P_M_keir_starmer.png","FALSE","pictures/stimuli/E","pictures/stimuli/P","F","M","4","5d66849f0e3ff20016f36599","10/27/2022, 13:42:44",-0.356445181825489,"30","Male","right",1,0,0,0,TRUE,"E_F_Julie_Walters.png P_M_keir_starmer.png"
4533,"E_F_Julie_Walters.png","E_M_Ewan_McGregor.png","TRUE","pictures/stimuli/E","pictures/stimuli/E","F","M","4","5d66849f0e3ff20016f36599","10/27/2022, 13:42:44",-0.356445181825489,"30","Male","right",1,0,0,0,TRUE,"E_F_Julie_Walters.png E_M_Ewan_McGregor.png"
2706,"P_M_jeremy_corbyn.png","P_M_keir_starmer.png","TRUE","pictures/stimuli/P","pictures/stimuli/P","M","M","6","5d66849f0e3ff20016f36599","10/27/2022, 13:42:44",0.958595294812237,"30","Male","right",0,0,0,0,TRUE,"P_M_jeremy_corbyn.png P_M_keir_starmer.png"
2671,"E_F_Jennifer_Saunders.png","E_M_Jimmy_Carr.png","TRUE","pictures/stimuli/E","pictures/stimuli/E","F","M","6","5d66849f0e3ff20016f36599","10/27/2022, 13:42:44",0.958595294812237,"30","Male","right",0,0,0,0,TRUE,"E_F_Jennifer_Saunders.png E_M_Jimmy_Carr.png"
2906,"E_F_Dawn_Roma_French.png","P_M_Tony_Blair.png","FALSE","pictures/stimuli/E","pictures/stimuli/P","F","M","5","5d66849f0e3ff20016f36599","10/27/2022, 13:42:44",0.301075056493374,"30","Male","right",0,0,0,0,TRUE,"E_F_Dawn_Roma_French.png P_M_Tony_Blair.png"
2566,"E_F_Jennifer_Saunders.png","E_M_Peter_Kay.png","TRUE","pictures/stimuli/E","pictures/stimuli/E","F","M","6","5d66849f0e3ff20016f36599","10/27/2022, 13:42:44",0.958595294812237,"30","Male","right",0,0,0,0,TRUE,"E_F_Jennifer_Saunders.png E_M_Peter_Kay.png"
4275,"E_M_Russell_Howard.png","P_M_nigel_farage.png","FALSE","pictures/stimuli/E","pictures/stimuli/P","M","M","3","5d66849f0e3ff20016f36599","10/27/2022, 13:42:44",-1.01396542014435,"30","Male","right",0,1,0,0,TRUE,"E_M_Russell_Howard.png P_M_nigel_farage.png"
3257,"E_F_Julie_Walters.png","E_M_Simon_Pegg.png","TRUE","pictures/stimuli/E","pictures/stimuli/E","F","M","3","5d66849f0e3ff20016f36599","10/27/2022, 13:42:44",-1.01396542014435,"30","Male","right",1,0,0,0,TRUE,"E_F_Julie_Walters.png E_M_Simon_Pegg.png"
2273,"E_F_Dawn_Roma_French.png","E_F_Jennifer_Saunders.png","TRUE","pictures/stimuli/E","pictures/stimuli/E","F","F","6","5d66849f0e3ff20016f36599","10/27/2022, 13:42:44",0.958595294812237,"30","Male","right",0,0,0,0,TRUE,"E_F_Dawn_Roma_French.png E_F_Jennifer_Saunders.png"
4256,"E_M_Simon_Pegg.png","P_F_nicola_sturge.png","FALSE","pictures/stimuli/E","pictures/stimuli/P","M","F","4","5d66849f0e3ff20016f36599","10/27/2022, 13:42:44",-0.356445181825489,"30","Male","right",0,1,0,0,TRUE,"E_M_Simon_Pegg.png P_F_nicola_sturge.png"
4544,"E_F_Julie_Walters.png","E_M_Michael_McIntyr.png","TRUE","pictures/stimuli/E","pictures/stimuli/E","F","M","3","5d66849f0e3ff20016f36599","10/27/2022, 13:42:44",-1.01396542014435,"30","Male","right",1,0,0,0,TRUE,"E_F_Julie_Walters.png E_M_Michael_McIntyr.png"
2037,"E_F_Sarah_Millican.png","P_M_david_camer.png","FALSE","pictures/stimuli/E","pictures/stimuli/P","F","M","6","5d66849f0e3ff20016f36599","10/27/2022, 13:42:44",0.958595294812237,"30","Male","right",0,1,0,0,TRUE,"E_F_Sarah_Millican.png P_M_david_camer.png"
4224,"E_M_Russell_Howard.png","P_M_Gordon_Brown.png","FALSE","pictures/stimuli/E","pictures/stimuli/P","M","M","6","5d66849f0e3ff20016f36599","10/27/2022, 13:42:44",0.958595294812237,"30","Male","right",0,0,0,0,TRUE,"E_M_Russell_Howard.png P_M_Gordon_Brown.png"
5424,"E_F_Julie_Walters.png","P_M_jeremy_corbyn.png","FALSE","pictures/stimuli/E","pictures/stimuli/P","F","M","4","5d66849f0e3ff20016f36599","10/27/2022, 13:42:44",-0.356445181825489,"30","Male","right",1,0,0,0,TRUE,"E_F_Julie_Walters.png P_M_jeremy_corbyn.png"
5825,"E_F_Jennifer_Saunders.png","P_M_jeremy_corbyn.png","FALSE","pictures/stimuli/E","pictures/stimuli/P","F","M","6","5d66849f0e3ff20016f36599","10/27/2022, 13:42:44",0.958595294812237,"30","Male","right",0,0,0,0,TRUE,"E_F_Jennifer_Saunders.png P_M_jeremy_corbyn.png"
3898,"E_F_Jennifer_Saunders.png","P_M_david_camer.png","FALSE","pictures/stimuli/E","pictures/stimuli/P","F","M","3","5d66849f0e3ff20016f36599","10/27/2022, 13:42:44",-1.01396542014435,"30","Male","right",0,1,0,0,TRUE,"E_F_Jennifer_Saunders.png P_M_david_camer.png"
1818,"E_M_Russell_Howard.png","P_M_Michael_Gove.png","FALSE","pictures/stimuli/E","pictures/stimuli/P","M","M","6","5d66849f0e3ff20016f36599","10/27/2022, 13:42:44",0.958595294812237,"30","Male","right",0,0,0,0,TRUE,"E_M_Russell_Howard.png P_M_Michael_Gove.png"
3445,"P_M_david_camer.png","P_M_Gordon_Brown.png","TRUE","pictures/stimuli/P","pictures/stimuli/P","M","M","4","5d66849f0e3ff20016f36599","10/27/2022, 13:42:44",-0.356445181825489,"30","Male","right",1,0,0,0,TRUE,"P_M_david_camer.png P_M_Gordon_Brown.png"
2598,"E_F_Dawn_Roma_French.png","P_M_Sajid_Javid.png","FALSE","pictures/stimuli/E","pictures/stimuli/P","F","M","6","5d66849f0e3ff20016f36599","10/27/2022, 13:42:44",0.958595294812237,"30","Male","right",0,0,0,0,TRUE,"E_F_Dawn_Roma_French.png P_M_Sajid_Javid.png"
1945,"E_F_Dawn_Roma_French.png","E_M_Russell_Howard.png","TRUE","pictures/stimuli/E","pictures/stimuli/E","F","M","6","5d66849f0e3ff20016f36599","10/27/2022, 13:42:44",0.958595294812237,"30","Male","right",0,0,0,0,TRUE,"E_F_Dawn_Roma_French.png E_M_Russell_Howard.png"
2660,"E_M_Ewan_McGregor.png","P_M_david_camer.png","FALSE","pictures/stimuli/E","pictures/stimuli/P","M","M","3","5d66849f0e3ff20016f36599","10/27/2022, 13:42:44",-1.01396542014435,"30","Male","right",0,1,0,0,TRUE,"E_M_Ewan_McGregor.png P_M_david_camer.png"
1598,"E_M_Ewan_McGregor.png","P_M_keir_starmer.png","FALSE","pictures/stimuli/E","pictures/stimuli/P","M","M","4","5d66849f0e3ff20016f36599","10/27/2022, 13:42:44",-0.356445181825489,"30","Male","right",0,0,0,0,TRUE,"E_M_Ewan_McGregor.png P_M_keir_starmer.png"
2201,"E_M_Peter_Kay.png","E_M_Russell_Howard.png","TRUE","pictures/stimuli/E","pictures/stimuli/E","M","M","6","5d66849f0e3ff20016f36599","10/27/2022, 13:42:44",0.958595294812237,"30","Male","right",0,0,0,0,TRUE,"E_M_Peter_Kay.png E_M_Russell_Howard.png"
2673,"E_F_Julie_Walters.png","P_M_nigel_farage.png","FALSE","pictures/stimuli/E","pictures/stimuli/P","F","M","4","5d66849f0e3ff20016f36599","10/27/2022, 13:42:44",-0.356445181825489,"30","Male","right",1,1,0,0,TRUE,"E_F_Julie_Walters.png P_M_nigel_farage.png"
2211,"E_M_Jimmy_Carr.png","E_M_Michael_McIntyr.png","TRUE","pictures/stimuli/E","pictures/stimuli/E","M","M","5","5d66849f0e3ff20016f36599","10/27/2022, 13:42:44",0.301075056493374,"30","Male","right",0,0,0,0,TRUE,"E_M_Jimmy_Carr.png E_M_Michael_McIntyr.png"
6361,"E_M_Ewan_McGregor.png","P_M_Michael_Gove.png","FALSE","pictures/stimuli/E","pictures/stimuli/P","M","M","6","5d66849f0e3ff20016f36599","10/27/2022, 13:42:44",0.958595294812237,"30","Male","right",0,0,0,0,TRUE,"E_M_Ewan_McGregor.png P_M_Michael_Gove.png"
2889,"E_F_Sarah_Millican.png","P_M_jeremy_corbyn.png","FALSE","pictures/stimuli/E","pictures/stimuli/P","F","M","4","5d66849f0e3ff20016f36599","10/27/2022, 13:42:44",-0.356445181825489,"30","Male","right",0,0,0,0,TRUE,"E_F_Sarah_Millican.png P_M_jeremy_corbyn.png"
3050,"P_M_jeremy_corbyn.png","P_M_Michael_Gove.png","TRUE","pictures/stimuli/P","pictures/stimuli/P","M","M","3","5d66849f0e3ff20016f36599","10/27/2022, 13:42:44",-1.01396542014435,"30","Male","right",0,0,0,0,TRUE,"P_M_jeremy_corbyn.png P_M_Michael_Gove.png"
3298,"E_M_Simon_Pegg.png","P_M_jeremy_corbyn.png","FALSE","pictures/stimuli/E","pictures/stimuli/P","M","M","5","5d66849f0e3ff20016f36599","10/27/2022, 13:42:44",0.301075056493374,"30","Male","right",0,0,0,0,TRUE,"E_M_Simon_Pegg.png P_M_jeremy_corbyn.png"
2027,"E_F_Jennifer_Saunders.png","E_F_Sarah_Millican.png","TRUE","pictures/stimuli/E","pictures/stimuli/E","F","F","6","5d66849f0e3ff20016f36599","10/27/2022, 13:42:44",0.958595294812237,"30","Male","right",0,0,0,0,TRUE,"E_F_Jennifer_Saunders.png E_F_Sarah_Millican.png"
4837,"P_M_nigel_farage.png","P_M_Sajid_Javid.png","TRUE","pictures/stimuli/P","pictures/stimuli/P","M","M","4","5d66849f0e3ff20016f36599","10/27/2022, 13:42:44",-0.356445181825489,"30","Male","right",1,0,0,0,TRUE,"P_M_nigel_farage.png P_M_Sajid_Javid.png"
3661,"E_M_Jimmy_Carr.png","P_M_keir_starmer.png","FALSE","pictures/stimuli/E","pictures/stimuli/P","M","M","3","5d66849f0e3ff20016f36599","10/27/2022, 13:42:44",-1.01396542014435,"30","Male","right",0,0,0,0,TRUE,"E_M_Jimmy_Carr.png P_M_keir_starmer.png"
3529,"E_M_Peter_Kay.png","P_M_Michael_Gove.png","FALSE","pictures/stimuli/E","pictures/stimuli/P","M","M","6","5d66849f0e3ff20016f36599","10/27/2022, 13:42:44",0.958595294812237,"30","Male","right",0,0,0,0,TRUE,"E_M_Peter_Kay.png P_M_Michael_Gove.png"
6183,"E_M_Ewan_McGregor.png","P_M_Tony_Blair.png","FALSE","pictures/stimuli/E","pictures/stimuli/P","M","M","2","5d66849f0e3ff20016f36599","10/27/2022, 13:42:44",-1.67148565846322,"30","Male","right",0,0,0,0,TRUE,"E_M_Ewan_McGregor.png P_M_Tony_Blair.png"
5721,"P_F_nicola_sturge.png","P_M_jeremy_corbyn.png","TRUE","pictures/stimuli/P","pictures/stimuli/P","F","M","4","5d66849f0e3ff20016f36599","10/27/2022, 13:42:44",-0.356445181825489,"30","Male","right",1,0,0,0,TRUE,"P_F_nicola_sturge.png P_M_jeremy_corbyn.png"
4463,"E_F_Dawn_Roma_French.png","P_M_david_camer.png","FALSE","pictures/stimuli/E","pictures/stimuli/P","F","M","6","5d66849f0e3ff20016f36599","10/27/2022, 13:42:44",0.958595294812237,"30","Male","right",0,1,0,0,TRUE,"E_F_Dawn_Roma_French.png P_M_david_camer.png"
4737,"E_M_Michael_McIntyr.png","P_F_nicola_sturge.png","FALSE","pictures/stimuli/E","pictures/stimuli/P","M","F","5","5d66849f0e3ff20016f36599","10/27/2022, 13:42:44",0.301075056493374,"30","Male","right",0,1,0,0,TRUE,"E_M_Michael_McIntyr.png P_F_nicola_sturge.png"
2933,"P_M_david_camer.png","P_M_keir_starmer.png","TRUE","pictures/stimuli/P","pictures/stimuli/P","M","M","3","5d66849f0e3ff20016f36599","10/27/2022, 13:42:44",-1.01396542014435,"30","Male","right",1,0,0,0,TRUE,"P_M_david_camer.png P_M_keir_starmer.png"
3932,"E_M_Peter_Kay.png","P_M_nigel_farage.png","FALSE","pictures/stimuli/E","pictures/stimuli/P","M","M","6","5d66849f0e3ff20016f36599","10/27/2022, 13:42:44",0.958595294812237,"30","Male","right",0,1,0,0,TRUE,"E_M_Peter_Kay.png P_M_nigel_farage.png"
5547,"E_M_Ewan_McGregor.png","E_M_Jimmy_Carr.png","TRUE","pictures/stimuli/E","pictures/stimuli/E","M","M","4","5d66849f0e3ff20016f36599","10/27/2022, 13:42:44",-0.356445181825489,"30","Male","right",0,0,0,0,TRUE,"E_M_Ewan_McGregor.png E_M_Jimmy_Carr.png"
2041,"E_M_Jimmy_Carr.png","P_M_Michael_Gove.png","FALSE","pictures/stimuli/E","pictures/stimuli/P","M","M","6","5d66849f0e3ff20016f36599","10/27/2022, 13:42:44",0.958595294812237,"30","Male","right",0,0,0,0,TRUE,"E_M_Jimmy_Carr.png P_M_Michael_Gove.png"
4670,"P_F_nicola_sturge.png","P_M_Michael_Gove.png","TRUE","pictures/stimuli/P","pictures/stimuli/P","F","M","5","5d66849f0e3ff20016f36599","10/27/2022, 13:42:44",0.301075056493374,"30","Male","right",1,0,0,0,TRUE,"P_F_nicola_sturge.png P_M_Michael_Gove.png"
4809,"E_M_Michael_McIntyr.png","P_M_Michael_Gove.png","FALSE","pictures/stimuli/E","pictures/stimuli/P","M","M","5","5d66849f0e3ff20016f36599","10/27/2022, 13:42:44",0.301075056493374,"30","Male","right",0,0,0,0,TRUE,"E_M_Michael_McIntyr.png P_M_Michael_Gove.png"
3660,"E_M_Michael_McIntyr.png","P_M_nigel_farage.png","FALSE","pictures/stimuli/E","pictures/stimuli/P","M","M","3","5d66849f0e3ff20016f36599","10/27/2022, 13:42:44",-1.01396542014435,"30","Male","right",0,1,0,0,TRUE,"E_M_Michael_McIntyr.png P_M_nigel_farage.png"
2560,"E_M_Michael_McIntyr.png","P_M_jeremy_corbyn.png","FALSE","pictures/stimuli/E","pictures/stimuli/P","M","M","4","5d66849f0e3ff20016f36599","10/27/2022, 13:42:44",-0.356445181825489,"30","Male","right",0,0,0,0,TRUE,"E_M_Michael_McIntyr.png P_M_jeremy_corbyn.png"
2905,"E_M_Ewan_McGregor.png","P_M_Sajid_Javid.png","FALSE","pictures/stimuli/E","pictures/stimuli/P","M","M","6","5d66849f0e3ff20016f36599","10/27/2022, 13:42:44",0.958595294812237,"30","Male","right",0,0,0,0,TRUE,"E_M_Ewan_McGregor.png P_M_Sajid_Javid.png"
2224,"E_F_Sarah_Millican.png","P_F_Theresa_May.png","FALSE","pictures/stimuli/E","pictures/stimuli/P","F","F","6","5d66849f0e3ff20016f36599","10/27/2022, 13:42:44",0.958595294812237,"30","Male","right",0,0,0,0,TRUE,"E_F_Sarah_Millican.png P_F_Theresa_May.png"
4346,"E_M_Jimmy_Carr.png","E_M_Russell_Howard.png","TRUE","pictures/stimuli/E","pictures/stimuli/E","M","M","6","5d66849f0e3ff20016f36599","10/27/2022, 13:42:44",0.958595294812237,"30","Male","right",0,0,0,0,TRUE,"E_M_Jimmy_Carr.png E_M_Russell_Howard.png"
2921,"E_F_Dawn_Roma_French.png","E_M_Simon_Pegg.png","TRUE","pictures/stimuli/E","pictures/stimuli/E","F","M","5","5d66849f0e3ff20016f36599","10/27/2022, 13:42:44",0.301075056493374,"30","Male","right",0,0,0,0,TRUE,"E_F_Dawn_Roma_French.png E_M_Simon_Pegg.png"
4327,"E_M_Jimmy_Carr.png","E_M_Simon_Pegg.png","TRUE","pictures/stimuli/E","pictures/stimuli/E","M","M","6","5d66849f0e3ff20016f36599","10/27/2022, 13:42:44",0.958595294812237,"30","Male","right",0,0,0,0,TRUE,"E_M_Jimmy_Carr.png E_M_Simon_Pegg.png"
4153,"E_M_Peter_Kay.png","P_M_david_camer.png","FALSE","pictures/stimuli/E","pictures/stimuli/P","M","M","2","5d66849f0e3ff20016f36599","10/27/2022, 13:42:44",-1.67148565846322,"30","Male","right",0,1,0,0,TRUE,"E_M_Peter_Kay.png P_M_david_camer.png"
4748,"P_M_Gordon_Brown.png","P_M_jeremy_corbyn.png","TRUE","pictures/stimuli/P","pictures/stimuli/P","M","M","5","5d66849f0e3ff20016f36599","10/27/2022, 13:42:44",0.301075056493374,"30","Male","right",0,0,0,0,TRUE,"P_M_Gordon_Brown.png P_M_jeremy_corbyn.png"
5737,"P_M_jeremy_corbyn.png","P_M_Tony_Blair.png","TRUE","pictures/stimuli/P","pictures/stimuli/P","M","M","2","5d66849f0e3ff20016f36599","10/27/2022, 13:42:44",-1.67148565846322,"30","Male","right",0,0,0,0,TRUE,"P_M_jeremy_corbyn.png P_M_Tony_Blair.png"
3842,"E_M_Jimmy_Carr.png","P_M_david_camer.png","FALSE","pictures/stimuli/E","pictures/stimuli/P","M","M","4","5d66849f0e3ff20016f36599","10/27/2022, 13:42:44",-0.356445181825489,"30","Male","right",0,1,0,0,TRUE,"E_M_Jimmy_Carr.png P_M_david_camer.png"
3165,"E_F_Dawn_Roma_French.png","E_F_Julie_Walters.png","TRUE","pictures/stimuli/E","pictures/stimuli/E","F","F","4","5d66849f0e3ff20016f36599","10/27/2022, 13:42:44",-0.356445181825489,"30","Male","right",0,1,0,0,TRUE,"E_F_Dawn_Roma_French.png E_F_Julie_Walters.png"
4337,"E_M_Russell_Howard.png","P_F_nicola_sturge.png","FALSE","pictures/stimuli/E","pictures/stimuli/P","M","F","5","5d66849f0e3ff20016f36599","10/27/2022, 13:42:44",0.301075056493374,"30","Male","right",0,1,0,0,TRUE,"E_M_Russell_Howard.png P_F_nicola_sturge.png"
7217,"E_M_Russell_Howard.png","E_M_Simon_Pegg.png","TRUE","pictures/stimuli/E","pictures/stimuli/E","M","M","5","5d66849f0e3ff20016f36599","10/27/2022, 13:42:44",0.301075056493374,"30","Male","right",0,0,0,0,TRUE,"E_M_Russell_Howard.png E_M_Simon_Pegg.png"
1941,"E_M_Jimmy_Carr.png","P_M_jeremy_corbyn.png","FALSE","pictures/stimuli/E","pictures/stimuli/P","M","M","6","5d66849f0e3ff20016f36599","10/27/2022, 13:42:44",0.958595294812237,"30","Male","right",0,0,0,0,TRUE,"E_M_Jimmy_Carr.png P_M_jeremy_corbyn.png"
1937,"P_M_keir_starmer.png","P_M_Sajid_Javid.png","TRUE","pictures/stimuli/P","pictures/stimuli/P","M","M","6","5d66849f0e3ff20016f36599","10/27/2022, 13:42:44",0.958595294812237,"30","Male","right",0,0,0,0,TRUE,"P_M_keir_starmer.png P_M_Sajid_Javid.png"
7188,"P_M_Gordon_Brown.png","P_M_nigel_farage.png","TRUE","pictures/stimuli/P","pictures/stimuli/P","M","M","4","5d66849f0e3ff20016f36599","10/27/2022, 13:42:44",-0.356445181825489,"30","Male","right",0,1,0,0,TRUE,"P_M_Gordon_Brown.png P_M_nigel_farage.png"
3413,"E_M_Russell_Howard.png","P_F_Theresa_May.png","FALSE","pictures/stimuli/E","pictures/stimuli/P","M","F","3","5d66849f0e3ff20016f36599","10/27/2022, 13:42:44",-1.01396542014435,"30","Male","right",0,0,0,0,TRUE,"E_M_Russell_Howard.png P_F_Theresa_May.png"
4185,"P_M_Michael_Gove.png","P_M_nigel_farage.png","TRUE","pictures/stimuli/P","pictures/stimuli/P","M","M","3","5d66849f0e3ff20016f36599","10/27/2022, 13:42:44",-1.01396542014435,"30","Male","right",0,1,0,0,TRUE,"P_M_Michael_Gove.png P_M_nigel_farage.png"
3592,"E_F_Dawn_Roma_French.png","P_M_Gordon_Brown.png","FALSE","pictures/stimuli/E","pictures/stimuli/P","F","M","3","5d66849f0e3ff20016f36599","10/27/2022, 13:42:44",-1.01396542014435,"30","Male","right",0,0,0,0,TRUE,"E_F_Dawn_Roma_French.png P_M_Gordon_Brown.png"
3000,"E_F_Jennifer_Saunders.png","P_M_Tony_Blair.png","FALSE","pictures/stimuli/E","pictures/stimuli/P","F","M","2","5d66849f0e3ff20016f36599","10/27/2022, 13:42:44",-1.67148565846322,"30","Male","right",0,0,0,0,TRUE,"E_F_Jennifer_Saunders.png P_M_Tony_Blair.png"
3545,"P_M_david_camer.png","P_M_nigel_farage.png","TRUE","pictures/stimuli/P","pictures/stimuli/P","M","M","5","5d66849f0e3ff20016f36599","10/27/2022, 13:42:44",0.301075056493374,"30","Male","right",1,1,0,0,TRUE,"P_M_david_camer.png P_M_nigel_farage.png"
6111,"E_M_Ewan_McGregor.png","P_F_Theresa_May.png","FALSE","pictures/stimuli/E","pictures/stimuli/P","M","F","4","5d66849f0e3ff20016f36599","10/27/2022, 13:42:44",-0.356445181825489,"30","Male","right",0,0,0,0,TRUE,"E_M_Ewan_McGregor.png P_F_Theresa_May.png"
4341,"E_F_Julie_Walters.png","P_F_nicola_sturge.png","FALSE","pictures/stimuli/E","pictures/stimuli/P","F","F","3","5d66849f0e3ff20016f36599","10/27/2022, 13:42:44",-1.01396542014435,"30","Male","right",1,1,0,0,TRUE,"E_F_Julie_Walters.png P_F_nicola_sturge.png"
3492,"E_F_Jennifer_Saunders.png","P_M_keir_starmer.png","FALSE","pictures/stimuli/E","pictures/stimuli/P","F","M","3","5d66849f0e3ff20016f36599","10/27/2022, 13:42:44",-1.01396542014435,"30","Male","right",0,0,0,0,TRUE,"E_F_Jennifer_Saunders.png P_M_keir_starmer.png"
5177,"E_M_Russell_Howard.png","P_M_Tony_Blair.png","FALSE","pictures/stimuli/E","pictures/stimuli/P","M","M","2","5d66849f0e3ff20016f36599","10/27/2022, 13:42:44",-1.67148565846322,"30","Male","right",0,0,0,0,TRUE,"E_M_Russell_Howard.png P_M_Tony_Blair.png"
3714,"E_M_Michael_McIntyr.png","E_M_Peter_Kay.png","TRUE","pictures/stimuli/E","pictures/stimuli/E","M","M","3","5d66849f0e3ff20016f36599","10/27/2022, 13:42:44",-1.01396542014435,"30","Male","right",0,0,0,0,TRUE,"E_M_Michael_McIntyr.png E_M_Peter_Kay.png"
4696,"E_M_Simon_Pegg.png","P_F_Theresa_May.png","FALSE","pictures/stimuli/E","pictures/stimuli/P","M","F","3","5d66849f0e3ff20016f36599","10/27/2022, 13:42:44",-1.01396542014435,"30","Male","right",0,0,0,0,TRUE,"E_M_Simon_Pegg.png P_F_Theresa_May.png"
8080,"E_F_Julie_Walters.png","E_F_Sarah_Millican.png","TRUE","pictures/stimuli/E","pictures/stimuli/E","F","F","5","5d66849f0e3ff20016f36599","10/27/2022, 13:42:44",0.301075056493374,"30","Male","right",1,0,0,0,TRUE,"E_F_Julie_Walters.png E_F_Sarah_Millican.png"
4027,"E_F_Sarah_Millican.png","P_M_Gordon_Brown.png","FALSE","pictures/stimuli/E","pictures/stimuli/P","F","M","6","5d66849f0e3ff20016f36599","10/27/2022, 13:42:44",0.958595294812237,"30","Male","right",0,0,0,0,TRUE,"E_F_Sarah_Millican.png P_M_Gordon_Brown.png"
3027,"E_M_Simon_Pegg.png","P_M_Gordon_Brown.png","FALSE","pictures/stimuli/E","pictures/stimuli/P","M","M","6","5d66849f0e3ff20016f36599","10/27/2022, 13:42:44",0.958595294812237,"30","Male","right",0,0,0,0,TRUE,"E_M_Simon_Pegg.png P_M_Gordon_Brown.png"
6232,"E_M_Jimmy_Carr.png","P_F_nicola_sturge.png","FALSE","pictures/stimuli/E","pictures/stimuli/P","M","F","5","5d66849f0e3ff20016f36599","10/27/2022, 13:42:44",0.301075056493374,"30","Male","right",0,1,0,0,TRUE,"E_M_Jimmy_Carr.png P_F_nicola_sturge.png"
4030,"E_M_Peter_Kay.png","P_M_Gordon_Brown.png","FALSE","pictures/stimuli/E","pictures/stimuli/P","M","M","1","5d66849f0e3ff20016f36599","10/27/2022, 13:42:44",-2.32900589678208,"30","Male","right",0,0,0,0,TRUE,"E_M_Peter_Kay.png P_M_Gordon_Brown.png"
3125,"P_M_david_camer.png","P_M_Tony_Blair.png","TRUE","pictures/stimuli/P","pictures/stimuli/P","M","M","1","5d66849f0e3ff20016f36599","10/27/2022, 13:42:44",-2.32900589678208,"30","Male","right",1,0,0,0,TRUE,"P_M_david_camer.png P_M_Tony_Blair.png"
4113,"E_F_Dawn_Roma_French.png","E_M_Michael_McIntyr.png","TRUE","pictures/stimuli/E","pictures/stimuli/E","F","M","2","5d66849f0e3ff20016f36599","10/27/2022, 13:42:44",-1.67148565846322,"30","Male","right",0,0,0,0,TRUE,"E_F_Dawn_Roma_French.png E_M_Michael_McIntyr.png"
3664,"P_M_keir_starmer.png","P_M_nigel_farage.png","TRUE","pictures/stimuli/P","pictures/stimuli/P","M","M","3","5d66849f0e3ff20016f36599","10/27/2022, 13:42:44",-1.01396542014435,"30","Male","right",0,1,0,0,TRUE,"P_M_keir_starmer.png P_M_nigel_farage.png"
3760,"P_M_david_camer.png","P_M_jeremy_corbyn.png","TRUE","pictures/stimuli/P","pictures/stimuli/P","M","M","4","5d66849f0e3ff20016f36599","10/27/2022, 13:42:44",-0.356445181825489,"30","Male","right",1,0,0,0,TRUE,"P_M_david_camer.png P_M_jeremy_corbyn.png"
3182,"E_M_Peter_Kay.png","P_M_keir_starmer.png","FALSE","pictures/stimuli/E","pictures/stimuli/P","M","M","4","5d66849f0e3ff20016f36599","10/27/2022, 13:42:44",-0.356445181825489,"30","Male","right",0,0,0,0,TRUE,"E_M_Peter_Kay.png P_M_keir_starmer.png"
2519,"E_M_Peter_Kay.png","E_M_Simon_Pegg.png","TRUE","pictures/stimuli/E","pictures/stimuli/E","M","M","6","5d66849f0e3ff20016f36599","10/27/2022, 13:42:44",0.958595294812237,"30","Male","right",0,0,0,0,TRUE,"E_M_Peter_Kay.png E_M_Simon_Pegg.png"
4852,"E_F_Sarah_Millican.png","E_M_Jimmy_Carr.png","TRUE","pictures/stimuli/E","pictures/stimuli/E","F","M","5","5d66849f0e3ff20016f36599","10/27/2022, 13:42:44",0.301075056493374,"30","Male","right",0,0,0,0,TRUE,"E_F_Sarah_Millican.png E_M_Jimmy_Carr.png"
3719,"P_M_keir_starmer.png","P_M_Michael_Gove.png","TRUE","pictures/stimuli/P","pictures/stimuli/P","M","M","6","5d66849f0e3ff20016f36599","10/27/2022, 13:42:44",0.958595294812237,"30","Male","right",0,0,0,0,TRUE,"P_M_keir_starmer.png P_M_Michael_Gove.png"
2865,"E_M_Jimmy_Carr.png","P_M_nigel_farage.png","FALSE","pictures/stimuli/E","pictures/stimuli/P","M","M","5","5d66849f0e3ff20016f36599","10/27/2022, 13:42:44",0.301075056493374,"30","Male","right",0,1,0,0,TRUE,"E_M_Jimmy_Carr.png P_M_nigel_farage.png"
15338,"E_F_Sarah_Millican.png","P_M_nigel_farage.png","FALSE","pictures/stimuli/E","pictures/stimuli/P","F","M","6","5d66849f0e3ff20016f36599","10/27/2022, 13:42:44",0.958595294812237,"30","Male","right",0,1,0,0,TRUE,"E_F_Sarah_Millican.png P_M_nigel_farage.png"
9248,"E_M_Michael_McIntyr.png","P_M_Tony_Blair.png","FALSE","pictures/stimuli/E","pictures/stimuli/P","M","M","5","5d66849f0e3ff20016f36599","10/27/2022, 13:42:44",0.301075056493374,"30","Male","right",0,0,0,0,TRUE,"E_M_Michael_McIntyr.png P_M_Tony_Blair.png"
3228,"E_F_Julie_Walters.png","P_M_Tony_Blair.png","FALSE","pictures/stimuli/E","pictures/stimuli/P","F","M","4","5d66849f0e3ff20016f36599","10/27/2022, 13:42:44",-0.356445181825489,"30","Male","right",1,0,0,0,TRUE,"E_F_Julie_Walters.png P_M_Tony_Blair.png"
2493,"E_M_Peter_Kay.png","P_M_Tony_Blair.png","FALSE","pictures/stimuli/E","pictures/stimuli/P","M","M","6","5d66849f0e3ff20016f36599","10/27/2022, 13:42:44",0.958595294812237,"30","Male","right",0,0,0,0,TRUE,"E_M_Peter_Kay.png P_M_Tony_Blair.png"
2207,"E_M_Jimmy_Carr.png","P_M_Sajid_Javid.png","FALSE","pictures/stimuli/E","pictures/stimuli/P","M","M","5","5d66849f0e3ff20016f36599","10/27/2022, 13:42:44",0.301075056493374,"30","Male","right",0,0,0,0,TRUE,"E_M_Jimmy_Carr.png P_M_Sajid_Javid.png"
14476,"P_F_nicola_sturge.png","P_F_Theresa_May.png","TRUE","pictures/stimuli/P","pictures/stimuli/P","F","F","2","5d66849f0e3ff20016f36599","10/27/2022, 13:42:44",-1.67148565846322,"30","Male","right",1,0,0,0,TRUE,"P_F_nicola_sturge.png P_F_Theresa_May.png"
3505,"E_F_Julie_Walters.png","P_M_david_camer.png","FALSE","pictures/stimuli/E","pictures/stimuli/P","F","M","4","5d66849f0e3ff20016f36599","10/27/2022, 13:42:44",-0.356445181825489,"30","Male","right",1,1,0,0,TRUE,"E_F_Julie_Walters.png P_M_david_camer.png"
2901,"E_M_Ewan_McGregor.png","P_M_nigel_farage.png","FALSE","pictures/stimuli/E","pictures/stimuli/P","M","M","6","5d66849f0e3ff20016f36599","10/27/2022, 13:42:44",0.958595294812237,"30","Male","right",0,1,0,0,TRUE,"E_M_Ewan_McGregor.png P_M_nigel_farage.png"
3942,"P_M_jeremy_corbyn.png","P_M_Sajid_Javid.png","TRUE","pictures/stimuli/P","pictures/stimuli/P","M","M","6","5d66849f0e3ff20016f36599","10/27/2022, 13:42:44",0.958595294812237,"30","Male","right",0,0,0,0,TRUE,"P_M_jeremy_corbyn.png P_M_Sajid_Javid.png"
2293,"P_F_Theresa_May.png","P_M_Michael_Gove.png","TRUE","pictures/stimuli/P","pictures/stimuli/P","F","M","6","5d66849f0e3ff20016f36599","10/27/2022, 13:42:44",0.958595294812237,"30","Male","right",0,0,0,0,TRUE,"P_F_Theresa_May.png P_M_Michael_Gove.png"
2177,"E_M_Peter_Kay.png","P_F_nicola_sturge.png","FALSE","pictures/stimuli/E","pictures/stimuli/P","M","F","6","5d66849f0e3ff20016f36599","10/27/2022, 13:42:44",0.958595294812237,"30","Male","right",0,1,0,0,TRUE,"E_M_Peter_Kay.png P_F_nicola_sturge.png"
8546,"E_F_Jennifer_Saunders.png","E_M_Michael_McIntyr.png","TRUE","pictures/stimuli/E","pictures/stimuli/E","F","M","6","5d66849f0e3ff20016f36599","10/27/2022, 13:42:44",0.958595294812237,"30","Male","right",0,0,0,0,TRUE,"E_F_Jennifer_Saunders.png E_M_Michael_McIntyr.png"
13236,"E_F_Dawn_Roma_French.png","P_M_nigel_farage.png","FALSE","pictures/stimuli/E","pictures/stimuli/P","F","M","6","5d66849f0e3ff20016f36599","10/27/2022, 13:42:44",0.958595294812237,"30","Male","right",0,1,0,0,TRUE,"E_F_Dawn_Roma_French.png P_M_nigel_farage.png"
4200,"P_F_Theresa_May.png","P_M_david_camer.png","TRUE","pictures/stimuli/P","pictures/stimuli/P","F","M","5","5d66849f0e3ff20016f36599","10/27/2022, 13:42:44",0.301075056493374,"30","Male","right",0,1,0,0,TRUE,"P_F_Theresa_May.png P_M_david_camer.png"
2457,"E_M_Simon_Pegg.png","P_M_nigel_farage.png","FALSE","pictures/stimuli/E","pictures/stimuli/P","M","M","6","5d66849f0e3ff20016f36599","10/27/2022, 13:42:44",0.958595294812237,"30","Male","right",0,1,0,0,TRUE,"E_M_Simon_Pegg.png P_M_nigel_farage.png"
3500,"E_F_Julie_Walters.png","E_M_Russell_Howard.png","TRUE","pictures/stimuli/E","pictures/stimuli/E","F","M","5","5d66849f0e3ff20016f36599","10/27/2022, 13:42:44",0.301075056493374,"30","Male","right",1,0,0,0,TRUE,"E_F_Julie_Walters.png E_M_Russell_Howard.png"
5996,"E_F_Sarah_Millican.png","P_M_keir_starmer.png","FALSE","pictures/stimuli/E","pictures/stimuli/P","F","M","4","5d66849f0e3ff20016f36599","10/27/2022, 13:42:44",-0.356445181825489,"30","Male","right",0,0,0,0,TRUE,"E_F_Sarah_Millican.png P_M_keir_starmer.png"
2159,"P_M_Gordon_Brown.png","P_M_Sajid_Javid.png","TRUE","pictures/stimuli/P","pictures/stimuli/P","M","M","6","5d66849f0e3ff20016f36599","10/27/2022, 13:42:44",0.958595294812237,"30","Male","right",0,0,0,0,TRUE,"P_M_Gordon_Brown.png P_M_Sajid_Javid.png"
2846,"E_M_Simon_Pegg.png","P_M_david_camer.png","FALSE","pictures/stimuli/E","pictures/stimuli/P","M","M","4","5d66849f0e3ff20016f36599","10/27/2022, 13:42:44",-0.356445181825489,"30","Male","right",0,1,0,0,TRUE,"E_M_Simon_Pegg.png P_M_david_camer.png"
3436,"E_M_Michael_McIntyr.png","P_F_Theresa_May.png","FALSE","pictures/stimuli/E","pictures/stimuli/P","M","F","4","5d66849f0e3ff20016f36599","10/27/2022, 13:42:44",-0.356445181825489,"30","Male","right",0,0,0,0,TRUE,"E_M_Michael_McIntyr.png P_F_Theresa_May.png"
3802,"P_M_Gordon_Brown.png","P_M_keir_starmer.png","TRUE","pictures/stimuli/P","pictures/stimuli/P","M","M","1","5d66849f0e3ff20016f36599","10/27/2022, 13:42:44",-2.32900589678208,"30","Male","right",0,0,0,0,TRUE,"P_M_Gordon_Brown.png P_M_keir_starmer.png"
2852,"P_M_david_camer.png","P_M_Sajid_Javid.png","TRUE","pictures/stimuli/P","pictures/stimuli/P","M","M","6","5d66849f0e3ff20016f36599","10/27/2022, 13:42:44",0.958595294812237,"30","Male","right",1,0,0,0,TRUE,"P_M_david_camer.png P_M_Sajid_Javid.png"
2259,"P_F_nicola_sturge.png","P_M_Tony_Blair.png","TRUE","pictures/stimuli/P","pictures/stimuli/P","F","M","6","5d66849f0e3ff20016f36599","10/27/2022, 13:42:44",0.958595294812237,"30","Male","right",1,0,0,0,TRUE,"P_F_nicola_sturge.png P_M_Tony_Blair.png"
1711,"E_M_Ewan_McGregor.png","E_M_Simon_Pegg.png","TRUE","pictures/stimuli/E","pictures/stimuli/E","M","M","5","5d66849f0e3ff20016f36599","10/27/2022, 13:42:44",0.301075056493374,"30","Male","right",0,0,0,0,TRUE,"E_M_Ewan_McGregor.png E_M_Simon_Pegg.png"
2401,"E_F_Dawn_Roma_French.png","P_M_Michael_Gove.png","FALSE","pictures/stimuli/E","pictures/stimuli/P","F","M","4","5d66849f0e3ff20016f36599","10/27/2022, 13:42:44",-0.356445181825489,"30","Male","right",0,0,0,0,TRUE,"E_F_Dawn_Roma_French.png P_M_Michael_Gove.png"
2463,"E_F_Sarah_Millican.png","E_M_Michael_McIntyr.png","TRUE","pictures/stimuli/E","pictures/stimuli/E","F","M","6","5d66849f0e3ff20016f36599","10/27/2022, 13:42:44",0.958595294812237,"30","Male","right",0,0,0,0,TRUE,"E_F_Sarah_Millican.png E_M_Michael_McIntyr.png"
3378,"P_M_nigel_farage.png","P_M_Tony_Blair.png","TRUE","pictures/stimuli/P","pictures/stimuli/P","M","M","2","5d66849f0e3ff20016f36599","10/27/2022, 13:42:44",-1.67148565846322,"30","Male","right",1,0,0,0,TRUE,"P_M_nigel_farage.png P_M_Tony_Blair.png"
2664,"E_M_Peter_Kay.png","P_M_jeremy_corbyn.png","FALSE","pictures/stimuli/E","pictures/stimuli/P","M","M","6","5d66849f0e3ff20016f36599","10/27/2022, 13:42:44",0.958595294812237,"30","Male","right",0,0,0,0,TRUE,"E_M_Peter_Kay.png P_M_jeremy_corbyn.png"
6630,"E_M_Ewan_McGregor.png","P_M_jeremy_corbyn.png","FALSE","pictures/stimuli/E","pictures/stimuli/P","M","M","3","5d66849f0e3ff20016f36599","10/27/2022, 13:42:44",-1.01396542014435,"30","Male","right",0,0,0,0,TRUE,"E_M_Ewan_McGregor.png P_M_jeremy_corbyn.png"
4784,"E_M_Peter_Kay.png","P_M_Sajid_Javid.png","FALSE","pictures/stimuli/E","pictures/stimuli/P","M","M","5","5d66849f0e3ff20016f36599","10/27/2022, 13:42:44",0.301075056493374,"30","Male","right",0,0,0,0,TRUE,"E_M_Peter_Kay.png P_M_Sajid_Javid.png"
5066,"E_F_Sarah_Millican.png","P_M_Tony_Blair.png","FALSE","pictures/stimuli/E","pictures/stimuli/P","F","M","6","5d66849f0e3ff20016f36599","10/27/2022, 13:42:44",0.958595294812237,"30","Male","right",0,0,0,0,TRUE,"E_F_Sarah_Millican.png P_M_Tony_Blair.png"
11000,"E_M_Ewan_McGregor.png","E_M_Russell_Howard.png","TRUE","pictures/stimuli/E","pictures/stimuli/E","M","M","2","5d66849f0e3ff20016f36599","10/27/2022, 13:42:44",-1.67148565846322,"30","Male","right",0,0,0,0,TRUE,"E_M_Ewan_McGregor.png E_M_Russell_Howard.png"
4438,"E_F_Dawn_Roma_French.png","P_F_Theresa_May.png","FALSE","pictures/stimuli/E","pictures/stimuli/P","F","F","3","5d66849f0e3ff20016f36599","10/27/2022, 13:42:44",-1.01396542014435,"30","Male","right",0,0,0,0,TRUE,"E_F_Dawn_Roma_French.png P_F_Theresa_May.png"
3129,"P_M_Gordon_Brown.png","P_M_Tony_Blair.png","TRUE","pictures/stimuli/P","pictures/stimuli/P","M","M","2","5d66849f0e3ff20016f36599","10/27/2022, 13:42:44",-1.67148565846322,"30","Male","right",0,0,0,0,TRUE,"P_M_Gordon_Brown.png P_M_Tony_Blair.png"
7579,"E_M_Jimmy_Carr.png","E_M_Peter_Kay.png","TRUE","pictures/stimuli/E","pictures/stimuli/E","M","M","6","5d66849f0e3ff20016f36599","10/27/2022, 13:42:44",0.958595294812237,"30","Male","right",0,0,0,0,TRUE,"E_M_Jimmy_Carr.png E_M_Peter_Kay.png"
2025,"E_M_Simon_Pegg.png","P_M_Sajid_Javid.png","FALSE","pictures/stimuli/E","pictures/stimuli/P","M","M","6","5d66849f0e3ff20016f36599","10/27/2022, 13:42:44",0.958595294812237,"30","Male","right",0,0,0,0,TRUE,"E_M_Simon_Pegg.png P_M_Sajid_Javid.png"
2319,"E_M_Ewan_McGregor.png","P_M_Gordon_Brown.png","FALSE","pictures/stimuli/E","pictures/stimuli/P","M","M","5","5d66849f0e3ff20016f36599","10/27/2022, 13:42:44",0.301075056493374,"30","Male","right",0,0,0,0,TRUE,"E_M_Ewan_McGregor.png P_M_Gordon_Brown.png"
3113,"E_M_Russell_Howard.png","P_M_david_camer.png","FALSE","pictures/stimuli/E","pictures/stimuli/P","M","M","3","5d66849f0e3ff20016f36599","10/27/2022, 13:42:44",-1.01396542014435,"30","Male","right",0,1,0,0,TRUE,"E_M_Russell_Howard.png P_M_david_camer.png"
2679,"P_M_Sajid_Javid.png","P_M_Tony_Blair.png","TRUE","pictures/stimuli/P","pictures/stimuli/P","M","M","5","5d66849f0e3ff20016f36599","10/27/2022, 13:42:44",0.301075056493374,"30","Male","right",0,0,0,0,TRUE,"P_M_Sajid_Javid.png P_M_Tony_Blair.png"
2460,"P_F_nicola_sturge.png","P_M_david_camer.png","TRUE","pictures/stimuli/P","pictures/stimuli/P","F","M","5","5d66849f0e3ff20016f36599","10/27/2022, 13:42:44",0.301075056493374,"30","Male","right",1,1,0,0,TRUE,"P_F_nicola_sturge.png P_M_david_camer.png"
3342,"E_M_Simon_Pegg.png","P_M_keir_starmer.png","FALSE","pictures/stimuli/E","pictures/stimuli/P","M","M","3","5d66849f0e3ff20016f36599","10/27/2022, 13:42:44",-1.01396542014435,"30","Male","right",0,0,0,0,TRUE,"E_M_Simon_Pegg.png P_M_keir_starmer.png"
3375,"E_M_Russell_Howard.png","P_M_keir_starmer.png","FALSE","pictures/stimuli/E","pictures/stimuli/P","M","M","2","5d66849f0e3ff20016f36599","10/27/2022, 13:42:44",-1.67148565846322,"30","Male","right",0,0,0,0,TRUE,"E_M_Russell_Howard.png P_M_keir_starmer.png"
2226,"E_F_Jennifer_Saunders.png","P_M_Sajid_Javid.png","FALSE","pictures/stimuli/E","pictures/stimuli/P","F","M","6","5d66849f0e3ff20016f36599","10/27/2022, 13:42:44",0.958595294812237,"30","Male","right",0,0,0,0,TRUE,"E_F_Jennifer_Saunders.png P_M_Sajid_Javid.png"
2225,"E_M_Jimmy_Carr.png","P_M_Gordon_Brown.png","FALSE","pictures/stimuli/E","pictures/stimuli/P","M","M","3","5d66849f0e3ff20016f36599","10/27/2022, 13:42:44",-1.01396542014435,"30","Male","right",0,0,0,0,TRUE,"E_M_Jimmy_Carr.png P_M_Gordon_Brown.png"
3233,"E_M_Peter_Kay.png","P_F_Theresa_May.png","FALSE","pictures/stimuli/E","pictures/stimuli/P","M","F","6","5d66849f0e3ff20016f36599","10/27/2022, 13:42:44",0.958595294812237,"30","Male","right",0,0,0,0,TRUE,"E_M_Peter_Kay.png P_F_Theresa_May.png"
1968,"E_F_Julie_Walters.png","E_M_Jimmy_Carr.png","TRUE","pictures/stimuli/E","pictures/stimuli/E","F","M","6","5d66849f0e3ff20016f36599","10/27/2022, 13:42:44",0.958595294812237,"30","Male","right",1,0,0,0,TRUE,"E_F_Julie_Walters.png E_M_Jimmy_Carr.png"
2988,"P_F_Theresa_May.png","P_M_Gordon_Brown.png","TRUE","pictures/stimuli/P","pictures/stimuli/P","F","M","6","5d66849f0e3ff20016f36599","10/27/2022, 13:42:44",0.958595294812237,"30","Male","right",0,0,0,0,TRUE,"P_F_Theresa_May.png P_M_Gordon_Brown.png"
8640,"E_F_Dawn_Roma_French.png","E_M_Ewan_McGregor.png","TRUE","pictures/stimuli/E","pictures/stimuli/E","F","M","3","5d66849f0e3ff20016f36599","10/27/2022, 13:42:44",-1.01396542014435,"30","Male","right",0,0,0,0,TRUE,"E_F_Dawn_Roma_French.png E_M_Ewan_McGregor.png"
3490,"E_F_Dawn_Roma_French.png","E_M_Jimmy_Carr.png","TRUE","pictures/stimuli/E","pictures/stimuli/E","F","M","6","5d66849f0e3ff20016f36599","10/27/2022, 13:42:44",0.958595294812237,"30","Male","right",0,0,0,0,TRUE,"E_F_Dawn_Roma_French.png E_M_Jimmy_Carr.png"
2190,"P_F_nicola_sturge.png","P_M_Sajid_Javid.png","TRUE","pictures/stimuli/P","pictures/stimuli/P","F","M","6","5d66849f0e3ff20016f36599","10/27/2022, 13:42:44",0.958595294812237,"30","Male","right",1,0,0,0,TRUE,"P_F_nicola_sturge.png P_M_Sajid_Javid.png"
4230,"E_M_Simon_Pegg.png","P_M_Tony_Blair.png","FALSE","pictures/stimuli/E","pictures/stimuli/P","M","M","3","5d66849f0e3ff20016f36599","10/27/2022, 13:42:44",-1.01396542014435,"30","Male","right",0,0,0,0,TRUE,"E_M_Simon_Pegg.png P_M_Tony_Blair.png"
2570,"E_F_Sarah_Millican.png","E_M_Simon_Pegg.png","TRUE","pictures/stimuli/E","pictures/stimuli/E","F","M","6","5d66849f0e3ff20016f36599","10/27/2022, 13:42:44",0.958595294812237,"30","Male","right",0,0,0,0,TRUE,"E_F_Sarah_Millican.png E_M_Simon_Pegg.png"
2762,"E_M_Michael_McIntyr.png","P_M_david_camer.png","FALSE","pictures/stimuli/E","pictures/stimuli/P","M","M","5","5d66849f0e3ff20016f36599","10/27/2022, 13:42:44",0.301075056493374,"30","Male","right",0,1,0,0,TRUE,"E_M_Michael_McIntyr.png P_M_david_camer.png"
2415,"E_F_Dawn_Roma_French.png","P_M_jeremy_corbyn.png","FALSE","pictures/stimuli/E","pictures/stimuli/P","F","M","6","5d66849f0e3ff20016f36599","10/27/2022, 13:42:44",0.958595294812237,"30","Male","right",0,0,0,0,TRUE,"E_F_Dawn_Roma_French.png P_M_jeremy_corbyn.png"
2135,"E_M_Russell_Howard.png","P_M_Sajid_Javid.png","FALSE","pictures/stimuli/E","pictures/stimuli/P","M","M","6","5d66849f0e3ff20016f36599","10/27/2022, 13:42:44",0.958595294812237,"30","Male","right",0,0,0,0,TRUE,"E_M_Russell_Howard.png P_M_Sajid_Javid.png"
6090,"E_M_Russell_Howard.png","P_M_jeremy_corbyn.png","FALSE","pictures/stimuli/E","pictures/stimuli/P","M","M","3","5d66849f0e3ff20016f36599","10/27/2022, 13:42:44",-1.01396542014435,"30","Male","right",0,0,0,0,TRUE,"E_M_Russell_Howard.png P_M_jeremy_corbyn.png"
3960,"P_F_Theresa_May.png","P_M_Tony_Blair.png","TRUE","pictures/stimuli/P","pictures/stimuli/P","F","M","6","5d66849f0e3ff20016f36599","10/27/2022, 13:42:44",0.958595294812237,"30","Male","right",0,0,0,0,TRUE,"P_F_Theresa_May.png P_M_Tony_Blair.png"
4469,"E_M_Michael_McIntyr.png","P_M_keir_starmer.png","FALSE","pictures/stimuli/E","pictures/stimuli/P","M","M","5","5d66849f0e3ff20016f36599","10/27/2022, 13:42:44",0.301075056493374,"30","Male","right",0,0,0,0,TRUE,"E_M_Michael_McIntyr.png P_M_keir_starmer.png"
2269,"E_M_Michael_McIntyr.png","P_M_Sajid_Javid.png","FALSE","pictures/stimuli/E","pictures/stimuli/P","M","M","6","5d66849f0e3ff20016f36599","10/27/2022, 13:42:44",0.958595294812237,"30","Male","right",0,0,0,0,TRUE,"E_M_Michael_McIntyr.png P_M_Sajid_Javid.png"
4783,"E_M_Jimmy_Carr.png","P_M_Tony_Blair.png","FALSE","pictures/stimuli/E","pictures/stimuli/P","M","M","5","5d66849f0e3ff20016f36599","10/27/2022, 13:42:44",0.301075056493374,"30","Male","right",0,0,0,0,TRUE,"E_M_Jimmy_Carr.png P_M_Tony_Blair.png"
2282,"E_M_Ewan_McGregor.png","P_F_nicola_sturge.png","FALSE","pictures/stimuli/E","pictures/stimuli/P","M","F","6","5d66849f0e3ff20016f36599","10/27/2022, 13:42:44",0.958595294812237,"30","Male","right",0,1,0,0,TRUE,"E_M_Ewan_McGregor.png P_F_nicola_sturge.png"
3384,"E_M_Simon_Pegg.png","P_M_Michael_Gove.png","FALSE","pictures/stimuli/E","pictures/stimuli/P","M","M","2","5d66849f0e3ff20016f36599","10/27/2022, 13:42:44",-1.67148565846322,"30","Male","right",0,0,0,0,TRUE,"E_M_Simon_Pegg.png P_M_Michael_Gove.png"
2242,"E_F_Julie_Walters.png","E_M_Peter_Kay.png","TRUE","pictures/stimuli/E","pictures/stimuli/E","F","M","6","5d66849f0e3ff20016f36599","10/27/2022, 13:42:44",0.958595294812237,"30","Male","right",1,0,0,0,TRUE,"E_F_Julie_Walters.png E_M_Peter_Kay.png"
3310,"E_F_Jennifer_Saunders.png","E_F_Julie_Walters.png","TRUE","pictures/stimuli/E","pictures/stimuli/E","F","F","1","5d66849f0e3ff20016f36599","10/27/2022, 13:42:44",-2.32900589678208,"30","Male","right",0,1,0,0,TRUE,"E_F_Jennifer_Saunders.png E_F_Julie_Walters.png"
1904,"P_M_Michael_Gove.png","P_M_Tony_Blair.png","TRUE","pictures/stimuli/P","pictures/stimuli/P","M","M","2","5d66849f0e3ff20016f36599","10/27/2022, 13:42:44",-1.67148565846322,"30","Male","right",0,0,0,0,TRUE,"P_M_Michael_Gove.png P_M_Tony_Blair.png"
2078,"P_F_Theresa_May.png","P_M_jeremy_corbyn.png","TRUE","pictures/stimuli/P","pictures/stimuli/P","F","M","6","5d66849f0e3ff20016f36599","10/27/2022, 13:42:44",0.958595294812237,"30","Male","right",0,0,0,0,TRUE,"P_F_Theresa_May.png P_M_jeremy_corbyn.png"
3170,"P_F_Theresa_May.png","P_M_jeremy_corbyn.png","TRUE","pictures/stimuli/P","pictures/stimuli/P","F","M","5","5da21ef67284fa0010e1e11e","10/27/2022, 13:55:19",-0.749488989999207,"29","Male","right",0,0,0,0,TRUE,"P_F_Theresa_May.png P_M_jeremy_corbyn.png"
1917,"E_F_Julie_Walters.png","P_M_jeremy_corbyn.png","FALSE","pictures/stimuli/E","pictures/stimuli/P","F","M","6","5da21ef67284fa0010e1e11e","10/27/2022, 13:55:19",0.43720191083287,"29","Male","right",0,0,0,0,TRUE,"E_F_Julie_Walters.png P_M_jeremy_corbyn.png"
1510,"E_F_Jennifer_Saunders.png","P_M_Sajid_Javid.png","FALSE","pictures/stimuli/E","pictures/stimuli/P","F","M","6","5da21ef67284fa0010e1e11e","10/27/2022, 13:55:19",0.43720191083287,"29","Male","right",0,0,0,0,TRUE,"E_F_Jennifer_Saunders.png P_M_Sajid_Javid.png"
