"RT","img_1","img_2","isSameProffesion","img1proffesion","img2proffesion","img1Gender","img2Gender","keyPressed","participant","time","normlised_keyPress","age","gender","handedness","isFamiliar_img1","isFamiliar_img2","vividness_img1","vividness_img2","reject_trial","condition","pair"
NA,"E_F_Dawn_Roma_French.png","E_F_Jennifer_Saunders.png",NA,NA,NA,NA,NA,0.813217983,NA,NA,NA,NA,NA,NA,NA,NA,NA,NA,FALSE,"VGG_typ","E_F_Dawn_Roma_French.png E_F_Jennifer_Saunders.png"
NA,"E_F_Dawn_Roma_French.png","E_F_Julie_Walters.png",NA,NA,NA,NA,NA,0.708178341,NA,NA,NA,NA,NA,NA,NA,NA,NA,NA,FALSE,"VGG_typ","E_F_Dawn_Roma_French.png E_F_Julie_Walters.png"
NA,"E_F_Dawn_Roma_French.png","E_F_Sarah_Millican.png",NA,NA,NA,NA,NA,0.762262255,NA,NA,NA,NA,NA,NA,NA,NA,NA,NA,FALSE,"VGG_typ","E_F_Dawn_Roma_French.png E_F_Sarah_Millican.png"
NA,"E_F_Dawn_Roma_French.png","E_M_Ewan_McGregor.png",NA,NA,NA,NA,NA,0.847857326,NA,NA,NA,NA,NA,NA,NA,NA,NA,NA,FALSE,"VGG_typ","E_F_Dawn_Roma_French.png E_M_Ewan_McGregor.png"
NA,"E_F_Dawn_Roma_French.png","E_M_Jimmy_Carr.png",NA,NA,NA,NA,NA,0.862407193,NA,NA,NA,NA,NA,NA,NA,NA,NA,NA,FALSE,"VGG_typ","E_F_Dawn_Roma_French.png E_M_Jimmy_Carr.png"
NA,"E_F_Dawn_Roma_French.png","E_M_Michael_McIntyr.png",NA,NA,NA,NA,NA,0.77182363,NA,NA,NA,NA,NA,NA,NA,NA,NA,NA,FALSE,"VGG_typ","E_F_Dawn_Roma_French.png E_M_Michael_McIntyr.png"
NA,"E_F_Dawn_Roma_French.png","E_M_Peter_Kay.png",NA,NA,NA,NA,NA,0.843249157,NA,NA,NA,NA,NA,NA,NA,NA,NA,NA,FALSE,"VGG_typ","E_F_Dawn_Roma_French.png E_M_Peter_Kay.png"
NA,"E_F_Dawn_Roma_French.png","E_M_Russell_Howard.png",NA,NA,NA,NA,NA,0.853300229,NA,NA,NA,NA,NA,NA,NA,NA,NA,NA,FALSE,"VGG_typ","E_F_Dawn_Roma_French.png E_M_Russell_Howard.png"
NA,"E_F_Dawn_Roma_French.png","E_M_Simon_Pegg.png",NA,NA,NA,NA,NA,0.808586091,NA,NA,NA,NA,NA,NA,NA,NA,NA,NA,FALSE,"VGG_typ","E_F_Dawn_Roma_French.png E_M_Simon_Pegg.png"
NA,"E_F_Dawn_Roma_French.png","P_F_nicola_sturge.png",NA,NA,NA,NA,NA,0.739047825,NA,NA,NA,NA,NA,NA,NA,NA,NA,NA,FALSE,"VGG_typ","E_F_Dawn_Roma_French.png P_F_nicola_sturge.png"
NA,"E_F_Dawn_Roma_French.png","P_F_Theresa_May.png",NA,NA,NA,NA,NA,0.788460672,NA,NA,NA,NA,NA,NA,NA,NA,NA,NA,FALSE,"VGG_typ","E_F_Dawn_Roma_French.png P_F_Theresa_May.png"
NA,"E_F_Dawn_Roma_French.png","P_M_david_camer.png",NA,NA,NA,NA,NA,0.86275667,NA,NA,NA,NA,NA,NA,NA,NA,NA,NA,FALSE,"VGG_typ","E_F_Dawn_Roma_French.png P_M_david_camer.png"
NA,"E_F_Dawn_Roma_French.png","P_M_Gordon_Brown.png",NA,NA,NA,NA,NA,0.830659926,NA,NA,NA,NA,NA,NA,NA,NA,NA,NA,FALSE,"VGG_typ","E_F_Dawn_Roma_French.png P_M_Gordon_Brown.png"
NA,"E_F_Dawn_Roma_French.png","P_M_jeremy_corbyn.png",NA,NA,NA,NA,NA,0.859478652,NA,NA,NA,NA,NA,NA,NA,NA,NA,NA,FALSE,"VGG_typ","E_F_Dawn_Roma_French.png P_M_jeremy_corbyn.png"
NA,"E_F_Dawn_Roma_French.png","P_M_keir_starmer.png",NA,NA,NA,NA,NA,0.804041475,NA,NA,NA,NA,NA,NA,NA,NA,NA,NA,FALSE,"VGG_typ","E_F_Dawn_Roma_French.png P_M_keir_starmer.png"
NA,"E_F_Dawn_Roma_French.png","P_M_Michael_Gove.png",NA,NA,NA,NA,NA,0.755844906,NA,NA,NA,NA,NA,NA,NA,NA,NA,NA,FALSE,"VGG_typ","E_F_Dawn_Roma_French.png P_M_Michael_Gove.png"
NA,"E_F_Dawn_Roma_French.png","P_M_nigel_farage.png",NA,NA,NA,NA,NA,0.781917721,NA,NA,NA,NA,NA,NA,NA,NA,NA,NA,FALSE,"VGG_typ","E_F_Dawn_Roma_French.png P_M_nigel_farage.png"
NA,"E_F_Dawn_Roma_French.png","P_M_Sajid_Javid.png",NA,NA,NA,NA,NA,0.783349127,NA,NA,NA,NA,NA,NA,NA,NA,NA,NA,FALSE,"VGG_typ","E_F_Dawn_Roma_French.png P_M_Sajid_Javid.png"
NA,"E_F_Dawn_Roma_French.png","P_M_Tony_Blair.png",NA,NA,NA,NA,NA,0.863370568,NA,NA,NA,NA,NA,NA,NA,NA,NA,NA,FALSE,"VGG_typ","E_F_Dawn_Roma_French.png P_M_Tony_Blair.png"
NA,"E_F_Jennifer_Saunders.png","E_F_Julie_Walters.png",NA,NA,NA,NA,NA,0.475446284,NA,NA,NA,NA,NA,NA,NA,NA,NA,NA,FALSE,"VGG_typ","E_F_Jennifer_Saunders.png E_F_Julie_Walters.png"
NA,"E_F_Jennifer_Saunders.png","E_F_Sarah_Millican.png",NA,NA,NA,NA,NA,0.69795388,NA,NA,NA,NA,NA,NA,NA,NA,NA,NA,FALSE,"VGG_typ","E_F_Jennifer_Saunders.png E_F_Sarah_Millican.png"
NA,"E_F_Jennifer_Saunders.png","E_M_Ewan_McGregor.png",NA,NA,NA,NA,NA,0.811588332,NA,NA,NA,NA,NA,NA,NA,NA,NA,NA,FALSE,"VGG_typ","E_F_Jennifer_Saunders.png E_M_Ewan_McGregor.png"
NA,"E_F_Jennifer_Saunders.png","E_M_Jimmy_Carr.png",NA,NA,NA,NA,NA,0.868744403,NA,NA,NA,NA,NA,NA,NA,NA,NA,NA,FALSE,"VGG_typ","E_F_Jennifer_Saunders.png E_M_Jimmy_Carr.png"
NA,"E_F_Jennifer_Saunders.png","E_M_Michael_McIntyr.png",NA,NA,NA,NA,NA,0.720551074,NA,NA,NA,NA,NA,NA,NA,NA,NA,NA,FALSE,"VGG_typ","E_F_Jennifer_Saunders.png E_M_Michael_McIntyr.png"
NA,"E_F_Jennifer_Saunders.png","E_M_Peter_Kay.png",NA,NA,NA,NA,NA,0.792766258,NA,NA,NA,NA,NA,NA,NA,NA,NA,NA,FALSE,"VGG_typ","E_F_Jennifer_Saunders.png E_M_Peter_Kay.png"
NA,"E_F_Jennifer_Saunders.png","E_M_Russell_Howard.png",NA,NA,NA,NA,NA,0.789298967,NA,NA,NA,NA,NA,NA,NA,NA,NA,NA,FALSE,"VGG_typ","E_F_Jennifer_Saunders.png E_M_Russell_Howard.png"
NA,"E_F_Jennifer_Saunders.png","E_M_Simon_Pegg.png",NA,NA,NA,NA,NA,0.802450582,NA,NA,NA,NA,NA,NA,NA,NA,NA,NA,FALSE,"VGG_typ","E_F_Jennifer_Saunders.png E_M_Simon_Pegg.png"
NA,"E_F_Jennifer_Saunders.png","P_F_nicola_sturge.png",NA,NA,NA,NA,NA,0.675080806,NA,NA,NA,NA,NA,NA,NA,NA,NA,NA,FALSE,"VGG_typ","E_F_Jennifer_Saunders.png P_F_nicola_sturge.png"
NA,"E_F_Jennifer_Saunders.png","P_F_Theresa_May.png",NA,NA,NA,NA,NA,0.525966913,NA,NA,NA,NA,NA,NA,NA,NA,NA,NA,FALSE,"VGG_typ","E_F_Jennifer_Saunders.png P_F_Theresa_May.png"
NA,"E_F_Jennifer_Saunders.png","P_M_david_camer.png",NA,NA,NA,NA,NA,0.79990989,NA,NA,NA,NA,NA,NA,NA,NA,NA,NA,FALSE,"VGG_typ","E_F_Jennifer_Saunders.png P_M_david_camer.png"
NA,"E_F_Jennifer_Saunders.png","P_M_Gordon_Brown.png",NA,NA,NA,NA,NA,0.751300558,NA,NA,NA,NA,NA,NA,NA,NA,NA,NA,FALSE,"VGG_typ","E_F_Jennifer_Saunders.png P_M_Gordon_Brown.png"
NA,"E_F_Jennifer_Saunders.png","P_M_jeremy_corbyn.png",NA,NA,NA,NA,NA,0.761607632,NA,NA,NA,NA,NA,NA,NA,NA,NA,NA,FALSE,"VGG_typ","E_F_Jennifer_Saunders.png P_M_jeremy_corbyn.png"
NA,"E_F_Jennifer_Saunders.png","P_M_keir_starmer.png",NA,NA,NA,NA,NA,0.740917861,NA,NA,NA,NA,NA,NA,NA,NA,NA,NA,FALSE,"VGG_typ","E_F_Jennifer_Saunders.png P_M_keir_starmer.png"
NA,"E_F_Jennifer_Saunders.png","P_M_Michael_Gove.png",NA,NA,NA,NA,NA,0.718603939,NA,NA,NA,NA,NA,NA,NA,NA,NA,NA,FALSE,"VGG_typ","E_F_Jennifer_Saunders.png P_M_Michael_Gove.png"
NA,"E_F_Jennifer_Saunders.png","P_M_nigel_farage.png",NA,NA,NA,NA,NA,0.862862557,NA,NA,NA,NA,NA,NA,NA,NA,NA,NA,FALSE,"VGG_typ","E_F_Jennifer_Saunders.png P_M_nigel_farage.png"
NA,"E_F_Jennifer_Saunders.png","P_M_Sajid_Javid.png",NA,NA,NA,NA,NA,0.920147799,NA,NA,NA,NA,NA,NA,NA,NA,NA,NA,FALSE,"VGG_typ","E_F_Jennifer_Saunders.png P_M_Sajid_Javid.png"
NA,"E_F_Jennifer_Saunders.png","P_M_Tony_Blair.png",NA,NA,NA,NA,NA,0.668862879,NA,NA,NA,NA,NA,NA,NA,NA,NA,NA,FALSE,"VGG_typ","E_F_Jennifer_Saunders.png P_M_Tony_Blair.png"
NA,"E_F_Julie_Walters.png","E_F_Sarah_Millican.png",NA,NA,NA,NA,NA,0.651248217,NA,NA,NA,NA,NA,NA,NA,NA,NA,NA,FALSE,"VGG_typ","E_F_Julie_Walters.png E_F_Sarah_Millican.png"
NA,"E_F_Julie_Walters.png","E_M_Ewan_McGregor.png",NA,NA,NA,NA,NA,0.816393152,NA,NA,NA,NA,NA,NA,NA,NA,NA,NA,FALSE,"VGG_typ","E_F_Julie_Walters.png E_M_Ewan_McGregor.png"
NA,"E_F_Julie_Walters.png","E_M_Jimmy_Carr.png",NA,NA,NA,NA,NA,0.769784212,NA,NA,NA,NA,NA,NA,NA,NA,NA,NA,FALSE,"VGG_typ","E_F_Julie_Walters.png E_M_Jimmy_Carr.png"
NA,"E_F_Julie_Walters.png","E_M_Michael_McIntyr.png",NA,NA,NA,NA,NA,0.759983286,NA,NA,NA,NA,NA,NA,NA,NA,NA,NA,FALSE,"VGG_typ","E_F_Julie_Walters.png E_M_Michael_McIntyr.png"
NA,"E_F_Julie_Walters.png","E_M_Peter_Kay.png",NA,NA,NA,NA,NA,0.811541781,NA,NA,NA,NA,NA,NA,NA,NA,NA,NA,FALSE,"VGG_typ","E_F_Julie_Walters.png E_M_Peter_Kay.png"
NA,"E_F_Julie_Walters.png","E_M_Russell_Howard.png",NA,NA,NA,NA,NA,0.736952543,NA,NA,NA,NA,NA,NA,NA,NA,NA,NA,FALSE,"VGG_typ","E_F_Julie_Walters.png E_M_Russell_Howard.png"
NA,"E_F_Julie_Walters.png","E_M_Simon_Pegg.png",NA,NA,NA,NA,NA,0.81866537,NA,NA,NA,NA,NA,NA,NA,NA,NA,NA,FALSE,"VGG_typ","E_F_Julie_Walters.png E_M_Simon_Pegg.png"
NA,"E_F_Julie_Walters.png","P_F_nicola_sturge.png",NA,NA,NA,NA,NA,0.731403619,NA,NA,NA,NA,NA,NA,NA,NA,NA,NA,FALSE,"VGG_typ","E_F_Julie_Walters.png P_F_nicola_sturge.png"
NA,"E_F_Julie_Walters.png","P_F_Theresa_May.png",NA,NA,NA,NA,NA,0.676186323,NA,NA,NA,NA,NA,NA,NA,NA,NA,NA,FALSE,"VGG_typ","E_F_Julie_Walters.png P_F_Theresa_May.png"
NA,"E_F_Julie_Walters.png","P_M_david_camer.png",NA,NA,NA,NA,NA,0.839877129,NA,NA,NA,NA,NA,NA,NA,NA,NA,NA,FALSE,"VGG_typ","E_F_Julie_Walters.png P_M_david_camer.png"
NA,"E_F_Julie_Walters.png","P_M_Gordon_Brown.png",NA,NA,NA,NA,NA,0.792790264,NA,NA,NA,NA,NA,NA,NA,NA,NA,NA,FALSE,"VGG_typ","E_F_Julie_Walters.png P_M_Gordon_Brown.png"
NA,"E_F_Julie_Walters.png","P_M_jeremy_corbyn.png",NA,NA,NA,NA,NA,0.831934988,NA,NA,NA,NA,NA,NA,NA,NA,NA,NA,FALSE,"VGG_typ","E_F_Julie_Walters.png P_M_jeremy_corbyn.png"
NA,"E_F_Julie_Walters.png","P_M_keir_starmer.png",NA,NA,NA,NA,NA,0.741745204,NA,NA,NA,NA,NA,NA,NA,NA,NA,NA,FALSE,"VGG_typ","E_F_Julie_Walters.png P_M_keir_starmer.png"
NA,"E_F_Julie_Walters.png","P_M_Michael_Gove.png",NA,NA,NA,NA,NA,0.649039716,NA,NA,NA,NA,NA,NA,NA,NA,NA,NA,FALSE,"VGG_typ","E_F_Julie_Walters.png P_M_Michael_Gove.png"
NA,"E_F_Julie_Walters.png","P_M_nigel_farage.png",NA,NA,NA,NA,NA,0.823427156,NA,NA,NA,NA,NA,NA,NA,NA,NA,NA,FALSE,"VGG_typ","E_F_Julie_Walters.png P_M_nigel_farage.png"
NA,"E_F_Julie_Walters.png","P_M_Sajid_Javid.png",NA,NA,NA,NA,NA,0.766349331,NA,NA,NA,NA,NA,NA,NA,NA,NA,NA,FALSE,"VGG_typ","E_F_Julie_Walters.png P_M_Sajid_Javid.png"
NA,"E_F_Julie_Walters.png","P_M_Tony_Blair.png",NA,NA,NA,NA,NA,0.725236684,NA,NA,NA,NA,NA,NA,NA,NA,NA,NA,FALSE,"VGG_typ","E_F_Julie_Walters.png P_M_Tony_Blair.png"
NA,"E_F_Sarah_Millican.png","E_M_Ewan_McGregor.png",NA,NA,NA,NA,NA,0.817022622,NA,NA,NA,NA,NA,NA,NA,NA,NA,NA,FALSE,"VGG_typ","E_F_Sarah_Millican.png E_M_Ewan_McGregor.png"
NA,"E_F_Sarah_Millican.png","E_M_Jimmy_Carr.png",NA,NA,NA,NA,NA,0.788250357,NA,NA,NA,NA,NA,NA,NA,NA,NA,NA,FALSE,"VGG_typ","E_F_Sarah_Millican.png E_M_Jimmy_Carr.png"
NA,"E_F_Sarah_Millican.png","E_M_Michael_McIntyr.png",NA,NA,NA,NA,NA,0.755629092,NA,NA,NA,NA,NA,NA,NA,NA,NA,NA,FALSE,"VGG_typ","E_F_Sarah_Millican.png E_M_Michael_McIntyr.png"
NA,"E_F_Sarah_Millican.png","E_M_Peter_Kay.png",NA,NA,NA,NA,NA,0.741088122,NA,NA,NA,NA,NA,NA,NA,NA,NA,NA,FALSE,"VGG_typ","E_F_Sarah_Millican.png E_M_Peter_Kay.png"
NA,"E_F_Sarah_Millican.png","E_M_Russell_Howard.png",NA,NA,NA,NA,NA,0.74236539,NA,NA,NA,NA,NA,NA,NA,NA,NA,NA,FALSE,"VGG_typ","E_F_Sarah_Millican.png E_M_Russell_Howard.png"
NA,"E_F_Sarah_Millican.png","E_M_Simon_Pegg.png",NA,NA,NA,NA,NA,0.813327044,NA,NA,NA,NA,NA,NA,NA,NA,NA,NA,FALSE,"VGG_typ","E_F_Sarah_Millican.png E_M_Simon_Pegg.png"
NA,"E_F_Sarah_Millican.png","P_F_nicola_sturge.png",NA,NA,NA,NA,NA,0.747772157,NA,NA,NA,NA,NA,NA,NA,NA,NA,NA,FALSE,"VGG_typ","E_F_Sarah_Millican.png P_F_nicola_sturge.png"
NA,"E_F_Sarah_Millican.png","P_F_Theresa_May.png",NA,NA,NA,NA,NA,0.802502543,NA,NA,NA,NA,NA,NA,NA,NA,NA,NA,FALSE,"VGG_typ","E_F_Sarah_Millican.png P_F_Theresa_May.png"
NA,"E_F_Sarah_Millican.png","P_M_david_camer.png",NA,NA,NA,NA,NA,0.871612117,NA,NA,NA,NA,NA,NA,NA,NA,NA,NA,FALSE,"VGG_typ","E_F_Sarah_Millican.png P_M_david_camer.png"
NA,"E_F_Sarah_Millican.png","P_M_Gordon_Brown.png",NA,NA,NA,NA,NA,0.793126702,NA,NA,NA,NA,NA,NA,NA,NA,NA,NA,FALSE,"VGG_typ","E_F_Sarah_Millican.png P_M_Gordon_Brown.png"
NA,"E_F_Sarah_Millican.png","P_M_jeremy_corbyn.png",NA,NA,NA,NA,NA,0.781568289,NA,NA,NA,NA,NA,NA,NA,NA,NA,NA,FALSE,"VGG_typ","E_F_Sarah_Millican.png P_M_jeremy_corbyn.png"
NA,"E_F_Sarah_Millican.png","P_M_keir_starmer.png",NA,NA,NA,NA,NA,0.716221839,NA,NA,NA,NA,NA,NA,NA,NA,NA,NA,FALSE,"VGG_typ","E_F_Sarah_Millican.png P_M_keir_starmer.png"
NA,"E_F_Sarah_Millican.png","P_M_Michael_Gove.png",NA,NA,NA,NA,NA,0.699373126,NA,NA,NA,NA,NA,NA,NA,NA,NA,NA,FALSE,"VGG_typ","E_F_Sarah_Millican.png P_M_Michael_Gove.png"
NA,"E_F_Sarah_Millican.png","P_M_nigel_farage.png",NA,NA,NA,NA,NA,0.825805247,NA,NA,NA,NA,NA,NA,NA,NA,NA,NA,FALSE,"VGG_typ","E_F_Sarah_Millican.png P_M_nigel_farage.png"
NA,"E_F_Sarah_Millican.png","P_M_Sajid_Javid.png",NA,NA,NA,NA,NA,0.802714065,NA,NA,NA,NA,NA,NA,NA,NA,NA,NA,FALSE,"VGG_typ","E_F_Sarah_Millican.png P_M_Sajid_Javid.png"
NA,"E_F_Sarah_Millican.png","P_M_Tony_Blair.png",NA,NA,NA,NA,NA,0.82249859,NA,NA,NA,NA,NA,NA,NA,NA,NA,NA,FALSE,"VGG_typ","E_F_Sarah_Millican.png P_M_Tony_Blair.png"
NA,"E_M_Ewan_McGregor.png","E_M_Jimmy_Carr.png",NA,NA,NA,NA,NA,0.762679085,NA,NA,NA,NA,NA,NA,NA,NA,NA,NA,FALSE,"VGG_typ","E_M_Ewan_McGregor.png E_M_Jimmy_Carr.png"
NA,"E_M_Ewan_McGregor.png","E_M_Michael_McIntyr.png",NA,NA,NA,NA,NA,0.792935595,NA,NA,NA,NA,NA,NA,NA,NA,NA,NA,FALSE,"VGG_typ","E_M_Ewan_McGregor.png E_M_Michael_McIntyr.png"
NA,"E_M_Ewan_McGregor.png","E_M_Peter_Kay.png",NA,NA,NA,NA,NA,0.798847884,NA,NA,NA,NA,NA,NA,NA,NA,NA,NA,FALSE,"VGG_typ","E_M_Ewan_McGregor.png E_M_Peter_Kay.png"
NA,"E_M_Ewan_McGregor.png","E_M_Russell_Howard.png",NA,NA,NA,NA,NA,0.618493885,NA,NA,NA,NA,NA,NA,NA,NA,NA,NA,FALSE,"VGG_typ","E_M_Ewan_McGregor.png E_M_Russell_Howard.png"
NA,"E_M_Ewan_McGregor.png","E_M_Simon_Pegg.png",NA,NA,NA,NA,NA,0.605608284,NA,NA,NA,NA,NA,NA,NA,NA,NA,NA,FALSE,"VGG_typ","E_M_Ewan_McGregor.png E_M_Simon_Pegg.png"
NA,"E_M_Ewan_McGregor.png","P_F_nicola_sturge.png",NA,NA,NA,NA,NA,0.847317696,NA,NA,NA,NA,NA,NA,NA,NA,NA,NA,FALSE,"VGG_typ","E_M_Ewan_McGregor.png P_F_nicola_sturge.png"
NA,"E_M_Ewan_McGregor.png","P_F_Theresa_May.png",NA,NA,NA,NA,NA,0.849891648,NA,NA,NA,NA,NA,NA,NA,NA,NA,NA,FALSE,"VGG_typ","E_M_Ewan_McGregor.png P_F_Theresa_May.png"
NA,"E_M_Ewan_McGregor.png","P_M_david_camer.png",NA,NA,NA,NA,NA,0.638940275,NA,NA,NA,NA,NA,NA,NA,NA,NA,NA,FALSE,"VGG_typ","E_M_Ewan_McGregor.png P_M_david_camer.png"
NA,"E_M_Ewan_McGregor.png","P_M_Gordon_Brown.png",NA,NA,NA,NA,NA,0.820630342,NA,NA,NA,NA,NA,NA,NA,NA,NA,NA,FALSE,"VGG_typ","E_M_Ewan_McGregor.png P_M_Gordon_Brown.png"
NA,"E_M_Ewan_McGregor.png","P_M_jeremy_corbyn.png",NA,NA,NA,NA,NA,0.75329119,NA,NA,NA,NA,NA,NA,NA,NA,NA,NA,FALSE,"VGG_typ","E_M_Ewan_McGregor.png P_M_jeremy_corbyn.png"
NA,"E_M_Ewan_McGregor.png","P_M_keir_starmer.png",NA,NA,NA,NA,NA,0.757820964,NA,NA,NA,NA,NA,NA,NA,NA,NA,NA,FALSE,"VGG_typ","E_M_Ewan_McGregor.png P_M_keir_starmer.png"
NA,"E_M_Ewan_McGregor.png","P_M_Michael_Gove.png",NA,NA,NA,NA,NA,0.805887923,NA,NA,NA,NA,NA,NA,NA,NA,NA,NA,FALSE,"VGG_typ","E_M_Ewan_McGregor.png P_M_Michael_Gove.png"
NA,"E_M_Ewan_McGregor.png","P_M_nigel_farage.png",NA,NA,NA,NA,NA,0.789644301,NA,NA,NA,NA,NA,NA,NA,NA,NA,NA,FALSE,"VGG_typ","E_M_Ewan_McGregor.png P_M_nigel_farage.png"
NA,"E_M_Ewan_McGregor.png","P_M_Sajid_Javid.png",NA,NA,NA,NA,NA,0.844866604,NA,NA,NA,NA,NA,NA,NA,NA,NA,NA,FALSE,"VGG_typ","E_M_Ewan_McGregor.png P_M_Sajid_Javid.png"
NA,"E_M_Ewan_McGregor.png","P_M_Tony_Blair.png",NA,NA,NA,NA,NA,0.719435304,NA,NA,NA,NA,NA,NA,NA,NA,NA,NA,FALSE,"VGG_typ","E_M_Ewan_McGregor.png P_M_Tony_Blair.png"
NA,"E_M_Jimmy_Carr.png","E_M_Michael_McIntyr.png",NA,NA,NA,NA,NA,0.651231736,NA,NA,NA,NA,NA,NA,NA,NA,NA,NA,FALSE,"VGG_typ","E_M_Jimmy_Carr.png E_M_Michael_McIntyr.png"
NA,"E_M_Jimmy_Carr.png","E_M_Peter_Kay.png",NA,NA,NA,NA,NA,0.850902751,NA,NA,NA,NA,NA,NA,NA,NA,NA,NA,FALSE,"VGG_typ","E_M_Jimmy_Carr.png E_M_Peter_Kay.png"
NA,"E_M_Jimmy_Carr.png","E_M_Russell_Howard.png",NA,NA,NA,NA,NA,0.803638786,NA,NA,NA,NA,NA,NA,NA,NA,NA,NA,FALSE,"VGG_typ","E_M_Jimmy_Carr.png E_M_Russell_Howard.png"
NA,"E_M_Jimmy_Carr.png","E_M_Simon_Pegg.png",NA,NA,NA,NA,NA,0.796720579,NA,NA,NA,NA,NA,NA,NA,NA,NA,NA,FALSE,"VGG_typ","E_M_Jimmy_Carr.png E_M_Simon_Pegg.png"
NA,"E_M_Jimmy_Carr.png","P_F_nicola_sturge.png",NA,NA,NA,NA,NA,0.787924781,NA,NA,NA,NA,NA,NA,NA,NA,NA,NA,FALSE,"VGG_typ","E_M_Jimmy_Carr.png P_F_nicola_sturge.png"
NA,"E_M_Jimmy_Carr.png","P_F_Theresa_May.png",NA,NA,NA,NA,NA,0.900001094,NA,NA,NA,NA,NA,NA,NA,NA,NA,NA,FALSE,"VGG_typ","E_M_Jimmy_Carr.png P_F_Theresa_May.png"
NA,"E_M_Jimmy_Carr.png","P_M_david_camer.png",NA,NA,NA,NA,NA,0.875905596,NA,NA,NA,NA,NA,NA,NA,NA,NA,NA,FALSE,"VGG_typ","E_M_Jimmy_Carr.png P_M_david_camer.png"
NA,"E_M_Jimmy_Carr.png","P_M_Gordon_Brown.png",NA,NA,NA,NA,NA,0.708680183,NA,NA,NA,NA,NA,NA,NA,NA,NA,NA,FALSE,"VGG_typ","E_M_Jimmy_Carr.png P_M_Gordon_Brown.png"
NA,"E_M_Jimmy_Carr.png","P_M_jeremy_corbyn.png",NA,NA,NA,NA,NA,0.910381831,NA,NA,NA,NA,NA,NA,NA,NA,NA,NA,FALSE,"VGG_typ","E_M_Jimmy_Carr.png P_M_jeremy_corbyn.png"
NA,"E_M_Jimmy_Carr.png","P_M_keir_starmer.png",NA,NA,NA,NA,NA,0.771432221,NA,NA,NA,NA,NA,NA,NA,NA,NA,NA,FALSE,"VGG_typ","E_M_Jimmy_Carr.png P_M_keir_starmer.png"
NA,"E_M_Jimmy_Carr.png","P_M_Michael_Gove.png",NA,NA,NA,NA,NA,0.847357914,NA,NA,NA,NA,NA,NA,NA,NA,NA,NA,FALSE,"VGG_typ","E_M_Jimmy_Carr.png P_M_Michael_Gove.png"
NA,"E_M_Jimmy_Carr.png","P_M_nigel_farage.png",NA,NA,NA,NA,NA,0.747952282,NA,NA,NA,NA,NA,NA,NA,NA,NA,NA,FALSE,"VGG_typ","E_M_Jimmy_Carr.png P_M_nigel_farage.png"
NA,"E_M_Jimmy_Carr.png","P_M_Sajid_Javid.png",NA,NA,NA,NA,NA,0.740817189,NA,NA,NA,NA,NA,NA,NA,NA,NA,NA,FALSE,"VGG_typ","E_M_Jimmy_Carr.png P_M_Sajid_Javid.png"
NA,"E_M_Jimmy_Carr.png","P_M_Tony_Blair.png",NA,NA,NA,NA,NA,0.778125674,NA,NA,NA,NA,NA,NA,NA,NA,NA,NA,FALSE,"VGG_typ","E_M_Jimmy_Carr.png P_M_Tony_Blair.png"
NA,"E_M_Michael_McIntyr.png","E_M_Peter_Kay.png",NA,NA,NA,NA,NA,0.792087138,NA,NA,NA,NA,NA,NA,NA,NA,NA,NA,FALSE,"VGG_typ","E_M_Michael_McIntyr.png E_M_Peter_Kay.png"
NA,"E_M_Michael_McIntyr.png","E_M_Russell_Howard.png",NA,NA,NA,NA,NA,0.781658515,NA,NA,NA,NA,NA,NA,NA,NA,NA,NA,FALSE,"VGG_typ","E_M_Michael_McIntyr.png E_M_Russell_Howard.png"
NA,"E_M_Michael_McIntyr.png","E_M_Simon_Pegg.png",NA,NA,NA,NA,NA,0.814886659,NA,NA,NA,NA,NA,NA,NA,NA,NA,NA,FALSE,"VGG_typ","E_M_Michael_McIntyr.png E_M_Simon_Pegg.png"
NA,"E_M_Michael_McIntyr.png","P_F_nicola_sturge.png",NA,NA,NA,NA,NA,0.709729791,NA,NA,NA,NA,NA,NA,NA,NA,NA,NA,FALSE,"VGG_typ","E_M_Michael_McIntyr.png P_F_nicola_sturge.png"
NA,"E_M_Michael_McIntyr.png","P_F_Theresa_May.png",NA,NA,NA,NA,NA,0.680100471,NA,NA,NA,NA,NA,NA,NA,NA,NA,NA,FALSE,"VGG_typ","E_M_Michael_McIntyr.png P_F_Theresa_May.png"
NA,"E_M_Michael_McIntyr.png","P_M_david_camer.png",NA,NA,NA,NA,NA,0.843289822,NA,NA,NA,NA,NA,NA,NA,NA,NA,NA,FALSE,"VGG_typ","E_M_Michael_McIntyr.png P_M_david_camer.png"
NA,"E_M_Michael_McIntyr.png","P_M_Gordon_Brown.png",NA,NA,NA,NA,NA,0.741078615,NA,NA,NA,NA,NA,NA,NA,NA,NA,NA,FALSE,"VGG_typ","E_M_Michael_McIntyr.png P_M_Gordon_Brown.png"
NA,"E_M_Michael_McIntyr.png","P_M_jeremy_corbyn.png",NA,NA,NA,NA,NA,0.888719678,NA,NA,NA,NA,NA,NA,NA,NA,NA,NA,FALSE,"VGG_typ","E_M_Michael_McIntyr.png P_M_jeremy_corbyn.png"
NA,"E_M_Michael_McIntyr.png","P_M_keir_starmer.png",NA,NA,NA,NA,NA,0.83998993,NA,NA,NA,NA,NA,NA,NA,NA,NA,NA,FALSE,"VGG_typ","E_M_Michael_McIntyr.png P_M_keir_starmer.png"
NA,"E_M_Michael_McIntyr.png","P_M_Michael_Gove.png",NA,NA,NA,NA,NA,0.7291269,NA,NA,NA,NA,NA,NA,NA,NA,NA,NA,FALSE,"VGG_typ","E_M_Michael_McIntyr.png P_M_Michael_Gove.png"
NA,"E_M_Michael_McIntyr.png","P_M_nigel_farage.png",NA,NA,NA,NA,NA,0.606381655,NA,NA,NA,NA,NA,NA,NA,NA,NA,NA,FALSE,"VGG_typ","E_M_Michael_McIntyr.png P_M_nigel_farage.png"
NA,"E_M_Michael_McIntyr.png","P_M_Sajid_Javid.png",NA,NA,NA,NA,NA,0.853584439,NA,NA,NA,NA,NA,NA,NA,NA,NA,NA,FALSE,"VGG_typ","E_M_Michael_McIntyr.png P_M_Sajid_Javid.png"
NA,"E_M_Michael_McIntyr.png","P_M_Tony_Blair.png",NA,NA,NA,NA,NA,0.759293184,NA,NA,NA,NA,NA,NA,NA,NA,NA,NA,FALSE,"VGG_typ","E_M_Michael_McIntyr.png P_M_Tony_Blair.png"
NA,"E_M_Peter_Kay.png","E_M_Russell_Howard.png",NA,NA,NA,NA,NA,0.753759146,NA,NA,NA,NA,NA,NA,NA,NA,NA,NA,FALSE,"VGG_typ","E_M_Peter_Kay.png E_M_Russell_Howard.png"
NA,"E_M_Peter_Kay.png","E_M_Simon_Pegg.png",NA,NA,NA,NA,NA,0.779766724,NA,NA,NA,NA,NA,NA,NA,NA,NA,NA,FALSE,"VGG_typ","E_M_Peter_Kay.png E_M_Simon_Pegg.png"
NA,"E_M_Peter_Kay.png","P_F_nicola_sturge.png",NA,NA,NA,NA,NA,0.736620635,NA,NA,NA,NA,NA,NA,NA,NA,NA,NA,FALSE,"VGG_typ","E_M_Peter_Kay.png P_F_nicola_sturge.png"
NA,"E_M_Peter_Kay.png","P_F_Theresa_May.png",NA,NA,NA,NA,NA,0.817049176,NA,NA,NA,NA,NA,NA,NA,NA,NA,NA,FALSE,"VGG_typ","E_M_Peter_Kay.png P_F_Theresa_May.png"
NA,"E_M_Peter_Kay.png","P_M_david_camer.png",NA,NA,NA,NA,NA,0.743181378,NA,NA,NA,NA,NA,NA,NA,NA,NA,NA,FALSE,"VGG_typ","E_M_Peter_Kay.png P_M_david_camer.png"
NA,"E_M_Peter_Kay.png","P_M_Gordon_Brown.png",NA,NA,NA,NA,NA,0.685250908,NA,NA,NA,NA,NA,NA,NA,NA,NA,NA,FALSE,"VGG_typ","E_M_Peter_Kay.png P_M_Gordon_Brown.png"
NA,"E_M_Peter_Kay.png","P_M_jeremy_corbyn.png",NA,NA,NA,NA,NA,0.797127873,NA,NA,NA,NA,NA,NA,NA,NA,NA,NA,FALSE,"VGG_typ","E_M_Peter_Kay.png P_M_jeremy_corbyn.png"
NA,"E_M_Peter_Kay.png","P_M_keir_starmer.png",NA,NA,NA,NA,NA,0.677702695,NA,NA,NA,NA,NA,NA,NA,NA,NA,NA,FALSE,"VGG_typ","E_M_Peter_Kay.png P_M_keir_starmer.png"
NA,"E_M_Peter_Kay.png","P_M_Michael_Gove.png",NA,NA,NA,NA,NA,0.819146231,NA,NA,NA,NA,NA,NA,NA,NA,NA,NA,FALSE,"VGG_typ","E_M_Peter_Kay.png P_M_Michael_Gove.png"
NA,"E_M_Peter_Kay.png","P_M_nigel_farage.png",NA,NA,NA,NA,NA,0.898394279,NA,NA,NA,NA,NA,NA,NA,NA,NA,NA,FALSE,"VGG_typ","E_M_Peter_Kay.png P_M_nigel_farage.png"
NA,"E_M_Peter_Kay.png","P_M_Sajid_Javid.png",NA,NA,NA,NA,NA,0.756347045,NA,NA,NA,NA,NA,NA,NA,NA,NA,NA,FALSE,"VGG_typ","E_M_Peter_Kay.png P_M_Sajid_Javid.png"
NA,"E_M_Peter_Kay.png","P_M_Tony_Blair.png",NA,NA,NA,NA,NA,0.883727215,NA,NA,NA,NA,NA,NA,NA,NA,NA,NA,FALSE,"VGG_typ","E_M_Peter_Kay.png P_M_Tony_Blair.png"
NA,"E_M_Russell_Howard.png","E_M_Simon_Pegg.png",NA,NA,NA,NA,NA,0.750301272,NA,NA,NA,NA,NA,NA,NA,NA,NA,NA,FALSE,"VGG_typ","E_M_Russell_Howard.png E_M_Simon_Pegg.png"
NA,"E_M_Russell_Howard.png","P_F_nicola_sturge.png",NA,NA,NA,NA,NA,0.855428845,NA,NA,NA,NA,NA,NA,NA,NA,NA,NA,FALSE,"VGG_typ","E_M_Russell_Howard.png P_F_nicola_sturge.png"
NA,"E_M_Russell_Howard.png","P_F_Theresa_May.png",NA,NA,NA,NA,NA,0.804931954,NA,NA,NA,NA,NA,NA,NA,NA,NA,NA,FALSE,"VGG_typ","E_M_Russell_Howard.png P_F_Theresa_May.png"
NA,"E_M_Russell_Howard.png","P_M_david_camer.png",NA,NA,NA,NA,NA,0.763625398,NA,NA,NA,NA,NA,NA,NA,NA,NA,NA,FALSE,"VGG_typ","E_M_Russell_Howard.png P_M_david_camer.png"
NA,"E_M_Russell_Howard.png","P_M_Gordon_Brown.png",NA,NA,NA,NA,NA,0.816624105,NA,NA,NA,NA,NA,NA,NA,NA,NA,NA,FALSE,"VGG_typ","E_M_Russell_Howard.png P_M_Gordon_Brown.png"
NA,"E_M_Russell_Howard.png","P_M_jeremy_corbyn.png",NA,NA,NA,NA,NA,0.803060755,NA,NA,NA,NA,NA,NA,NA,NA,NA,NA,FALSE,"VGG_typ","E_M_Russell_Howard.png P_M_jeremy_corbyn.png"
NA,"E_M_Russell_Howard.png","P_M_keir_starmer.png",NA,NA,NA,NA,NA,0.62707901,NA,NA,NA,NA,NA,NA,NA,NA,NA,NA,FALSE,"VGG_typ","E_M_Russell_Howard.png P_M_keir_starmer.png"
NA,"E_M_Russell_Howard.png","P_M_Michael_Gove.png",NA,NA,NA,NA,NA,0.826852918,NA,NA,NA,NA,NA,NA,NA,NA,NA,NA,FALSE,"VGG_typ","E_M_Russell_Howard.png P_M_Michael_Gove.png"
NA,"E_M_Russell_Howard.png","P_M_nigel_farage.png",NA,NA,NA,NA,NA,0.75640431,NA,NA,NA,NA,NA,NA,NA,NA,NA,NA,FALSE,"VGG_typ","E_M_Russell_Howard.png P_M_nigel_farage.png"
NA,"E_M_Russell_Howard.png","P_M_Sajid_Javid.png",NA,NA,NA,NA,NA,0.815561339,NA,NA,NA,NA,NA,NA,NA,NA,NA,NA,FALSE,"VGG_typ","E_M_Russell_Howard.png P_M_Sajid_Javid.png"
NA,"E_M_Russell_Howard.png","P_M_Tony_Blair.png",NA,NA,NA,NA,NA,0.75164704,NA,NA,NA,NA,NA,NA,NA,NA,NA,NA,FALSE,"VGG_typ","E_M_Russell_Howard.png P_M_Tony_Blair.png"
NA,"E_M_Simon_Pegg.png","P_F_nicola_sturge.png",NA,NA,NA,NA,NA,0.772154838,NA,NA,NA,NA,NA,NA,NA,NA,NA,NA,FALSE,"VGG_typ","E_M_Simon_Pegg.png P_F_nicola_sturge.png"
NA,"E_M_Simon_Pegg.png","P_F_Theresa_May.png",NA,NA,NA,NA,NA,0.741075486,NA,NA,NA,NA,NA,NA,NA,NA,NA,NA,FALSE,"VGG_typ","E_M_Simon_Pegg.png P_F_Theresa_May.png"
NA,"E_M_Simon_Pegg.png","P_M_david_camer.png",NA,NA,NA,NA,NA,0.764220729,NA,NA,NA,NA,NA,NA,NA,NA,NA,NA,FALSE,"VGG_typ","E_M_Simon_Pegg.png P_M_david_camer.png"
NA,"E_M_Simon_Pegg.png","P_M_Gordon_Brown.png",NA,NA,NA,NA,NA,0.750820056,NA,NA,NA,NA,NA,NA,NA,NA,NA,NA,FALSE,"VGG_typ","E_M_Simon_Pegg.png P_M_Gordon_Brown.png"
NA,"E_M_Simon_Pegg.png","P_M_jeremy_corbyn.png",NA,NA,NA,NA,NA,0.674663931,NA,NA,NA,NA,NA,NA,NA,NA,NA,NA,FALSE,"VGG_typ","E_M_Simon_Pegg.png P_M_jeremy_corbyn.png"
NA,"E_M_Simon_Pegg.png","P_M_keir_starmer.png",NA,NA,NA,NA,NA,0.762177765,NA,NA,NA,NA,NA,NA,NA,NA,NA,NA,FALSE,"VGG_typ","E_M_Simon_Pegg.png P_M_keir_starmer.png"
NA,"E_M_Simon_Pegg.png","P_M_Michael_Gove.png",NA,NA,NA,NA,NA,0.754397213,NA,NA,NA,NA,NA,NA,NA,NA,NA,NA,FALSE,"VGG_typ","E_M_Simon_Pegg.png P_M_Michael_Gove.png"
NA,"E_M_Simon_Pegg.png","P_M_nigel_farage.png",NA,NA,NA,NA,NA,0.768732682,NA,NA,NA,NA,NA,NA,NA,NA,NA,NA,FALSE,"VGG_typ","E_M_Simon_Pegg.png P_M_nigel_farage.png"
NA,"E_M_Simon_Pegg.png","P_M_Sajid_Javid.png",NA,NA,NA,NA,NA,0.852556974,NA,NA,NA,NA,NA,NA,NA,NA,NA,NA,FALSE,"VGG_typ","E_M_Simon_Pegg.png P_M_Sajid_Javid.png"
NA,"E_M_Simon_Pegg.png","P_M_Tony_Blair.png",NA,NA,NA,NA,NA,0.665751219,NA,NA,NA,NA,NA,NA,NA,NA,NA,NA,FALSE,"VGG_typ","E_M_Simon_Pegg.png P_M_Tony_Blair.png"
NA,"P_F_nicola_sturge.png","P_F_Theresa_May.png",NA,NA,NA,NA,NA,0.663235337,NA,NA,NA,NA,NA,NA,NA,NA,NA,NA,FALSE,"VGG_typ","P_F_nicola_sturge.png P_F_Theresa_May.png"
NA,"P_F_nicola_sturge.png","P_M_david_camer.png",NA,NA,NA,NA,NA,0.798117638,NA,NA,NA,NA,NA,NA,NA,NA,NA,NA,FALSE,"VGG_typ","P_F_nicola_sturge.png P_M_david_camer.png"
NA,"P_F_nicola_sturge.png","P_M_Gordon_Brown.png",NA,NA,NA,NA,NA,0.741631776,NA,NA,NA,NA,NA,NA,NA,NA,NA,NA,FALSE,"VGG_typ","P_F_nicola_sturge.png P_M_Gordon_Brown.png"
NA,"P_F_nicola_sturge.png","P_M_jeremy_corbyn.png",NA,NA,NA,NA,NA,0.889184363,NA,NA,NA,NA,NA,NA,NA,NA,NA,NA,FALSE,"VGG_typ","P_F_nicola_sturge.png P_M_jeremy_corbyn.png"
NA,"P_F_nicola_sturge.png","P_M_keir_starmer.png",NA,NA,NA,NA,NA,0.709235489,NA,NA,NA,NA,NA,NA,NA,NA,NA,NA,FALSE,"VGG_typ","P_F_nicola_sturge.png P_M_keir_starmer.png"
NA,"P_F_nicola_sturge.png","P_M_Michael_Gove.png",NA,NA,NA,NA,NA,0.763980731,NA,NA,NA,NA,NA,NA,NA,NA,NA,NA,FALSE,"VGG_typ","P_F_nicola_sturge.png P_M_Michael_Gove.png"
NA,"P_F_nicola_sturge.png","P_M_nigel_farage.png",NA,NA,NA,NA,NA,0.856153831,NA,NA,NA,NA,NA,NA,NA,NA,NA,NA,FALSE,"VGG_typ","P_F_nicola_sturge.png P_M_nigel_farage.png"
NA,"P_F_nicola_sturge.png","P_M_Sajid_Javid.png",NA,NA,NA,NA,NA,0.857420355,NA,NA,NA,NA,NA,NA,NA,NA,NA,NA,FALSE,"VGG_typ","P_F_nicola_sturge.png P_M_Sajid_Javid.png"
NA,"P_F_nicola_sturge.png","P_M_Tony_Blair.png",NA,NA,NA,NA,NA,0.81866698,NA,NA,NA,NA,NA,NA,NA,NA,NA,NA,FALSE,"VGG_typ","P_F_nicola_sturge.png P_M_Tony_Blair.png"
NA,"P_F_Theresa_May.png","P_M_david_camer.png",NA,NA,NA,NA,NA,0.68901962,NA,NA,NA,NA,NA,NA,NA,NA,NA,NA,FALSE,"VGG_typ","P_F_Theresa_May.png P_M_david_camer.png"
NA,"P_F_Theresa_May.png","P_M_Gordon_Brown.png",NA,NA,NA,NA,NA,0.888795123,NA,NA,NA,NA,NA,NA,NA,NA,NA,NA,FALSE,"VGG_typ","P_F_Theresa_May.png P_M_Gordon_Brown.png"
NA,"P_F_Theresa_May.png","P_M_jeremy_corbyn.png",NA,NA,NA,NA,NA,0.746617079,NA,NA,NA,NA,NA,NA,NA,NA,NA,NA,FALSE,"VGG_typ","P_F_Theresa_May.png P_M_jeremy_corbyn.png"
NA,"P_F_Theresa_May.png","P_M_keir_starmer.png",NA,NA,NA,NA,NA,0.865284368,NA,NA,NA,NA,NA,NA,NA,NA,NA,NA,FALSE,"VGG_typ","P_F_Theresa_May.png P_M_keir_starmer.png"
NA,"P_F_Theresa_May.png","P_M_Michael_Gove.png",NA,NA,NA,NA,NA,0.658182681,NA,NA,NA,NA,NA,NA,NA,NA,NA,NA,FALSE,"VGG_typ","P_F_Theresa_May.png P_M_Michael_Gove.png"
NA,"P_F_Theresa_May.png","P_M_nigel_farage.png",NA,NA,NA,NA,NA,0.776046157,NA,NA,NA,NA,NA,NA,NA,NA,NA,NA,FALSE,"VGG_typ","P_F_Theresa_May.png P_M_nigel_farage.png"
NA,"P_F_Theresa_May.png","P_M_Sajid_Javid.png",NA,NA,NA,NA,NA,0.89343068,NA,NA,NA,NA,NA,NA,NA,NA,NA,NA,FALSE,"VGG_typ","P_F_Theresa_May.png P_M_Sajid_Javid.png"
NA,"P_F_Theresa_May.png","P_M_Tony_Blair.png",NA,NA,NA,NA,NA,0.702119261,NA,NA,NA,NA,NA,NA,NA,NA,NA,NA,FALSE,"VGG_typ","P_F_Theresa_May.png P_M_Tony_Blair.png"
NA,"P_M_david_camer.png","P_M_Gordon_Brown.png",NA,NA,NA,NA,NA,0.83159171,NA,NA,NA,NA,NA,NA,NA,NA,NA,NA,FALSE,"VGG_typ","P_M_david_camer.png P_M_Gordon_Brown.png"
NA,"P_M_david_camer.png","P_M_jeremy_corbyn.png",NA,NA,NA,NA,NA,0.728524715,NA,NA,NA,NA,NA,NA,NA,NA,NA,NA,FALSE,"VGG_typ","P_M_david_camer.png P_M_jeremy_corbyn.png"
NA,"P_M_david_camer.png","P_M_keir_starmer.png",NA,NA,NA,NA,NA,0.770362988,NA,NA,NA,NA,NA,NA,NA,NA,NA,NA,FALSE,"VGG_typ","P_M_david_camer.png P_M_keir_starmer.png"
NA,"P_M_david_camer.png","P_M_Michael_Gove.png",NA,NA,NA,NA,NA,0.679444522,NA,NA,NA,NA,NA,NA,NA,NA,NA,NA,FALSE,"VGG_typ","P_M_david_camer.png P_M_Michael_Gove.png"
NA,"P_M_david_camer.png","P_M_nigel_farage.png",NA,NA,NA,NA,NA,0.810061336,NA,NA,NA,NA,NA,NA,NA,NA,NA,NA,FALSE,"VGG_typ","P_M_david_camer.png P_M_nigel_farage.png"
NA,"P_M_david_camer.png","P_M_Sajid_Javid.png",NA,NA,NA,NA,NA,0.808673277,NA,NA,NA,NA,NA,NA,NA,NA,NA,NA,FALSE,"VGG_typ","P_M_david_camer.png P_M_Sajid_Javid.png"
NA,"P_M_david_camer.png","P_M_Tony_Blair.png",NA,NA,NA,NA,NA,0.687711269,NA,NA,NA,NA,NA,NA,NA,NA,NA,NA,FALSE,"VGG_typ","P_M_david_camer.png P_M_Tony_Blair.png"
NA,"P_M_Gordon_Brown.png","P_M_jeremy_corbyn.png",NA,NA,NA,NA,NA,0.752810702,NA,NA,NA,NA,NA,NA,NA,NA,NA,NA,FALSE,"VGG_typ","P_M_Gordon_Brown.png P_M_jeremy_corbyn.png"
NA,"P_M_Gordon_Brown.png","P_M_keir_starmer.png",NA,NA,NA,NA,NA,0.752796695,NA,NA,NA,NA,NA,NA,NA,NA,NA,NA,FALSE,"VGG_typ","P_M_Gordon_Brown.png P_M_keir_starmer.png"
NA,"P_M_Gordon_Brown.png","P_M_Michael_Gove.png",NA,NA,NA,NA,NA,0.894025832,NA,NA,NA,NA,NA,NA,NA,NA,NA,NA,FALSE,"VGG_typ","P_M_Gordon_Brown.png P_M_Michael_Gove.png"
NA,"P_M_Gordon_Brown.png","P_M_nigel_farage.png",NA,NA,NA,NA,NA,0.802058056,NA,NA,NA,NA,NA,NA,NA,NA,NA,NA,FALSE,"VGG_typ","P_M_Gordon_Brown.png P_M_nigel_farage.png"
NA,"P_M_Gordon_Brown.png","P_M_Sajid_Javid.png",NA,NA,NA,NA,NA,0.743502975,NA,NA,NA,NA,NA,NA,NA,NA,NA,NA,FALSE,"VGG_typ","P_M_Gordon_Brown.png P_M_Sajid_Javid.png"
NA,"P_M_Gordon_Brown.png","P_M_Tony_Blair.png",NA,NA,NA,NA,NA,0.717805743,NA,NA,NA,NA,NA,NA,NA,NA,NA,NA,FALSE,"VGG_typ","P_M_Gordon_Brown.png P_M_Tony_Blair.png"
NA,"P_M_jeremy_corbyn.png","P_M_keir_starmer.png",NA,NA,NA,NA,NA,0.846009567,NA,NA,NA,NA,NA,NA,NA,NA,NA,NA,FALSE,"VGG_typ","P_M_jeremy_corbyn.png P_M_keir_starmer.png"
NA,"P_M_jeremy_corbyn.png","P_M_Michael_Gove.png",NA,NA,NA,NA,NA,0.817845225,NA,NA,NA,NA,NA,NA,NA,NA,NA,NA,FALSE,"VGG_typ","P_M_jeremy_corbyn.png P_M_Michael_Gove.png"
NA,"P_M_jeremy_corbyn.png","P_M_nigel_farage.png",NA,NA,NA,NA,NA,0.789224431,NA,NA,NA,NA,NA,NA,NA,NA,NA,NA,FALSE,"VGG_typ","P_M_jeremy_corbyn.png P_M_nigel_farage.png"
NA,"P_M_jeremy_corbyn.png","P_M_Sajid_Javid.png",NA,NA,NA,NA,NA,0.873983756,NA,NA,NA,NA,NA,NA,NA,NA,NA,NA,FALSE,"VGG_typ","P_M_jeremy_corbyn.png P_M_Sajid_Javid.png"
NA,"P_M_jeremy_corbyn.png","P_M_Tony_Blair.png",NA,NA,NA,NA,NA,0.783442363,NA,NA,NA,NA,NA,NA,NA,NA,NA,NA,FALSE,"VGG_typ","P_M_jeremy_corbyn.png P_M_Tony_Blair.png"
NA,"P_M_keir_starmer.png","P_M_Michael_Gove.png",NA,NA,NA,NA,NA,0.816864535,NA,NA,NA,NA,NA,NA,NA,NA,NA,NA,FALSE,"VGG_typ","P_M_keir_starmer.png P_M_Michael_Gove.png"
NA,"P_M_keir_starmer.png","P_M_nigel_farage.png",NA,NA,NA,NA,NA,0.826421425,NA,NA,NA,NA,NA,NA,NA,NA,NA,NA,FALSE,"VGG_typ","P_M_keir_starmer.png P_M_nigel_farage.png"
NA,"P_M_keir_starmer.png","P_M_Sajid_Javid.png",NA,NA,NA,NA,NA,0.856114924,NA,NA,NA,NA,NA,NA,NA,NA,NA,NA,FALSE,"VGG_typ","P_M_keir_starmer.png P_M_Sajid_Javid.png"
NA,"P_M_keir_starmer.png","P_M_Tony_Blair.png",NA,NA,NA,NA,NA,0.764493555,NA,NA,NA,NA,NA,NA,NA,NA,NA,NA,FALSE,"VGG_typ","P_M_keir_starmer.png P_M_Tony_Blair.png"
NA,"P_M_Michael_Gove.png","P_M_nigel_farage.png",NA,NA,NA,NA,NA,0.621048301,NA,NA,NA,NA,NA,NA,NA,NA,NA,NA,FALSE,"VGG_typ","P_M_Michael_Gove.png P_M_nigel_farage.png"
NA,"P_M_Michael_Gove.png","P_M_Sajid_Javid.png",NA,NA,NA,NA,NA,0.743504524,NA,NA,NA,NA,NA,NA,NA,NA,NA,NA,FALSE,"VGG_typ","P_M_Michael_Gove.png P_M_Sajid_Javid.png"
NA,"P_M_Michael_Gove.png","P_M_Tony_Blair.png",NA,NA,NA,NA,NA,0.687998742,NA,NA,NA,NA,NA,NA,NA,NA,NA,NA,FALSE,"VGG_typ","P_M_Michael_Gove.png P_M_Tony_Blair.png"
NA,"P_M_nigel_farage.png","P_M_Sajid_Javid.png",NA,NA,NA,NA,NA,0.682793319,NA,NA,NA,NA,NA,NA,NA,NA,NA,NA,FALSE,"VGG_typ","P_M_nigel_farage.png P_M_Sajid_Javid.png"
NA,"P_M_nigel_farage.png","P_M_Tony_Blair.png",NA,NA,NA,NA,NA,0.703727156,NA,NA,NA,NA,NA,NA,NA,NA,NA,NA,FALSE,"VGG_typ","P_M_nigel_farage.png P_M_Tony_Blair.png"
NA,"P_M_Sajid_Javid.png","P_M_Tony_Blair.png",NA,NA,NA,NA,NA,0.811351746,NA,NA,NA,NA,NA,NA,NA,NA,NA,NA,FALSE,"VGG_typ","P_M_Sajid_Javid.png P_M_Tony_Blair.png"
