"RT","img_1","img_2","isSameProffesion","img1proffesion","img2proffesion","img1Gender","img2Gender","keyPressed","participant","time","normlised_keyPress","age","gender","handedness","isFamiliar_img1","isFamiliar_img2","vividness_img1","vividness_img2","reject_trial","condition","pair"
NA,"E_F_Dawn_Roma_French.png","E_F_Jennifer_Saunders.png",NA,NA,NA,NA,NA,0.683354706,NA,NA,NA,NA,NA,NA,NA,NA,NA,NA,FALSE,"VGG_nontyp","E_F_Dawn_Roma_French.png E_F_Jennifer_Saunders.png"
NA,"E_F_Dawn_Roma_French.png","E_F_Julie_Walters.png",NA,NA,NA,NA,NA,0.555331469,NA,NA,NA,NA,NA,NA,NA,NA,NA,NA,FALSE,"VGG_nontyp","E_F_Dawn_Roma_French.png E_F_Julie_Walters.png"
NA,"E_F_Dawn_Roma_French.png","E_F_Sarah_Millican.png",NA,NA,NA,NA,NA,0.860026672,NA,NA,NA,NA,NA,NA,NA,NA,NA,NA,FALSE,"VGG_nontyp","E_F_Dawn_Roma_French.png E_F_Sarah_Millican.png"
NA,"E_F_Dawn_Roma_French.png","E_M_Ewan_McGregor.png",NA,NA,NA,NA,NA,0.861853674,NA,NA,NA,NA,NA,NA,NA,NA,NA,NA,FALSE,"VGG_nontyp","E_F_Dawn_Roma_French.png E_M_Ewan_McGregor.png"
NA,"E_F_Dawn_Roma_French.png","E_M_Jimmy_Carr.png",NA,NA,NA,NA,NA,0.823380217,NA,NA,NA,NA,NA,NA,NA,NA,NA,NA,FALSE,"VGG_nontyp","E_F_Dawn_Roma_French.png E_M_Jimmy_Carr.png"
NA,"E_F_Dawn_Roma_French.png","E_M_Michael_McIntyr.png",NA,NA,NA,NA,NA,0.772920251,NA,NA,NA,NA,NA,NA,NA,NA,NA,NA,FALSE,"VGG_nontyp","E_F_Dawn_Roma_French.png E_M_Michael_McIntyr.png"
NA,"E_F_Dawn_Roma_French.png","E_M_Peter_Kay.png",NA,NA,NA,NA,NA,0.868108585,NA,NA,NA,NA,NA,NA,NA,NA,NA,NA,FALSE,"VGG_nontyp","E_F_Dawn_Roma_French.png E_M_Peter_Kay.png"
NA,"E_F_Dawn_Roma_French.png","E_M_Russell_Howard.png",NA,NA,NA,NA,NA,0.820993647,NA,NA,NA,NA,NA,NA,NA,NA,NA,NA,FALSE,"VGG_nontyp","E_F_Dawn_Roma_French.png E_M_Russell_Howard.png"
NA,"E_F_Dawn_Roma_French.png","E_M_Simon_Pegg.png",NA,NA,NA,NA,NA,0.852289885,NA,NA,NA,NA,NA,NA,NA,NA,NA,NA,FALSE,"VGG_nontyp","E_F_Dawn_Roma_French.png E_M_Simon_Pegg.png"
NA,"E_F_Dawn_Roma_French.png","P_F_nicola_sturge.png",NA,NA,NA,NA,NA,0.715056896,NA,NA,NA,NA,NA,NA,NA,NA,NA,NA,FALSE,"VGG_nontyp","E_F_Dawn_Roma_French.png P_F_nicola_sturge.png"
NA,"E_F_Dawn_Roma_French.png","P_F_Theresa_May.png",NA,NA,NA,NA,NA,0.800360337,NA,NA,NA,NA,NA,NA,NA,NA,NA,NA,FALSE,"VGG_nontyp","E_F_Dawn_Roma_French.png P_F_Theresa_May.png"
NA,"E_F_Dawn_Roma_French.png","P_M_david_camer.png",NA,NA,NA,NA,NA,0.845621943,NA,NA,NA,NA,NA,NA,NA,NA,NA,NA,FALSE,"VGG_nontyp","E_F_Dawn_Roma_French.png P_M_david_camer.png"
NA,"E_F_Dawn_Roma_French.png","P_M_Gordon_Brown.png",NA,NA,NA,NA,NA,0.793561086,NA,NA,NA,NA,NA,NA,NA,NA,NA,NA,FALSE,"VGG_nontyp","E_F_Dawn_Roma_French.png P_M_Gordon_Brown.png"
NA,"E_F_Dawn_Roma_French.png","P_M_jeremy_corbyn.png",NA,NA,NA,NA,NA,0.899159484,NA,NA,NA,NA,NA,NA,NA,NA,NA,NA,FALSE,"VGG_nontyp","E_F_Dawn_Roma_French.png P_M_jeremy_corbyn.png"
NA,"E_F_Dawn_Roma_French.png","P_M_keir_starmer.png",NA,NA,NA,NA,NA,0.744454414,NA,NA,NA,NA,NA,NA,NA,NA,NA,NA,FALSE,"VGG_nontyp","E_F_Dawn_Roma_French.png P_M_keir_starmer.png"
NA,"E_F_Dawn_Roma_French.png","P_M_Michael_Gove.png",NA,NA,NA,NA,NA,0.806674898,NA,NA,NA,NA,NA,NA,NA,NA,NA,NA,FALSE,"VGG_nontyp","E_F_Dawn_Roma_French.png P_M_Michael_Gove.png"
NA,"E_F_Dawn_Roma_French.png","P_M_nigel_farage.png",NA,NA,NA,NA,NA,0.797108322,NA,NA,NA,NA,NA,NA,NA,NA,NA,NA,FALSE,"VGG_nontyp","E_F_Dawn_Roma_French.png P_M_nigel_farage.png"
NA,"E_F_Dawn_Roma_French.png","P_M_Sajid_Javid.png",NA,NA,NA,NA,NA,0.882729746,NA,NA,NA,NA,NA,NA,NA,NA,NA,NA,FALSE,"VGG_nontyp","E_F_Dawn_Roma_French.png P_M_Sajid_Javid.png"
NA,"E_F_Dawn_Roma_French.png","P_M_Tony_Blair.png",NA,NA,NA,NA,NA,0.662326425,NA,NA,NA,NA,NA,NA,NA,NA,NA,NA,FALSE,"VGG_nontyp","E_F_Dawn_Roma_French.png P_M_Tony_Blair.png"
NA,"E_F_Jennifer_Saunders.png","E_F_Julie_Walters.png",NA,NA,NA,NA,NA,0.552126884,NA,NA,NA,NA,NA,NA,NA,NA,NA,NA,FALSE,"VGG_nontyp","E_F_Jennifer_Saunders.png E_F_Julie_Walters.png"
NA,"E_F_Jennifer_Saunders.png","E_F_Sarah_Millican.png",NA,NA,NA,NA,NA,0.786582276,NA,NA,NA,NA,NA,NA,NA,NA,NA,NA,FALSE,"VGG_nontyp","E_F_Jennifer_Saunders.png E_F_Sarah_Millican.png"
NA,"E_F_Jennifer_Saunders.png","E_M_Ewan_McGregor.png",NA,NA,NA,NA,NA,0.746210903,NA,NA,NA,NA,NA,NA,NA,NA,NA,NA,FALSE,"VGG_nontyp","E_F_Jennifer_Saunders.png E_M_Ewan_McGregor.png"
NA,"E_F_Jennifer_Saunders.png","E_M_Jimmy_Carr.png",NA,NA,NA,NA,NA,0.879081763,NA,NA,NA,NA,NA,NA,NA,NA,NA,NA,FALSE,"VGG_nontyp","E_F_Jennifer_Saunders.png E_M_Jimmy_Carr.png"
NA,"E_F_Jennifer_Saunders.png","E_M_Michael_McIntyr.png",NA,NA,NA,NA,NA,0.752902225,NA,NA,NA,NA,NA,NA,NA,NA,NA,NA,FALSE,"VGG_nontyp","E_F_Jennifer_Saunders.png E_M_Michael_McIntyr.png"
NA,"E_F_Jennifer_Saunders.png","E_M_Peter_Kay.png",NA,NA,NA,NA,NA,0.885854892,NA,NA,NA,NA,NA,NA,NA,NA,NA,NA,FALSE,"VGG_nontyp","E_F_Jennifer_Saunders.png E_M_Peter_Kay.png"
NA,"E_F_Jennifer_Saunders.png","E_M_Russell_Howard.png",NA,NA,NA,NA,NA,0.701063991,NA,NA,NA,NA,NA,NA,NA,NA,NA,NA,FALSE,"VGG_nontyp","E_F_Jennifer_Saunders.png E_M_Russell_Howard.png"
NA,"E_F_Jennifer_Saunders.png","E_M_Simon_Pegg.png",NA,NA,NA,NA,NA,0.775052801,NA,NA,NA,NA,NA,NA,NA,NA,NA,NA,FALSE,"VGG_nontyp","E_F_Jennifer_Saunders.png E_M_Simon_Pegg.png"
NA,"E_F_Jennifer_Saunders.png","P_F_nicola_sturge.png",NA,NA,NA,NA,NA,0.61276406,NA,NA,NA,NA,NA,NA,NA,NA,NA,NA,FALSE,"VGG_nontyp","E_F_Jennifer_Saunders.png P_F_nicola_sturge.png"
NA,"E_F_Jennifer_Saunders.png","P_F_Theresa_May.png",NA,NA,NA,NA,NA,0.645455599,NA,NA,NA,NA,NA,NA,NA,NA,NA,NA,FALSE,"VGG_nontyp","E_F_Jennifer_Saunders.png P_F_Theresa_May.png"
NA,"E_F_Jennifer_Saunders.png","P_M_david_camer.png",NA,NA,NA,NA,NA,0.8060866,NA,NA,NA,NA,NA,NA,NA,NA,NA,NA,FALSE,"VGG_nontyp","E_F_Jennifer_Saunders.png P_M_david_camer.png"
NA,"E_F_Jennifer_Saunders.png","P_M_Gordon_Brown.png",NA,NA,NA,NA,NA,0.718167275,NA,NA,NA,NA,NA,NA,NA,NA,NA,NA,FALSE,"VGG_nontyp","E_F_Jennifer_Saunders.png P_M_Gordon_Brown.png"
NA,"E_F_Jennifer_Saunders.png","P_M_jeremy_corbyn.png",NA,NA,NA,NA,NA,0.890500851,NA,NA,NA,NA,NA,NA,NA,NA,NA,NA,FALSE,"VGG_nontyp","E_F_Jennifer_Saunders.png P_M_jeremy_corbyn.png"
NA,"E_F_Jennifer_Saunders.png","P_M_keir_starmer.png",NA,NA,NA,NA,NA,0.709687501,NA,NA,NA,NA,NA,NA,NA,NA,NA,NA,FALSE,"VGG_nontyp","E_F_Jennifer_Saunders.png P_M_keir_starmer.png"
NA,"E_F_Jennifer_Saunders.png","P_M_Michael_Gove.png",NA,NA,NA,NA,NA,0.753994107,NA,NA,NA,NA,NA,NA,NA,NA,NA,NA,FALSE,"VGG_nontyp","E_F_Jennifer_Saunders.png P_M_Michael_Gove.png"
NA,"E_F_Jennifer_Saunders.png","P_M_nigel_farage.png",NA,NA,NA,NA,NA,0.824887469,NA,NA,NA,NA,NA,NA,NA,NA,NA,NA,FALSE,"VGG_nontyp","E_F_Jennifer_Saunders.png P_M_nigel_farage.png"
NA,"E_F_Jennifer_Saunders.png","P_M_Sajid_Javid.png",NA,NA,NA,NA,NA,0.924530782,NA,NA,NA,NA,NA,NA,NA,NA,NA,NA,FALSE,"VGG_nontyp","E_F_Jennifer_Saunders.png P_M_Sajid_Javid.png"
NA,"E_F_Jennifer_Saunders.png","P_M_Tony_Blair.png",NA,NA,NA,NA,NA,0.676734269,NA,NA,NA,NA,NA,NA,NA,NA,NA,NA,FALSE,"VGG_nontyp","E_F_Jennifer_Saunders.png P_M_Tony_Blair.png"
NA,"E_F_Julie_Walters.png","E_F_Sarah_Millican.png",NA,NA,NA,NA,NA,0.734112084,NA,NA,NA,NA,NA,NA,NA,NA,NA,NA,FALSE,"VGG_nontyp","E_F_Julie_Walters.png E_F_Sarah_Millican.png"
NA,"E_F_Julie_Walters.png","E_M_Ewan_McGregor.png",NA,NA,NA,NA,NA,0.77620326,NA,NA,NA,NA,NA,NA,NA,NA,NA,NA,FALSE,"VGG_nontyp","E_F_Julie_Walters.png E_M_Ewan_McGregor.png"
NA,"E_F_Julie_Walters.png","E_M_Jimmy_Carr.png",NA,NA,NA,NA,NA,0.746596009,NA,NA,NA,NA,NA,NA,NA,NA,NA,NA,FALSE,"VGG_nontyp","E_F_Julie_Walters.png E_M_Jimmy_Carr.png"
NA,"E_F_Julie_Walters.png","E_M_Michael_McIntyr.png",NA,NA,NA,NA,NA,0.687444866,NA,NA,NA,NA,NA,NA,NA,NA,NA,NA,FALSE,"VGG_nontyp","E_F_Julie_Walters.png E_M_Michael_McIntyr.png"
NA,"E_F_Julie_Walters.png","E_M_Peter_Kay.png",NA,NA,NA,NA,NA,0.877536371,NA,NA,NA,NA,NA,NA,NA,NA,NA,NA,FALSE,"VGG_nontyp","E_F_Julie_Walters.png E_M_Peter_Kay.png"
NA,"E_F_Julie_Walters.png","E_M_Russell_Howard.png",NA,NA,NA,NA,NA,0.786185816,NA,NA,NA,NA,NA,NA,NA,NA,NA,NA,FALSE,"VGG_nontyp","E_F_Julie_Walters.png E_M_Russell_Howard.png"
NA,"E_F_Julie_Walters.png","E_M_Simon_Pegg.png",NA,NA,NA,NA,NA,0.748795271,NA,NA,NA,NA,NA,NA,NA,NA,NA,NA,FALSE,"VGG_nontyp","E_F_Julie_Walters.png E_M_Simon_Pegg.png"
NA,"E_F_Julie_Walters.png","P_F_nicola_sturge.png",NA,NA,NA,NA,NA,0.574724227,NA,NA,NA,NA,NA,NA,NA,NA,NA,NA,FALSE,"VGG_nontyp","E_F_Julie_Walters.png P_F_nicola_sturge.png"
NA,"E_F_Julie_Walters.png","P_F_Theresa_May.png",NA,NA,NA,NA,NA,0.678091407,NA,NA,NA,NA,NA,NA,NA,NA,NA,NA,FALSE,"VGG_nontyp","E_F_Julie_Walters.png P_F_Theresa_May.png"
NA,"E_F_Julie_Walters.png","P_M_david_camer.png",NA,NA,NA,NA,NA,0.878219694,NA,NA,NA,NA,NA,NA,NA,NA,NA,NA,FALSE,"VGG_nontyp","E_F_Julie_Walters.png P_M_david_camer.png"
NA,"E_F_Julie_Walters.png","P_M_Gordon_Brown.png",NA,NA,NA,NA,NA,0.765172407,NA,NA,NA,NA,NA,NA,NA,NA,NA,NA,FALSE,"VGG_nontyp","E_F_Julie_Walters.png P_M_Gordon_Brown.png"
NA,"E_F_Julie_Walters.png","P_M_jeremy_corbyn.png",NA,NA,NA,NA,NA,0.926687241,NA,NA,NA,NA,NA,NA,NA,NA,NA,NA,FALSE,"VGG_nontyp","E_F_Julie_Walters.png P_M_jeremy_corbyn.png"
NA,"E_F_Julie_Walters.png","P_M_keir_starmer.png",NA,NA,NA,NA,NA,0.705975592,NA,NA,NA,NA,NA,NA,NA,NA,NA,NA,FALSE,"VGG_nontyp","E_F_Julie_Walters.png P_M_keir_starmer.png"
NA,"E_F_Julie_Walters.png","P_M_Michael_Gove.png",NA,NA,NA,NA,NA,0.697781235,NA,NA,NA,NA,NA,NA,NA,NA,NA,NA,FALSE,"VGG_nontyp","E_F_Julie_Walters.png P_M_Michael_Gove.png"
NA,"E_F_Julie_Walters.png","P_M_nigel_farage.png",NA,NA,NA,NA,NA,0.843843699,NA,NA,NA,NA,NA,NA,NA,NA,NA,NA,FALSE,"VGG_nontyp","E_F_Julie_Walters.png P_M_nigel_farage.png"
NA,"E_F_Julie_Walters.png","P_M_Sajid_Javid.png",NA,NA,NA,NA,NA,0.829491839,NA,NA,NA,NA,NA,NA,NA,NA,NA,NA,FALSE,"VGG_nontyp","E_F_Julie_Walters.png P_M_Sajid_Javid.png"
NA,"E_F_Julie_Walters.png","P_M_Tony_Blair.png",NA,NA,NA,NA,NA,0.705496937,NA,NA,NA,NA,NA,NA,NA,NA,NA,NA,FALSE,"VGG_nontyp","E_F_Julie_Walters.png P_M_Tony_Blair.png"
NA,"E_F_Sarah_Millican.png","E_M_Ewan_McGregor.png",NA,NA,NA,NA,NA,0.773243099,NA,NA,NA,NA,NA,NA,NA,NA,NA,NA,FALSE,"VGG_nontyp","E_F_Sarah_Millican.png E_M_Ewan_McGregor.png"
NA,"E_F_Sarah_Millican.png","E_M_Jimmy_Carr.png",NA,NA,NA,NA,NA,0.674970776,NA,NA,NA,NA,NA,NA,NA,NA,NA,NA,FALSE,"VGG_nontyp","E_F_Sarah_Millican.png E_M_Jimmy_Carr.png"
NA,"E_F_Sarah_Millican.png","E_M_Michael_McIntyr.png",NA,NA,NA,NA,NA,0.695742488,NA,NA,NA,NA,NA,NA,NA,NA,NA,NA,FALSE,"VGG_nontyp","E_F_Sarah_Millican.png E_M_Michael_McIntyr.png"
NA,"E_F_Sarah_Millican.png","E_M_Peter_Kay.png",NA,NA,NA,NA,NA,0.816796064,NA,NA,NA,NA,NA,NA,NA,NA,NA,NA,FALSE,"VGG_nontyp","E_F_Sarah_Millican.png E_M_Peter_Kay.png"
NA,"E_F_Sarah_Millican.png","E_M_Russell_Howard.png",NA,NA,NA,NA,NA,0.773282886,NA,NA,NA,NA,NA,NA,NA,NA,NA,NA,FALSE,"VGG_nontyp","E_F_Sarah_Millican.png E_M_Russell_Howard.png"
NA,"E_F_Sarah_Millican.png","E_M_Simon_Pegg.png",NA,NA,NA,NA,NA,0.736685276,NA,NA,NA,NA,NA,NA,NA,NA,NA,NA,FALSE,"VGG_nontyp","E_F_Sarah_Millican.png E_M_Simon_Pegg.png"
NA,"E_F_Sarah_Millican.png","P_F_nicola_sturge.png",NA,NA,NA,NA,NA,0.6677863,NA,NA,NA,NA,NA,NA,NA,NA,NA,NA,FALSE,"VGG_nontyp","E_F_Sarah_Millican.png P_F_nicola_sturge.png"
NA,"E_F_Sarah_Millican.png","P_F_Theresa_May.png",NA,NA,NA,NA,NA,0.648094296,NA,NA,NA,NA,NA,NA,NA,NA,NA,NA,FALSE,"VGG_nontyp","E_F_Sarah_Millican.png P_F_Theresa_May.png"
NA,"E_F_Sarah_Millican.png","P_M_david_camer.png",NA,NA,NA,NA,NA,0.695090622,NA,NA,NA,NA,NA,NA,NA,NA,NA,NA,FALSE,"VGG_nontyp","E_F_Sarah_Millican.png P_M_david_camer.png"
NA,"E_F_Sarah_Millican.png","P_M_Gordon_Brown.png",NA,NA,NA,NA,NA,0.827190384,NA,NA,NA,NA,NA,NA,NA,NA,NA,NA,FALSE,"VGG_nontyp","E_F_Sarah_Millican.png P_M_Gordon_Brown.png"
NA,"E_F_Sarah_Millican.png","P_M_jeremy_corbyn.png",NA,NA,NA,NA,NA,0.749289483,NA,NA,NA,NA,NA,NA,NA,NA,NA,NA,FALSE,"VGG_nontyp","E_F_Sarah_Millican.png P_M_jeremy_corbyn.png"
NA,"E_F_Sarah_Millican.png","P_M_keir_starmer.png",NA,NA,NA,NA,NA,0.767652899,NA,NA,NA,NA,NA,NA,NA,NA,NA,NA,FALSE,"VGG_nontyp","E_F_Sarah_Millican.png P_M_keir_starmer.png"
NA,"E_F_Sarah_Millican.png","P_M_Michael_Gove.png",NA,NA,NA,NA,NA,0.722734302,NA,NA,NA,NA,NA,NA,NA,NA,NA,NA,FALSE,"VGG_nontyp","E_F_Sarah_Millican.png P_M_Michael_Gove.png"
NA,"E_F_Sarah_Millican.png","P_M_nigel_farage.png",NA,NA,NA,NA,NA,0.867559239,NA,NA,NA,NA,NA,NA,NA,NA,NA,NA,FALSE,"VGG_nontyp","E_F_Sarah_Millican.png P_M_nigel_farage.png"
NA,"E_F_Sarah_Millican.png","P_M_Sajid_Javid.png",NA,NA,NA,NA,NA,0.875418223,NA,NA,NA,NA,NA,NA,NA,NA,NA,NA,FALSE,"VGG_nontyp","E_F_Sarah_Millican.png P_M_Sajid_Javid.png"
NA,"E_F_Sarah_Millican.png","P_M_Tony_Blair.png",NA,NA,NA,NA,NA,0.849687338,NA,NA,NA,NA,NA,NA,NA,NA,NA,NA,FALSE,"VGG_nontyp","E_F_Sarah_Millican.png P_M_Tony_Blair.png"
NA,"E_M_Ewan_McGregor.png","E_M_Jimmy_Carr.png",NA,NA,NA,NA,NA,0.746637851,NA,NA,NA,NA,NA,NA,NA,NA,NA,NA,FALSE,"VGG_nontyp","E_M_Ewan_McGregor.png E_M_Jimmy_Carr.png"
NA,"E_M_Ewan_McGregor.png","E_M_Michael_McIntyr.png",NA,NA,NA,NA,NA,0.731518149,NA,NA,NA,NA,NA,NA,NA,NA,NA,NA,FALSE,"VGG_nontyp","E_M_Ewan_McGregor.png E_M_Michael_McIntyr.png"
NA,"E_M_Ewan_McGregor.png","E_M_Peter_Kay.png",NA,NA,NA,NA,NA,0.823667839,NA,NA,NA,NA,NA,NA,NA,NA,NA,NA,FALSE,"VGG_nontyp","E_M_Ewan_McGregor.png E_M_Peter_Kay.png"
NA,"E_M_Ewan_McGregor.png","E_M_Russell_Howard.png",NA,NA,NA,NA,NA,0.812428176,NA,NA,NA,NA,NA,NA,NA,NA,NA,NA,FALSE,"VGG_nontyp","E_M_Ewan_McGregor.png E_M_Russell_Howard.png"
NA,"E_M_Ewan_McGregor.png","E_M_Simon_Pegg.png",NA,NA,NA,NA,NA,0.665013015,NA,NA,NA,NA,NA,NA,NA,NA,NA,NA,FALSE,"VGG_nontyp","E_M_Ewan_McGregor.png E_M_Simon_Pegg.png"
NA,"E_M_Ewan_McGregor.png","P_F_nicola_sturge.png",NA,NA,NA,NA,NA,0.81778501,NA,NA,NA,NA,NA,NA,NA,NA,NA,NA,FALSE,"VGG_nontyp","E_M_Ewan_McGregor.png P_F_nicola_sturge.png"
NA,"E_M_Ewan_McGregor.png","P_F_Theresa_May.png",NA,NA,NA,NA,NA,0.845007807,NA,NA,NA,NA,NA,NA,NA,NA,NA,NA,FALSE,"VGG_nontyp","E_M_Ewan_McGregor.png P_F_Theresa_May.png"
NA,"E_M_Ewan_McGregor.png","P_M_david_camer.png",NA,NA,NA,NA,NA,0.800231352,NA,NA,NA,NA,NA,NA,NA,NA,NA,NA,FALSE,"VGG_nontyp","E_M_Ewan_McGregor.png P_M_david_camer.png"
NA,"E_M_Ewan_McGregor.png","P_M_Gordon_Brown.png",NA,NA,NA,NA,NA,0.810722724,NA,NA,NA,NA,NA,NA,NA,NA,NA,NA,FALSE,"VGG_nontyp","E_M_Ewan_McGregor.png P_M_Gordon_Brown.png"
NA,"E_M_Ewan_McGregor.png","P_M_jeremy_corbyn.png",NA,NA,NA,NA,NA,0.698304385,NA,NA,NA,NA,NA,NA,NA,NA,NA,NA,FALSE,"VGG_nontyp","E_M_Ewan_McGregor.png P_M_jeremy_corbyn.png"
NA,"E_M_Ewan_McGregor.png","P_M_keir_starmer.png",NA,NA,NA,NA,NA,0.771587729,NA,NA,NA,NA,NA,NA,NA,NA,NA,NA,FALSE,"VGG_nontyp","E_M_Ewan_McGregor.png P_M_keir_starmer.png"
NA,"E_M_Ewan_McGregor.png","P_M_Michael_Gove.png",NA,NA,NA,NA,NA,0.738021672,NA,NA,NA,NA,NA,NA,NA,NA,NA,NA,FALSE,"VGG_nontyp","E_M_Ewan_McGregor.png P_M_Michael_Gove.png"
NA,"E_M_Ewan_McGregor.png","P_M_nigel_farage.png",NA,NA,NA,NA,NA,0.803913161,NA,NA,NA,NA,NA,NA,NA,NA,NA,NA,FALSE,"VGG_nontyp","E_M_Ewan_McGregor.png P_M_nigel_farage.png"
NA,"E_M_Ewan_McGregor.png","P_M_Sajid_Javid.png",NA,NA,NA,NA,NA,0.893187188,NA,NA,NA,NA,NA,NA,NA,NA,NA,NA,FALSE,"VGG_nontyp","E_M_Ewan_McGregor.png P_M_Sajid_Javid.png"
NA,"E_M_Ewan_McGregor.png","P_M_Tony_Blair.png",NA,NA,NA,NA,NA,0.830968261,NA,NA,NA,NA,NA,NA,NA,NA,NA,NA,FALSE,"VGG_nontyp","E_M_Ewan_McGregor.png P_M_Tony_Blair.png"
NA,"E_M_Jimmy_Carr.png","E_M_Michael_McIntyr.png",NA,NA,NA,NA,NA,0.671025813,NA,NA,NA,NA,NA,NA,NA,NA,NA,NA,FALSE,"VGG_nontyp","E_M_Jimmy_Carr.png E_M_Michael_McIntyr.png"
NA,"E_M_Jimmy_Carr.png","E_M_Peter_Kay.png",NA,NA,NA,NA,NA,0.827092871,NA,NA,NA,NA,NA,NA,NA,NA,NA,NA,FALSE,"VGG_nontyp","E_M_Jimmy_Carr.png E_M_Peter_Kay.png"
NA,"E_M_Jimmy_Carr.png","E_M_Russell_Howard.png",NA,NA,NA,NA,NA,0.774689883,NA,NA,NA,NA,NA,NA,NA,NA,NA,NA,FALSE,"VGG_nontyp","E_M_Jimmy_Carr.png E_M_Russell_Howard.png"
NA,"E_M_Jimmy_Carr.png","E_M_Simon_Pegg.png",NA,NA,NA,NA,NA,0.657088965,NA,NA,NA,NA,NA,NA,NA,NA,NA,NA,FALSE,"VGG_nontyp","E_M_Jimmy_Carr.png E_M_Simon_Pegg.png"
NA,"E_M_Jimmy_Carr.png","P_F_nicola_sturge.png",NA,NA,NA,NA,NA,0.744576722,NA,NA,NA,NA,NA,NA,NA,NA,NA,NA,FALSE,"VGG_nontyp","E_M_Jimmy_Carr.png P_F_nicola_sturge.png"
NA,"E_M_Jimmy_Carr.png","P_F_Theresa_May.png",NA,NA,NA,NA,NA,0.844465405,NA,NA,NA,NA,NA,NA,NA,NA,NA,NA,FALSE,"VGG_nontyp","E_M_Jimmy_Carr.png P_F_Theresa_May.png"
NA,"E_M_Jimmy_Carr.png","P_M_david_camer.png",NA,NA,NA,NA,NA,0.864724264,NA,NA,NA,NA,NA,NA,NA,NA,NA,NA,FALSE,"VGG_nontyp","E_M_Jimmy_Carr.png P_M_david_camer.png"
NA,"E_M_Jimmy_Carr.png","P_M_Gordon_Brown.png",NA,NA,NA,NA,NA,0.681025952,NA,NA,NA,NA,NA,NA,NA,NA,NA,NA,FALSE,"VGG_nontyp","E_M_Jimmy_Carr.png P_M_Gordon_Brown.png"
NA,"E_M_Jimmy_Carr.png","P_M_jeremy_corbyn.png",NA,NA,NA,NA,NA,0.871085793,NA,NA,NA,NA,NA,NA,NA,NA,NA,NA,FALSE,"VGG_nontyp","E_M_Jimmy_Carr.png P_M_jeremy_corbyn.png"
NA,"E_M_Jimmy_Carr.png","P_M_keir_starmer.png",NA,NA,NA,NA,NA,0.738063753,NA,NA,NA,NA,NA,NA,NA,NA,NA,NA,FALSE,"VGG_nontyp","E_M_Jimmy_Carr.png P_M_keir_starmer.png"
NA,"E_M_Jimmy_Carr.png","P_M_Michael_Gove.png",NA,NA,NA,NA,NA,0.795398995,NA,NA,NA,NA,NA,NA,NA,NA,NA,NA,FALSE,"VGG_nontyp","E_M_Jimmy_Carr.png P_M_Michael_Gove.png"
NA,"E_M_Jimmy_Carr.png","P_M_nigel_farage.png",NA,NA,NA,NA,NA,0.705007672,NA,NA,NA,NA,NA,NA,NA,NA,NA,NA,FALSE,"VGG_nontyp","E_M_Jimmy_Carr.png P_M_nigel_farage.png"
NA,"E_M_Jimmy_Carr.png","P_M_Sajid_Javid.png",NA,NA,NA,NA,NA,0.855163515,NA,NA,NA,NA,NA,NA,NA,NA,NA,NA,FALSE,"VGG_nontyp","E_M_Jimmy_Carr.png P_M_Sajid_Javid.png"
NA,"E_M_Jimmy_Carr.png","P_M_Tony_Blair.png",NA,NA,NA,NA,NA,0.73250851,NA,NA,NA,NA,NA,NA,NA,NA,NA,NA,FALSE,"VGG_nontyp","E_M_Jimmy_Carr.png P_M_Tony_Blair.png"
NA,"E_M_Michael_McIntyr.png","E_M_Peter_Kay.png",NA,NA,NA,NA,NA,0.897004381,NA,NA,NA,NA,NA,NA,NA,NA,NA,NA,FALSE,"VGG_nontyp","E_M_Michael_McIntyr.png E_M_Peter_Kay.png"
NA,"E_M_Michael_McIntyr.png","E_M_Russell_Howard.png",NA,NA,NA,NA,NA,0.84270297,NA,NA,NA,NA,NA,NA,NA,NA,NA,NA,FALSE,"VGG_nontyp","E_M_Michael_McIntyr.png E_M_Russell_Howard.png"
NA,"E_M_Michael_McIntyr.png","E_M_Simon_Pegg.png",NA,NA,NA,NA,NA,0.810056463,NA,NA,NA,NA,NA,NA,NA,NA,NA,NA,FALSE,"VGG_nontyp","E_M_Michael_McIntyr.png E_M_Simon_Pegg.png"
NA,"E_M_Michael_McIntyr.png","P_F_nicola_sturge.png",NA,NA,NA,NA,NA,0.702224553,NA,NA,NA,NA,NA,NA,NA,NA,NA,NA,FALSE,"VGG_nontyp","E_M_Michael_McIntyr.png P_F_nicola_sturge.png"
NA,"E_M_Michael_McIntyr.png","P_F_Theresa_May.png",NA,NA,NA,NA,NA,0.820524305,NA,NA,NA,NA,NA,NA,NA,NA,NA,NA,FALSE,"VGG_nontyp","E_M_Michael_McIntyr.png P_F_Theresa_May.png"
NA,"E_M_Michael_McIntyr.png","P_M_david_camer.png",NA,NA,NA,NA,NA,0.894301437,NA,NA,NA,NA,NA,NA,NA,NA,NA,NA,FALSE,"VGG_nontyp","E_M_Michael_McIntyr.png P_M_david_camer.png"
NA,"E_M_Michael_McIntyr.png","P_M_Gordon_Brown.png",NA,NA,NA,NA,NA,0.803166091,NA,NA,NA,NA,NA,NA,NA,NA,NA,NA,FALSE,"VGG_nontyp","E_M_Michael_McIntyr.png P_M_Gordon_Brown.png"
NA,"E_M_Michael_McIntyr.png","P_M_jeremy_corbyn.png",NA,NA,NA,NA,NA,0.951707952,NA,NA,NA,NA,NA,NA,NA,NA,NA,NA,FALSE,"VGG_nontyp","E_M_Michael_McIntyr.png P_M_jeremy_corbyn.png"
NA,"E_M_Michael_McIntyr.png","P_M_keir_starmer.png",NA,NA,NA,NA,NA,0.801203489,NA,NA,NA,NA,NA,NA,NA,NA,NA,NA,FALSE,"VGG_nontyp","E_M_Michael_McIntyr.png P_M_keir_starmer.png"
NA,"E_M_Michael_McIntyr.png","P_M_Michael_Gove.png",NA,NA,NA,NA,NA,0.683456331,NA,NA,NA,NA,NA,NA,NA,NA,NA,NA,FALSE,"VGG_nontyp","E_M_Michael_McIntyr.png P_M_Michael_Gove.png"
NA,"E_M_Michael_McIntyr.png","P_M_nigel_farage.png",NA,NA,NA,NA,NA,0.725374877,NA,NA,NA,NA,NA,NA,NA,NA,NA,NA,FALSE,"VGG_nontyp","E_M_Michael_McIntyr.png P_M_nigel_farage.png"
NA,"E_M_Michael_McIntyr.png","P_M_Sajid_Javid.png",NA,NA,NA,NA,NA,0.859973788,NA,NA,NA,NA,NA,NA,NA,NA,NA,NA,FALSE,"VGG_nontyp","E_M_Michael_McIntyr.png P_M_Sajid_Javid.png"
NA,"E_M_Michael_McIntyr.png","P_M_Tony_Blair.png",NA,NA,NA,NA,NA,0.718823701,NA,NA,NA,NA,NA,NA,NA,NA,NA,NA,FALSE,"VGG_nontyp","E_M_Michael_McIntyr.png P_M_Tony_Blair.png"
NA,"E_M_Peter_Kay.png","E_M_Russell_Howard.png",NA,NA,NA,NA,NA,0.773561507,NA,NA,NA,NA,NA,NA,NA,NA,NA,NA,FALSE,"VGG_nontyp","E_M_Peter_Kay.png E_M_Russell_Howard.png"
NA,"E_M_Peter_Kay.png","E_M_Simon_Pegg.png",NA,NA,NA,NA,NA,0.829926699,NA,NA,NA,NA,NA,NA,NA,NA,NA,NA,FALSE,"VGG_nontyp","E_M_Peter_Kay.png E_M_Simon_Pegg.png"
NA,"E_M_Peter_Kay.png","P_F_nicola_sturge.png",NA,NA,NA,NA,NA,0.761563227,NA,NA,NA,NA,NA,NA,NA,NA,NA,NA,FALSE,"VGG_nontyp","E_M_Peter_Kay.png P_F_nicola_sturge.png"
NA,"E_M_Peter_Kay.png","P_F_Theresa_May.png",NA,NA,NA,NA,NA,0.856907368,NA,NA,NA,NA,NA,NA,NA,NA,NA,NA,FALSE,"VGG_nontyp","E_M_Peter_Kay.png P_F_Theresa_May.png"
NA,"E_M_Peter_Kay.png","P_M_david_camer.png",NA,NA,NA,NA,NA,0.638023227,NA,NA,NA,NA,NA,NA,NA,NA,NA,NA,FALSE,"VGG_nontyp","E_M_Peter_Kay.png P_M_david_camer.png"
NA,"E_M_Peter_Kay.png","P_M_Gordon_Brown.png",NA,NA,NA,NA,NA,0.803452417,NA,NA,NA,NA,NA,NA,NA,NA,NA,NA,FALSE,"VGG_nontyp","E_M_Peter_Kay.png P_M_Gordon_Brown.png"
NA,"E_M_Peter_Kay.png","P_M_jeremy_corbyn.png",NA,NA,NA,NA,NA,0.744308591,NA,NA,NA,NA,NA,NA,NA,NA,NA,NA,FALSE,"VGG_nontyp","E_M_Peter_Kay.png P_M_jeremy_corbyn.png"
NA,"E_M_Peter_Kay.png","P_M_keir_starmer.png",NA,NA,NA,NA,NA,0.776312798,NA,NA,NA,NA,NA,NA,NA,NA,NA,NA,FALSE,"VGG_nontyp","E_M_Peter_Kay.png P_M_keir_starmer.png"
NA,"E_M_Peter_Kay.png","P_M_Michael_Gove.png",NA,NA,NA,NA,NA,0.800530314,NA,NA,NA,NA,NA,NA,NA,NA,NA,NA,FALSE,"VGG_nontyp","E_M_Peter_Kay.png P_M_Michael_Gove.png"
NA,"E_M_Peter_Kay.png","P_M_nigel_farage.png",NA,NA,NA,NA,NA,0.852753043,NA,NA,NA,NA,NA,NA,NA,NA,NA,NA,FALSE,"VGG_nontyp","E_M_Peter_Kay.png P_M_nigel_farage.png"
NA,"E_M_Peter_Kay.png","P_M_Sajid_Javid.png",NA,NA,NA,NA,NA,0.831359223,NA,NA,NA,NA,NA,NA,NA,NA,NA,NA,FALSE,"VGG_nontyp","E_M_Peter_Kay.png P_M_Sajid_Javid.png"
NA,"E_M_Peter_Kay.png","P_M_Tony_Blair.png",NA,NA,NA,NA,NA,0.832328901,NA,NA,NA,NA,NA,NA,NA,NA,NA,NA,FALSE,"VGG_nontyp","E_M_Peter_Kay.png P_M_Tony_Blair.png"
NA,"E_M_Russell_Howard.png","E_M_Simon_Pegg.png",NA,NA,NA,NA,NA,0.695066124,NA,NA,NA,NA,NA,NA,NA,NA,NA,NA,FALSE,"VGG_nontyp","E_M_Russell_Howard.png E_M_Simon_Pegg.png"
NA,"E_M_Russell_Howard.png","P_F_nicola_sturge.png",NA,NA,NA,NA,NA,0.807993889,NA,NA,NA,NA,NA,NA,NA,NA,NA,NA,FALSE,"VGG_nontyp","E_M_Russell_Howard.png P_F_nicola_sturge.png"
NA,"E_M_Russell_Howard.png","P_F_Theresa_May.png",NA,NA,NA,NA,NA,0.783926517,NA,NA,NA,NA,NA,NA,NA,NA,NA,NA,FALSE,"VGG_nontyp","E_M_Russell_Howard.png P_F_Theresa_May.png"
NA,"E_M_Russell_Howard.png","P_M_david_camer.png",NA,NA,NA,NA,NA,0.713047147,NA,NA,NA,NA,NA,NA,NA,NA,NA,NA,FALSE,"VGG_nontyp","E_M_Russell_Howard.png P_M_david_camer.png"
NA,"E_M_Russell_Howard.png","P_M_Gordon_Brown.png",NA,NA,NA,NA,NA,0.755102187,NA,NA,NA,NA,NA,NA,NA,NA,NA,NA,FALSE,"VGG_nontyp","E_M_Russell_Howard.png P_M_Gordon_Brown.png"
NA,"E_M_Russell_Howard.png","P_M_jeremy_corbyn.png",NA,NA,NA,NA,NA,0.751760378,NA,NA,NA,NA,NA,NA,NA,NA,NA,NA,FALSE,"VGG_nontyp","E_M_Russell_Howard.png P_M_jeremy_corbyn.png"
NA,"E_M_Russell_Howard.png","P_M_keir_starmer.png",NA,NA,NA,NA,NA,0.619673729,NA,NA,NA,NA,NA,NA,NA,NA,NA,NA,FALSE,"VGG_nontyp","E_M_Russell_Howard.png P_M_keir_starmer.png"
NA,"E_M_Russell_Howard.png","P_M_Michael_Gove.png",NA,NA,NA,NA,NA,0.80353187,NA,NA,NA,NA,NA,NA,NA,NA,NA,NA,FALSE,"VGG_nontyp","E_M_Russell_Howard.png P_M_Michael_Gove.png"
NA,"E_M_Russell_Howard.png","P_M_nigel_farage.png",NA,NA,NA,NA,NA,0.837984726,NA,NA,NA,NA,NA,NA,NA,NA,NA,NA,FALSE,"VGG_nontyp","E_M_Russell_Howard.png P_M_nigel_farage.png"
NA,"E_M_Russell_Howard.png","P_M_Sajid_Javid.png",NA,NA,NA,NA,NA,0.858533889,NA,NA,NA,NA,NA,NA,NA,NA,NA,NA,FALSE,"VGG_nontyp","E_M_Russell_Howard.png P_M_Sajid_Javid.png"
NA,"E_M_Russell_Howard.png","P_M_Tony_Blair.png",NA,NA,NA,NA,NA,0.769257486,NA,NA,NA,NA,NA,NA,NA,NA,NA,NA,FALSE,"VGG_nontyp","E_M_Russell_Howard.png P_M_Tony_Blair.png"
NA,"E_M_Simon_Pegg.png","P_F_nicola_sturge.png",NA,NA,NA,NA,NA,0.687082022,NA,NA,NA,NA,NA,NA,NA,NA,NA,NA,FALSE,"VGG_nontyp","E_M_Simon_Pegg.png P_F_nicola_sturge.png"
NA,"E_M_Simon_Pegg.png","P_F_Theresa_May.png",NA,NA,NA,NA,NA,0.68257907,NA,NA,NA,NA,NA,NA,NA,NA,NA,NA,FALSE,"VGG_nontyp","E_M_Simon_Pegg.png P_F_Theresa_May.png"
NA,"E_M_Simon_Pegg.png","P_M_david_camer.png",NA,NA,NA,NA,NA,0.668034881,NA,NA,NA,NA,NA,NA,NA,NA,NA,NA,FALSE,"VGG_nontyp","E_M_Simon_Pegg.png P_M_david_camer.png"
NA,"E_M_Simon_Pegg.png","P_M_Gordon_Brown.png",NA,NA,NA,NA,NA,0.717307657,NA,NA,NA,NA,NA,NA,NA,NA,NA,NA,FALSE,"VGG_nontyp","E_M_Simon_Pegg.png P_M_Gordon_Brown.png"
NA,"E_M_Simon_Pegg.png","P_M_jeremy_corbyn.png",NA,NA,NA,NA,NA,0.618364394,NA,NA,NA,NA,NA,NA,NA,NA,NA,NA,FALSE,"VGG_nontyp","E_M_Simon_Pegg.png P_M_jeremy_corbyn.png"
NA,"E_M_Simon_Pegg.png","P_M_keir_starmer.png",NA,NA,NA,NA,NA,0.637979239,NA,NA,NA,NA,NA,NA,NA,NA,NA,NA,FALSE,"VGG_nontyp","E_M_Simon_Pegg.png P_M_keir_starmer.png"
NA,"E_M_Simon_Pegg.png","P_M_Michael_Gove.png",NA,NA,NA,NA,NA,0.789081722,NA,NA,NA,NA,NA,NA,NA,NA,NA,NA,FALSE,"VGG_nontyp","E_M_Simon_Pegg.png P_M_Michael_Gove.png"
NA,"E_M_Simon_Pegg.png","P_M_nigel_farage.png",NA,NA,NA,NA,NA,0.708677649,NA,NA,NA,NA,NA,NA,NA,NA,NA,NA,FALSE,"VGG_nontyp","E_M_Simon_Pegg.png P_M_nigel_farage.png"
NA,"E_M_Simon_Pegg.png","P_M_Sajid_Javid.png",NA,NA,NA,NA,NA,0.842791617,NA,NA,NA,NA,NA,NA,NA,NA,NA,NA,FALSE,"VGG_nontyp","E_M_Simon_Pegg.png P_M_Sajid_Javid.png"
NA,"E_M_Simon_Pegg.png","P_M_Tony_Blair.png",NA,NA,NA,NA,NA,0.751707569,NA,NA,NA,NA,NA,NA,NA,NA,NA,NA,FALSE,"VGG_nontyp","E_M_Simon_Pegg.png P_M_Tony_Blair.png"
NA,"P_F_nicola_sturge.png","P_F_Theresa_May.png",NA,NA,NA,NA,NA,0.680580437,NA,NA,NA,NA,NA,NA,NA,NA,NA,NA,FALSE,"VGG_nontyp","P_F_nicola_sturge.png P_F_Theresa_May.png"
NA,"P_F_nicola_sturge.png","P_M_david_camer.png",NA,NA,NA,NA,NA,0.770910278,NA,NA,NA,NA,NA,NA,NA,NA,NA,NA,FALSE,"VGG_nontyp","P_F_nicola_sturge.png P_M_david_camer.png"
NA,"P_F_nicola_sturge.png","P_M_Gordon_Brown.png",NA,NA,NA,NA,NA,0.767087817,NA,NA,NA,NA,NA,NA,NA,NA,NA,NA,FALSE,"VGG_nontyp","P_F_nicola_sturge.png P_M_Gordon_Brown.png"
NA,"P_F_nicola_sturge.png","P_M_jeremy_corbyn.png",NA,NA,NA,NA,NA,0.891443841,NA,NA,NA,NA,NA,NA,NA,NA,NA,NA,FALSE,"VGG_nontyp","P_F_nicola_sturge.png P_M_jeremy_corbyn.png"
NA,"P_F_nicola_sturge.png","P_M_keir_starmer.png",NA,NA,NA,NA,NA,0.68763715,NA,NA,NA,NA,NA,NA,NA,NA,NA,NA,FALSE,"VGG_nontyp","P_F_nicola_sturge.png P_M_keir_starmer.png"
NA,"P_F_nicola_sturge.png","P_M_Michael_Gove.png",NA,NA,NA,NA,NA,0.807560489,NA,NA,NA,NA,NA,NA,NA,NA,NA,NA,FALSE,"VGG_nontyp","P_F_nicola_sturge.png P_M_Michael_Gove.png"
NA,"P_F_nicola_sturge.png","P_M_nigel_farage.png",NA,NA,NA,NA,NA,0.807308838,NA,NA,NA,NA,NA,NA,NA,NA,NA,NA,FALSE,"VGG_nontyp","P_F_nicola_sturge.png P_M_nigel_farage.png"
NA,"P_F_nicola_sturge.png","P_M_Sajid_Javid.png",NA,NA,NA,NA,NA,0.932235621,NA,NA,NA,NA,NA,NA,NA,NA,NA,NA,FALSE,"VGG_nontyp","P_F_nicola_sturge.png P_M_Sajid_Javid.png"
NA,"P_F_nicola_sturge.png","P_M_Tony_Blair.png",NA,NA,NA,NA,NA,0.838013232,NA,NA,NA,NA,NA,NA,NA,NA,NA,NA,FALSE,"VGG_nontyp","P_F_nicola_sturge.png P_M_Tony_Blair.png"
NA,"P_F_Theresa_May.png","P_M_david_camer.png",NA,NA,NA,NA,NA,0.758824274,NA,NA,NA,NA,NA,NA,NA,NA,NA,NA,FALSE,"VGG_nontyp","P_F_Theresa_May.png P_M_david_camer.png"
NA,"P_F_Theresa_May.png","P_M_Gordon_Brown.png",NA,NA,NA,NA,NA,0.842612401,NA,NA,NA,NA,NA,NA,NA,NA,NA,NA,FALSE,"VGG_nontyp","P_F_Theresa_May.png P_M_Gordon_Brown.png"
NA,"P_F_Theresa_May.png","P_M_jeremy_corbyn.png",NA,NA,NA,NA,NA,0.723875165,NA,NA,NA,NA,NA,NA,NA,NA,NA,NA,FALSE,"VGG_nontyp","P_F_Theresa_May.png P_M_jeremy_corbyn.png"
NA,"P_F_Theresa_May.png","P_M_keir_starmer.png",NA,NA,NA,NA,NA,0.827699572,NA,NA,NA,NA,NA,NA,NA,NA,NA,NA,FALSE,"VGG_nontyp","P_F_Theresa_May.png P_M_keir_starmer.png"
NA,"P_F_Theresa_May.png","P_M_Michael_Gove.png",NA,NA,NA,NA,NA,0.635025412,NA,NA,NA,NA,NA,NA,NA,NA,NA,NA,FALSE,"VGG_nontyp","P_F_Theresa_May.png P_M_Michael_Gove.png"
NA,"P_F_Theresa_May.png","P_M_nigel_farage.png",NA,NA,NA,NA,NA,0.752019629,NA,NA,NA,NA,NA,NA,NA,NA,NA,NA,FALSE,"VGG_nontyp","P_F_Theresa_May.png P_M_nigel_farage.png"
NA,"P_F_Theresa_May.png","P_M_Sajid_Javid.png",NA,NA,NA,NA,NA,0.896560632,NA,NA,NA,NA,NA,NA,NA,NA,NA,NA,FALSE,"VGG_nontyp","P_F_Theresa_May.png P_M_Sajid_Javid.png"
NA,"P_F_Theresa_May.png","P_M_Tony_Blair.png",NA,NA,NA,NA,NA,0.744823188,NA,NA,NA,NA,NA,NA,NA,NA,NA,NA,FALSE,"VGG_nontyp","P_F_Theresa_May.png P_M_Tony_Blair.png"
NA,"P_M_david_camer.png","P_M_Gordon_Brown.png",NA,NA,NA,NA,NA,0.824348673,NA,NA,NA,NA,NA,NA,NA,NA,NA,NA,FALSE,"VGG_nontyp","P_M_david_camer.png P_M_Gordon_Brown.png"
NA,"P_M_david_camer.png","P_M_jeremy_corbyn.png",NA,NA,NA,NA,NA,0.658647358,NA,NA,NA,NA,NA,NA,NA,NA,NA,NA,FALSE,"VGG_nontyp","P_M_david_camer.png P_M_jeremy_corbyn.png"
NA,"P_M_david_camer.png","P_M_keir_starmer.png",NA,NA,NA,NA,NA,0.668006361,NA,NA,NA,NA,NA,NA,NA,NA,NA,NA,FALSE,"VGG_nontyp","P_M_david_camer.png P_M_keir_starmer.png"
NA,"P_M_david_camer.png","P_M_Michael_Gove.png",NA,NA,NA,NA,NA,0.718167186,NA,NA,NA,NA,NA,NA,NA,NA,NA,NA,FALSE,"VGG_nontyp","P_M_david_camer.png P_M_Michael_Gove.png"
NA,"P_M_david_camer.png","P_M_nigel_farage.png",NA,NA,NA,NA,NA,0.823687047,NA,NA,NA,NA,NA,NA,NA,NA,NA,NA,FALSE,"VGG_nontyp","P_M_david_camer.png P_M_nigel_farage.png"
NA,"P_M_david_camer.png","P_M_Sajid_Javid.png",NA,NA,NA,NA,NA,0.834359214,NA,NA,NA,NA,NA,NA,NA,NA,NA,NA,FALSE,"VGG_nontyp","P_M_david_camer.png P_M_Sajid_Javid.png"
NA,"P_M_david_camer.png","P_M_Tony_Blair.png",NA,NA,NA,NA,NA,0.773360759,NA,NA,NA,NA,NA,NA,NA,NA,NA,NA,FALSE,"VGG_nontyp","P_M_david_camer.png P_M_Tony_Blair.png"
NA,"P_M_Gordon_Brown.png","P_M_jeremy_corbyn.png",NA,NA,NA,NA,NA,0.780693039,NA,NA,NA,NA,NA,NA,NA,NA,NA,NA,FALSE,"VGG_nontyp","P_M_Gordon_Brown.png P_M_jeremy_corbyn.png"
NA,"P_M_Gordon_Brown.png","P_M_keir_starmer.png",NA,NA,NA,NA,NA,0.781882927,NA,NA,NA,NA,NA,NA,NA,NA,NA,NA,FALSE,"VGG_nontyp","P_M_Gordon_Brown.png P_M_keir_starmer.png"
NA,"P_M_Gordon_Brown.png","P_M_Michael_Gove.png",NA,NA,NA,NA,NA,0.886118785,NA,NA,NA,NA,NA,NA,NA,NA,NA,NA,FALSE,"VGG_nontyp","P_M_Gordon_Brown.png P_M_Michael_Gove.png"
NA,"P_M_Gordon_Brown.png","P_M_nigel_farage.png",NA,NA,NA,NA,NA,0.749395132,NA,NA,NA,NA,NA,NA,NA,NA,NA,NA,FALSE,"VGG_nontyp","P_M_Gordon_Brown.png P_M_nigel_farage.png"
NA,"P_M_Gordon_Brown.png","P_M_Sajid_Javid.png",NA,NA,NA,NA,NA,0.872960255,NA,NA,NA,NA,NA,NA,NA,NA,NA,NA,FALSE,"VGG_nontyp","P_M_Gordon_Brown.png P_M_Sajid_Javid.png"
NA,"P_M_Gordon_Brown.png","P_M_Tony_Blair.png",NA,NA,NA,NA,NA,0.643992662,NA,NA,NA,NA,NA,NA,NA,NA,NA,NA,FALSE,"VGG_nontyp","P_M_Gordon_Brown.png P_M_Tony_Blair.png"
NA,"P_M_jeremy_corbyn.png","P_M_keir_starmer.png",NA,NA,NA,NA,NA,0.872918874,NA,NA,NA,NA,NA,NA,NA,NA,NA,NA,FALSE,"VGG_nontyp","P_M_jeremy_corbyn.png P_M_keir_starmer.png"
NA,"P_M_jeremy_corbyn.png","P_M_Michael_Gove.png",NA,NA,NA,NA,NA,0.836706087,NA,NA,NA,NA,NA,NA,NA,NA,NA,NA,FALSE,"VGG_nontyp","P_M_jeremy_corbyn.png P_M_Michael_Gove.png"
NA,"P_M_jeremy_corbyn.png","P_M_nigel_farage.png",NA,NA,NA,NA,NA,0.767549708,NA,NA,NA,NA,NA,NA,NA,NA,NA,NA,FALSE,"VGG_nontyp","P_M_jeremy_corbyn.png P_M_nigel_farage.png"
NA,"P_M_jeremy_corbyn.png","P_M_Sajid_Javid.png",NA,NA,NA,NA,NA,0.775155306,NA,NA,NA,NA,NA,NA,NA,NA,NA,NA,FALSE,"VGG_nontyp","P_M_jeremy_corbyn.png P_M_Sajid_Javid.png"
NA,"P_M_jeremy_corbyn.png","P_M_Tony_Blair.png",NA,NA,NA,NA,NA,0.84147048,NA,NA,NA,NA,NA,NA,NA,NA,NA,NA,FALSE,"VGG_nontyp","P_M_jeremy_corbyn.png P_M_Tony_Blair.png"
NA,"P_M_keir_starmer.png","P_M_Michael_Gove.png",NA,NA,NA,NA,NA,0.783910647,NA,NA,NA,NA,NA,NA,NA,NA,NA,NA,FALSE,"VGG_nontyp","P_M_keir_starmer.png P_M_Michael_Gove.png"
NA,"P_M_keir_starmer.png","P_M_nigel_farage.png",NA,NA,NA,NA,NA,0.717243791,NA,NA,NA,NA,NA,NA,NA,NA,NA,NA,FALSE,"VGG_nontyp","P_M_keir_starmer.png P_M_nigel_farage.png"
NA,"P_M_keir_starmer.png","P_M_Sajid_Javid.png",NA,NA,NA,NA,NA,0.839116529,NA,NA,NA,NA,NA,NA,NA,NA,NA,NA,FALSE,"VGG_nontyp","P_M_keir_starmer.png P_M_Sajid_Javid.png"
NA,"P_M_keir_starmer.png","P_M_Tony_Blair.png",NA,NA,NA,NA,NA,0.657015443,NA,NA,NA,NA,NA,NA,NA,NA,NA,NA,FALSE,"VGG_nontyp","P_M_keir_starmer.png P_M_Tony_Blair.png"
NA,"P_M_Michael_Gove.png","P_M_nigel_farage.png",NA,NA,NA,NA,NA,0.611304969,NA,NA,NA,NA,NA,NA,NA,NA,NA,NA,FALSE,"VGG_nontyp","P_M_Michael_Gove.png P_M_nigel_farage.png"
NA,"P_M_Michael_Gove.png","P_M_Sajid_Javid.png",NA,NA,NA,NA,NA,0.778458953,NA,NA,NA,NA,NA,NA,NA,NA,NA,NA,FALSE,"VGG_nontyp","P_M_Michael_Gove.png P_M_Sajid_Javid.png"
NA,"P_M_Michael_Gove.png","P_M_Tony_Blair.png",NA,NA,NA,NA,NA,0.628063887,NA,NA,NA,NA,NA,NA,NA,NA,NA,NA,FALSE,"VGG_nontyp","P_M_Michael_Gove.png P_M_Tony_Blair.png"
NA,"P_M_nigel_farage.png","P_M_Sajid_Javid.png",NA,NA,NA,NA,NA,0.706180543,NA,NA,NA,NA,NA,NA,NA,NA,NA,NA,FALSE,"VGG_nontyp","P_M_nigel_farage.png P_M_Sajid_Javid.png"
NA,"P_M_nigel_farage.png","P_M_Tony_Blair.png",NA,NA,NA,NA,NA,0.574290127,NA,NA,NA,NA,NA,NA,NA,NA,NA,NA,FALSE,"VGG_nontyp","P_M_nigel_farage.png P_M_Tony_Blair.png"
NA,"P_M_Sajid_Javid.png","P_M_Tony_Blair.png",NA,NA,NA,NA,NA,0.754725084,NA,NA,NA,NA,NA,NA,NA,NA,NA,NA,FALSE,"VGG_nontyp","P_M_Sajid_Javid.png P_M_Tony_Blair.png"
