"RT","img_1","img_2","isSameProffesion","img1proffesion","img2proffesion","img1Gender","img2Gender","keyPressed","participant","time","pair","normlised_keyPress","age","gender","handedness","isFamiliar_img1","isFamiliar_img2","reject_trial"
5277,"P_F_hillary_clinton.png","P_M_bill_clinton.png","TRUE","pictures/stimuli/P","pictures/stimuli/P","F","M","4","571b3de05d40840013c49f3a","05/04/2022, 10:14:16","P_F_hillary_clinton.png P_M_bill_clinton.png",-0.129053166837569,"33","Female","left",0,0,FALSE
7914,"E_F_angelina_jolie.png","P_M_david_cameron.png","FALSE","pictures/stimuli/E","pictures/stimuli/P","F","M","5","571b3de05d40840013c49f3a","05/04/2022, 10:14:16","E_F_angelina_jolie.png P_M_david_cameron.png",0.779098747945323,"33","Female","left",0,1,FALSE
3049,"P_F_hillary_clinton.png","P_M_george_Wbush.png","TRUE","pictures/stimuli/P","pictures/stimuli/P","F","M","3","571b3de05d40840013c49f3a","05/04/2022, 10:14:16","P_F_hillary_clinton.png P_M_george_Wbush.png",-1.03720508162046,"33","Female","left",0,0,FALSE
6249,"E_F_keira_knightley.png","P_F_nicola_sturgeon.png","FALSE","pictures/stimuli/E","pictures/stimuli/P","F","F","4","571b3de05d40840013c49f3a","05/04/2022, 10:14:16","E_F_keira_knightley.png P_F_nicola_sturgeon.png",-0.129053166837569,"33","Female","left",0,0,FALSE
5134,"P_F_hillary_clinton.png","P_F_nicola_sturgeon.png","TRUE","pictures/stimuli/P","pictures/stimuli/P","F","F","4","571b3de05d40840013c49f3a","05/04/2022, 10:14:16","P_F_hillary_clinton.png P_F_nicola_sturgeon.png",-0.129053166837569,"33","Female","left",0,0,FALSE
3649,"E_M_nicolas_cage.png","P_M_boris_johnson.png","FALSE","pictures/stimuli/E","pictures/stimuli/P","M","M","5","571b3de05d40840013c49f3a","05/04/2022, 10:14:16","E_M_nicolas_cage.png P_M_boris_johnson.png",0.779098747945323,"33","Female","left",0,1,FALSE
4798,"E_F_Judi_Dench.png","P_M_george_Wbush.png","FALSE","pictures/stimuli/E","pictures/stimuli/P","F","M","4","571b3de05d40840013c49f3a","05/04/2022, 10:14:16","E_F_Judi_Dench.png P_M_george_Wbush.png",-0.129053166837569,"33","Female","left",0,0,FALSE
4700,"E_F_keira_knightley.png","P_M_Tony_Blair.png","FALSE","pictures/stimuli/E","pictures/stimuli/P","F","M","5","571b3de05d40840013c49f3a","05/04/2022, 10:14:16","E_F_keira_knightley.png P_M_Tony_Blair.png",0.779098747945323,"33","Female","left",0,1,FALSE
2898,"E_M_robert_de_niro.png","P_M_david_cameron.png","FALSE","pictures/stimuli/E","pictures/stimuli/P","M","M","3","571b3de05d40840013c49f3a","05/04/2022, 10:14:16","E_M_robert_de_niro.png P_M_david_cameron.png",-1.03720508162046,"33","Female","left",0,1,FALSE
3899,"E_M_michael_caine.png","E_M_robert_de_niro.png","TRUE","pictures/stimuli/E","pictures/stimuli/E","M","M","2","571b3de05d40840013c49f3a","05/04/2022, 10:14:16","E_M_michael_caine.png E_M_robert_de_niro.png",-1.94535699640335,"33","Female","left",0,0,FALSE
5548,"E_F_jennifer_aniston.png","P_M_george_Wbush.png","FALSE","pictures/stimuli/E","pictures/stimuli/P","F","M","4","571b3de05d40840013c49f3a","05/04/2022, 10:14:16","E_F_jennifer_aniston.png P_M_george_Wbush.png",-0.129053166837569,"33","Female","left",0,0,FALSE
2201,"E_M_nicolas_cage.png","P_M_david_cameron.png","FALSE","pictures/stimuli/E","pictures/stimuli/P","M","M","3","571b3de05d40840013c49f3a","05/04/2022, 10:14:16","E_M_nicolas_cage.png P_M_david_cameron.png",-1.03720508162046,"33","Female","left",0,1,FALSE
1951,"E_F_keira_knightley.png","E_M_michael_caine.png","TRUE","pictures/stimuli/E","pictures/stimuli/E","F","M","5","571b3de05d40840013c49f3a","05/04/2022, 10:14:16","E_F_keira_knightley.png E_M_michael_caine.png",0.779098747945323,"33","Female","left",0,0,FALSE
2180,"E_M_robert_de_niro.png","P_F_hillary_clinton.png","FALSE","pictures/stimuli/E","pictures/stimuli/P","M","F","5","571b3de05d40840013c49f3a","05/04/2022, 10:14:16","E_M_robert_de_niro.png P_F_hillary_clinton.png",0.779098747945323,"33","Female","left",0,0,FALSE
2299,"E_F_sandra_bullock.png","P_M_george_Wbush.png","FALSE","pictures/stimuli/E","pictures/stimuli/P","F","M","5","571b3de05d40840013c49f3a","05/04/2022, 10:14:16","E_F_sandra_bullock.png P_M_george_Wbush.png",0.779098747945323,"33","Female","left",0,0,FALSE
2150,"E_M_nicolas_cage.png","P_M_Tony_Blair.png","FALSE","pictures/stimuli/E","pictures/stimuli/P","M","M","3","571b3de05d40840013c49f3a","05/04/2022, 10:14:16","E_M_nicolas_cage.png P_M_Tony_Blair.png",-1.03720508162046,"33","Female","left",0,1,FALSE
2615,"P_F_tehresy_may.png","P_M_david_cameron.png","TRUE","pictures/stimuli/P","pictures/stimuli/P","F","M","2","571b3de05d40840013c49f3a","05/04/2022, 10:14:16","P_F_tehresy_may.png P_M_david_cameron.png",-1.94535699640335,"33","Female","left",1,1,FALSE
3283,"E_F_Judi_Dench.png","E_F_keira_knightley.png","TRUE","pictures/stimuli/E","pictures/stimuli/E","F","F","3","571b3de05d40840013c49f3a","05/04/2022, 10:14:16","E_F_Judi_Dench.png E_F_keira_knightley.png",-1.03720508162046,"33","Female","left",0,0,FALSE
2782,"E_M_Hugh_Grant.png","P_M_david_cameron.png","FALSE","pictures/stimuli/E","pictures/stimuli/P","M","M","3","571b3de05d40840013c49f3a","05/04/2022, 10:14:16","E_M_Hugh_Grant.png P_M_david_cameron.png",-1.03720508162046,"33","Female","left",0,1,FALSE
2034,"E_M_tom_hankes.png","P_M_david_cameron.png","FALSE","pictures/stimuli/E","pictures/stimuli/P","M","M","4","571b3de05d40840013c49f3a","05/04/2022, 10:14:16","E_M_tom_hankes.png P_M_david_cameron.png",-0.129053166837569,"33","Female","left",0,1,FALSE
3282,"E_M_Hugh_Grant.png","E_M_michael_caine.png","TRUE","pictures/stimuli/E","pictures/stimuli/E","M","M","2","571b3de05d40840013c49f3a","05/04/2022, 10:14:16","E_M_Hugh_Grant.png E_M_michael_caine.png",-1.94535699640335,"33","Female","left",0,0,FALSE
2216,"E_F_Judi_Dench.png","E_M_nicolas_cage.png","TRUE","pictures/stimuli/E","pictures/stimuli/E","F","M","3","571b3de05d40840013c49f3a","05/04/2022, 10:14:16","E_F_Judi_Dench.png E_M_nicolas_cage.png",-1.03720508162046,"33","Female","left",0,0,FALSE
1969,"E_F_jennifer_aniston.png","P_M_bill_clinton.png","FALSE","pictures/stimuli/E","pictures/stimuli/P","F","M","4","571b3de05d40840013c49f3a","05/04/2022, 10:14:16","E_F_jennifer_aniston.png P_M_bill_clinton.png",-0.129053166837569,"33","Female","left",0,0,FALSE
2697,"E_M_robert_de_niro.png","P_M_Tony_Blair.png","FALSE","pictures/stimuli/E","pictures/stimuli/P","M","M","4","571b3de05d40840013c49f3a","05/04/2022, 10:14:16","E_M_robert_de_niro.png P_M_Tony_Blair.png",-0.129053166837569,"33","Female","left",0,1,FALSE
3433,"E_F_jennifer_aniston.png","E_M_nicolas_cage.png","TRUE","pictures/stimuli/E","pictures/stimuli/E","F","M","3","571b3de05d40840013c49f3a","05/04/2022, 10:14:16","E_F_jennifer_aniston.png E_M_nicolas_cage.png",-1.03720508162046,"33","Female","left",0,0,FALSE
4132,"E_F_Kate_Winslet.png","E_F_keira_knightley.png","TRUE","pictures/stimuli/E","pictures/stimuli/E","F","F","1","571b3de05d40840013c49f3a","05/04/2022, 10:14:16","E_F_Kate_Winslet.png E_F_keira_knightley.png",-2.85350891118624,"33","Female","left",0,0,FALSE
2782,"E_F_angelina_jolie.png","P_M_Tony_Blair.png","FALSE","pictures/stimuli/E","pictures/stimuli/P","F","M","4","571b3de05d40840013c49f3a","05/04/2022, 10:14:16","E_F_angelina_jolie.png P_M_Tony_Blair.png",-0.129053166837569,"33","Female","left",0,1,FALSE
2082,"E_F_angelina_jolie.png","E_M_robert_de_niro.png","TRUE","pictures/stimuli/E","pictures/stimuli/E","F","M","5","571b3de05d40840013c49f3a","05/04/2022, 10:14:16","E_F_angelina_jolie.png E_M_robert_de_niro.png",0.779098747945323,"33","Female","left",0,0,FALSE
1816,"E_M_robert_de_niro.png","P_F_tehresy_may.png","FALSE","pictures/stimuli/E","pictures/stimuli/P","M","F","5","571b3de05d40840013c49f3a","05/04/2022, 10:14:16","E_M_robert_de_niro.png P_F_tehresy_may.png",0.779098747945323,"33","Female","left",0,1,FALSE
1998,"P_M_david_cameron.png","P_M_george_Wbush.png","TRUE","pictures/stimuli/P","pictures/stimuli/P","M","M","4","571b3de05d40840013c49f3a","05/04/2022, 10:14:16","P_M_david_cameron.png P_M_george_Wbush.png",-0.129053166837569,"33","Female","left",1,0,FALSE
3435,"E_F_keira_knightley.png","E_M_tom_hankes.png","TRUE","pictures/stimuli/E","pictures/stimuli/E","F","M","5","571b3de05d40840013c49f3a","05/04/2022, 10:14:16","E_F_keira_knightley.png E_M_tom_hankes.png",0.779098747945323,"33","Female","left",0,0,FALSE
4398,"E_M_nicolas_cage.png","P_M_donald_trump.png","FALSE","pictures/stimuli/E","pictures/stimuli/P","M","M","5","571b3de05d40840013c49f3a","05/04/2022, 10:14:16","E_M_nicolas_cage.png P_M_donald_trump.png",0.779098747945323,"33","Female","left",0,1,FALSE
2649,"E_F_Judi_Dench.png","E_M_robert_de_niro.png","TRUE","pictures/stimuli/E","pictures/stimuli/E","F","M","4","571b3de05d40840013c49f3a","05/04/2022, 10:14:16","E_F_Judi_Dench.png E_M_robert_de_niro.png",-0.129053166837569,"33","Female","left",0,0,FALSE
2696,"E_M_michael_caine.png","P_F_nicola_sturgeon.png","FALSE","pictures/stimuli/E","pictures/stimuli/P","M","F","3","571b3de05d40840013c49f3a","05/04/2022, 10:14:16","E_M_michael_caine.png P_F_nicola_sturgeon.png",-1.03720508162046,"33","Female","left",0,0,FALSE
1750,"E_F_Kate_Winslet.png","P_M_bill_clinton.png","FALSE","pictures/stimuli/E","pictures/stimuli/P","F","M","4","571b3de05d40840013c49f3a","05/04/2022, 10:14:16","E_F_Kate_Winslet.png P_M_bill_clinton.png",-0.129053166837569,"33","Female","left",0,0,FALSE
1732,"P_F_hillary_clinton.png","P_F_tehresy_may.png","TRUE","pictures/stimuli/P","pictures/stimuli/P","F","F","4","571b3de05d40840013c49f3a","05/04/2022, 10:14:16","P_F_hillary_clinton.png P_F_tehresy_may.png",-0.129053166837569,"33","Female","left",0,1,FALSE
2149,"E_F_angelina_jolie.png","P_F_tehresy_may.png","FALSE","pictures/stimuli/E","pictures/stimuli/P","F","F","3","571b3de05d40840013c49f3a","05/04/2022, 10:14:16","E_F_angelina_jolie.png P_F_tehresy_may.png",-1.03720508162046,"33","Female","left",0,1,FALSE
2783,"E_F_Kate_Winslet.png","E_F_sandra_bullock.png","TRUE","pictures/stimuli/E","pictures/stimuli/E","F","F","4","571b3de05d40840013c49f3a","05/04/2022, 10:14:16","E_F_Kate_Winslet.png E_F_sandra_bullock.png",-0.129053166837569,"33","Female","left",0,0,FALSE
3224,"E_F_angelina_jolie.png","P_M_boris_johnson.png","FALSE","pictures/stimuli/E","pictures/stimuli/P","F","M","5","571b3de05d40840013c49f3a","05/04/2022, 10:14:16","E_F_angelina_jolie.png P_M_boris_johnson.png",0.779098747945323,"33","Female","left",0,1,FALSE
2524,"P_M_boris_johnson.png","P_M_donald_trump.png","TRUE","pictures/stimuli/P","pictures/stimuli/P","M","M","5","571b3de05d40840013c49f3a","05/04/2022, 10:14:16","P_M_boris_johnson.png P_M_donald_trump.png",0.779098747945323,"33","Female","left",1,1,FALSE
2598,"E_M_robert_de_niro.png","P_M_donald_trump.png","FALSE","pictures/stimuli/E","pictures/stimuli/P","M","M","5","571b3de05d40840013c49f3a","05/04/2022, 10:14:16","E_M_robert_de_niro.png P_M_donald_trump.png",0.779098747945323,"33","Female","left",0,1,FALSE
2182,"E_F_Kate_Winslet.png","P_M_george_Wbush.png","FALSE","pictures/stimuli/E","pictures/stimuli/P","F","M","5","571b3de05d40840013c49f3a","05/04/2022, 10:14:16","E_F_Kate_Winslet.png P_M_george_Wbush.png",0.779098747945323,"33","Female","left",0,0,FALSE
2067,"E_F_keira_knightley.png","P_M_bill_clinton.png","FALSE","pictures/stimuli/E","pictures/stimuli/P","F","M","5","571b3de05d40840013c49f3a","05/04/2022, 10:14:16","E_F_keira_knightley.png P_M_bill_clinton.png",0.779098747945323,"33","Female","left",0,0,FALSE
3515,"E_F_Kate_Winslet.png","P_M_boris_johnson.png","FALSE","pictures/stimuli/E","pictures/stimuli/P","F","M","3","571b3de05d40840013c49f3a","05/04/2022, 10:14:16","E_F_Kate_Winslet.png P_M_boris_johnson.png",-1.03720508162046,"33","Female","left",0,1,FALSE
1700,"E_F_sandra_bullock.png","P_M_Tony_Blair.png","FALSE","pictures/stimuli/E","pictures/stimuli/P","F","M","5","571b3de05d40840013c49f3a","05/04/2022, 10:14:16","E_F_sandra_bullock.png P_M_Tony_Blair.png",0.779098747945323,"33","Female","left",0,1,FALSE
1750,"P_M_boris_johnson.png","P_M_Tony_Blair.png","TRUE","pictures/stimuli/P","pictures/stimuli/P","M","M","4","571b3de05d40840013c49f3a","05/04/2022, 10:14:16","P_M_boris_johnson.png P_M_Tony_Blair.png",-0.129053166837569,"33","Female","left",1,1,FALSE
2480,"E_F_sandra_bullock.png","E_M_robert_de_niro.png","TRUE","pictures/stimuli/E","pictures/stimuli/E","F","M","5","571b3de05d40840013c49f3a","05/04/2022, 10:14:16","E_F_sandra_bullock.png E_M_robert_de_niro.png",0.779098747945323,"33","Female","left",0,0,FALSE
2700,"E_M_nicolas_cage.png","P_M_bill_clinton.png","FALSE","pictures/stimuli/E","pictures/stimuli/P","M","M","3","571b3de05d40840013c49f3a","05/04/2022, 10:14:16","E_M_nicolas_cage.png P_M_bill_clinton.png",-1.03720508162046,"33","Female","left",0,0,FALSE
2299,"E_M_nicolas_cage.png","P_F_hillary_clinton.png","FALSE","pictures/stimuli/E","pictures/stimuli/P","M","F","3","571b3de05d40840013c49f3a","05/04/2022, 10:14:16","E_M_nicolas_cage.png P_F_hillary_clinton.png",-1.03720508162046,"33","Female","left",0,0,FALSE
3017,"E_M_michael_caine.png","E_M_tom_hankes.png","TRUE","pictures/stimuli/E","pictures/stimuli/E","M","M","4","571b3de05d40840013c49f3a","05/04/2022, 10:14:16","E_M_michael_caine.png E_M_tom_hankes.png",-0.129053166837569,"33","Female","left",0,0,FALSE
2131,"E_M_tom_hankes.png","P_F_tehresy_may.png","FALSE","pictures/stimuli/E","pictures/stimuli/P","M","F","5","571b3de05d40840013c49f3a","05/04/2022, 10:14:16","E_M_tom_hankes.png P_F_tehresy_may.png",0.779098747945323,"33","Female","left",0,1,FALSE
3351,"E_F_jennifer_aniston.png","P_M_boris_johnson.png","FALSE","pictures/stimuli/E","pictures/stimuli/P","F","M","5","571b3de05d40840013c49f3a","05/04/2022, 10:14:16","E_F_jennifer_aniston.png P_M_boris_johnson.png",0.779098747945323,"33","Female","left",0,1,FALSE
2882,"E_M_Hugh_Grant.png","E_M_nicolas_cage.png","TRUE","pictures/stimuli/E","pictures/stimuli/E","M","M","2","571b3de05d40840013c49f3a","05/04/2022, 10:14:16","E_M_Hugh_Grant.png E_M_nicolas_cage.png",-1.94535699640335,"33","Female","left",0,0,FALSE
1898,"P_F_tehresy_may.png","P_M_Tony_Blair.png","TRUE","pictures/stimuli/P","pictures/stimuli/P","F","M","5","571b3de05d40840013c49f3a","05/04/2022, 10:14:16","P_F_tehresy_may.png P_M_Tony_Blair.png",0.779098747945323,"33","Female","left",1,1,FALSE
1950,"E_F_jennifer_aniston.png","E_F_sandra_bullock.png","TRUE","pictures/stimuli/E","pictures/stimuli/E","F","F","5","571b3de05d40840013c49f3a","05/04/2022, 10:14:16","E_F_jennifer_aniston.png E_F_sandra_bullock.png",0.779098747945323,"33","Female","left",0,0,FALSE
1866,"P_F_nicola_sturgeon.png","P_M_george_Wbush.png","TRUE","pictures/stimuli/P","pictures/stimuli/P","F","M","4","571b3de05d40840013c49f3a","05/04/2022, 10:14:16","P_F_nicola_sturgeon.png P_M_george_Wbush.png",-0.129053166837569,"33","Female","left",0,0,FALSE
2133,"E_M_michael_caine.png","E_M_nicolas_cage.png","TRUE","pictures/stimuli/E","pictures/stimuli/E","M","M","3","571b3de05d40840013c49f3a","05/04/2022, 10:14:16","E_M_michael_caine.png E_M_nicolas_cage.png",-1.03720508162046,"33","Female","left",0,0,FALSE
1703,"E_M_tom_hankes.png","P_F_nicola_sturgeon.png","FALSE","pictures/stimuli/E","pictures/stimuli/P","M","F","5","571b3de05d40840013c49f3a","05/04/2022, 10:14:16","E_M_tom_hankes.png P_F_nicola_sturgeon.png",0.779098747945323,"33","Female","left",0,0,FALSE
1722,"E_F_keira_knightley.png","P_M_donald_trump.png","FALSE","pictures/stimuli/E","pictures/stimuli/P","F","M","6","571b3de05d40840013c49f3a","05/04/2022, 10:14:16","E_F_keira_knightley.png P_M_donald_trump.png",1.68725066272821,"33","Female","left",0,1,FALSE
3332,"E_F_Kate_Winslet.png","P_F_tehresy_may.png","FALSE","pictures/stimuli/E","pictures/stimuli/P","F","F","4","571b3de05d40840013c49f3a","05/04/2022, 10:14:16","E_F_Kate_Winslet.png P_F_tehresy_may.png",-0.129053166837569,"33","Female","left",0,1,FALSE
2233,"E_M_tom_hankes.png","P_F_hillary_clinton.png","FALSE","pictures/stimuli/E","pictures/stimuli/P","M","F","5","571b3de05d40840013c49f3a","05/04/2022, 10:14:16","E_M_tom_hankes.png P_F_hillary_clinton.png",0.779098747945323,"33","Female","left",0,0,FALSE
1883,"E_M_Hugh_Grant.png","P_F_tehresy_may.png","FALSE","pictures/stimuli/E","pictures/stimuli/P","M","F","5","571b3de05d40840013c49f3a","05/04/2022, 10:14:16","E_M_Hugh_Grant.png P_F_tehresy_may.png",0.779098747945323,"33","Female","left",0,1,FALSE
2450,"E_M_Hugh_Grant.png","P_F_nicola_sturgeon.png","FALSE","pictures/stimuli/E","pictures/stimuli/P","M","F","3","571b3de05d40840013c49f3a","05/04/2022, 10:14:16","E_M_Hugh_Grant.png P_F_nicola_sturgeon.png",-1.03720508162046,"33","Female","left",0,0,FALSE
3733,"E_F_jennifer_aniston.png","E_F_Judi_Dench.png","TRUE","pictures/stimuli/E","pictures/stimuli/E","F","F","3","571b3de05d40840013c49f3a","05/04/2022, 10:14:16","E_F_jennifer_aniston.png E_F_Judi_Dench.png",-1.03720508162046,"33","Female","left",0,0,FALSE
3132,"E_M_Hugh_Grant.png","E_M_tom_hankes.png","TRUE","pictures/stimuli/E","pictures/stimuli/E","M","M","4","571b3de05d40840013c49f3a","05/04/2022, 10:14:16","E_M_Hugh_Grant.png E_M_tom_hankes.png",-0.129053166837569,"33","Female","left",0,0,FALSE
2050,"E_F_angelina_jolie.png","P_M_george_Wbush.png","FALSE","pictures/stimuli/E","pictures/stimuli/P","F","M","5","571b3de05d40840013c49f3a","05/04/2022, 10:14:16","E_F_angelina_jolie.png P_M_george_Wbush.png",0.779098747945323,"33","Female","left",0,0,FALSE
1850,"E_M_robert_de_niro.png","P_M_boris_johnson.png","FALSE","pictures/stimuli/E","pictures/stimuli/P","M","M","5","571b3de05d40840013c49f3a","05/04/2022, 10:14:16","E_M_robert_de_niro.png P_M_boris_johnson.png",0.779098747945323,"33","Female","left",0,1,FALSE
1779,"E_F_Judi_Dench.png","P_M_bill_clinton.png","FALSE","pictures/stimuli/E","pictures/stimuli/P","F","M","3","571b3de05d40840013c49f3a","05/04/2022, 10:14:16","E_F_Judi_Dench.png P_M_bill_clinton.png",-1.03720508162046,"33","Female","left",0,0,FALSE
1933,"P_M_donald_trump.png","P_M_Tony_Blair.png","TRUE","pictures/stimuli/P","pictures/stimuli/P","M","M","5","571b3de05d40840013c49f3a","05/04/2022, 10:14:16","P_M_donald_trump.png P_M_Tony_Blair.png",0.779098747945323,"33","Female","left",1,1,FALSE
3033,"E_F_angelina_jolie.png","P_F_hillary_clinton.png","FALSE","pictures/stimuli/E","pictures/stimuli/P","F","F","2","571b3de05d40840013c49f3a","05/04/2022, 10:14:16","E_F_angelina_jolie.png P_F_hillary_clinton.png",-1.94535699640335,"33","Female","left",0,0,FALSE
2298,"E_F_Judi_Dench.png","E_M_Hugh_Grant.png","TRUE","pictures/stimuli/E","pictures/stimuli/E","F","M","5","571b3de05d40840013c49f3a","05/04/2022, 10:14:16","E_F_Judi_Dench.png E_M_Hugh_Grant.png",0.779098747945323,"33","Female","left",0,0,FALSE
1966,"E_F_Judi_Dench.png","P_M_david_cameron.png","FALSE","pictures/stimuli/E","pictures/stimuli/P","F","M","5","571b3de05d40840013c49f3a","05/04/2022, 10:14:16","E_F_Judi_Dench.png P_M_david_cameron.png",0.779098747945323,"33","Female","left",0,1,FALSE
2850,"E_F_jennifer_aniston.png","E_M_michael_caine.png","TRUE","pictures/stimuli/E","pictures/stimuli/E","F","M","5","571b3de05d40840013c49f3a","05/04/2022, 10:14:16","E_F_jennifer_aniston.png E_M_michael_caine.png",0.779098747945323,"33","Female","left",0,0,FALSE
3300,"E_F_angelina_jolie.png","E_F_keira_knightley.png","TRUE","pictures/stimuli/E","pictures/stimuli/E","F","F","2","571b3de05d40840013c49f3a","05/04/2022, 10:14:16","E_F_angelina_jolie.png E_F_keira_knightley.png",-1.94535699640335,"33","Female","left",0,0,FALSE
1783,"P_F_hillary_clinton.png","P_M_david_cameron.png","TRUE","pictures/stimuli/P","pictures/stimuli/P","F","M","5","571b3de05d40840013c49f3a","05/04/2022, 10:14:16","P_F_hillary_clinton.png P_M_david_cameron.png",0.779098747945323,"33","Female","left",0,1,FALSE
1898,"E_M_Hugh_Grant.png","P_M_george_Wbush.png","FALSE","pictures/stimuli/E","pictures/stimuli/P","M","M","5","571b3de05d40840013c49f3a","05/04/2022, 10:14:16","E_M_Hugh_Grant.png P_M_george_Wbush.png",0.779098747945323,"33","Female","left",0,0,FALSE
2149,"E_F_jennifer_aniston.png","P_M_donald_trump.png","FALSE","pictures/stimuli/E","pictures/stimuli/P","F","M","5","571b3de05d40840013c49f3a","05/04/2022, 10:14:16","E_F_jennifer_aniston.png P_M_donald_trump.png",0.779098747945323,"33","Female","left",0,1,FALSE
2583,"P_F_tehresy_may.png","P_M_boris_johnson.png","TRUE","pictures/stimuli/P","pictures/stimuli/P","F","M","4","571b3de05d40840013c49f3a","05/04/2022, 10:14:16","P_F_tehresy_may.png P_M_boris_johnson.png",-0.129053166837569,"33","Female","left",1,1,FALSE
1780,"P_M_bill_clinton.png","P_M_donald_trump.png","TRUE","pictures/stimuli/P","pictures/stimuli/P","M","M","5","571b3de05d40840013c49f3a","05/04/2022, 10:14:16","P_M_bill_clinton.png P_M_donald_trump.png",0.779098747945323,"33","Female","left",0,1,FALSE
2733,"E_F_Kate_Winslet.png","E_M_robert_de_niro.png","TRUE","pictures/stimuli/E","pictures/stimuli/E","F","M","5","571b3de05d40840013c49f3a","05/04/2022, 10:14:16","E_F_Kate_Winslet.png E_M_robert_de_niro.png",0.779098747945323,"33","Female","left",0,0,FALSE
2065,"E_M_Hugh_Grant.png","E_M_robert_de_niro.png","TRUE","pictures/stimuli/E","pictures/stimuli/E","M","M","5","571b3de05d40840013c49f3a","05/04/2022, 10:14:16","E_M_Hugh_Grant.png E_M_robert_de_niro.png",0.779098747945323,"33","Female","left",0,0,FALSE
2017,"E_F_angelina_jolie.png","E_M_Hugh_Grant.png","TRUE","pictures/stimuli/E","pictures/stimuli/E","F","M","5","571b3de05d40840013c49f3a","05/04/2022, 10:14:16","E_F_angelina_jolie.png E_M_Hugh_Grant.png",0.779098747945323,"33","Female","left",0,0,FALSE
3213,"E_F_jennifer_aniston.png","E_M_Hugh_Grant.png","TRUE","pictures/stimuli/E","pictures/stimuli/E","F","M","2","571b3de05d40840013c49f3a","05/04/2022, 10:14:16","E_F_jennifer_aniston.png E_M_Hugh_Grant.png",-1.94535699640335,"33","Female","left",0,0,FALSE
2916,"E_M_Hugh_Grant.png","P_M_boris_johnson.png","FALSE","pictures/stimuli/E","pictures/stimuli/P","M","M","5","571b3de05d40840013c49f3a","05/04/2022, 10:14:16","E_M_Hugh_Grant.png P_M_boris_johnson.png",0.779098747945323,"33","Female","left",0,1,FALSE
3232,"E_F_angelina_jolie.png","E_M_tom_hankes.png","TRUE","pictures/stimuli/E","pictures/stimuli/E","F","M","5","571b3de05d40840013c49f3a","05/04/2022, 10:14:16","E_F_angelina_jolie.png E_M_tom_hankes.png",0.779098747945323,"33","Female","left",0,0,FALSE
3549,"E_M_michael_caine.png","P_M_george_Wbush.png","FALSE","pictures/stimuli/E","pictures/stimuli/P","M","M","5","571b3de05d40840013c49f3a","05/04/2022, 10:14:16","E_M_michael_caine.png P_M_george_Wbush.png",0.779098747945323,"33","Female","left",0,0,FALSE
2983,"E_F_Kate_Winslet.png","P_F_hillary_clinton.png","FALSE","pictures/stimuli/E","pictures/stimuli/P","F","F","2","571b3de05d40840013c49f3a","05/04/2022, 10:14:16","E_F_Kate_Winslet.png P_F_hillary_clinton.png",-1.94535699640335,"33","Female","left",0,0,FALSE
2452,"E_F_angelina_jolie.png","P_M_bill_clinton.png","FALSE","pictures/stimuli/E","pictures/stimuli/P","F","M","5","571b3de05d40840013c49f3a","05/04/2022, 10:14:16","E_F_angelina_jolie.png P_M_bill_clinton.png",0.779098747945323,"33","Female","left",0,0,FALSE
4596,"E_M_tom_hankes.png","P_M_george_Wbush.png","FALSE","pictures/stimuli/E","pictures/stimuli/P","M","M","2","571b3de05d40840013c49f3a","05/04/2022, 10:14:16","E_M_tom_hankes.png P_M_george_Wbush.png",-1.94535699640335,"33","Female","left",0,0,FALSE
3383,"E_M_tom_hankes.png","P_M_Tony_Blair.png","FALSE","pictures/stimuli/E","pictures/stimuli/P","M","M","3","571b3de05d40840013c49f3a","05/04/2022, 10:14:16","E_M_tom_hankes.png P_M_Tony_Blair.png",-1.03720508162046,"33","Female","left",0,1,FALSE
3368,"E_M_tom_hankes.png","P_M_boris_johnson.png","FALSE","pictures/stimuli/E","pictures/stimuli/P","M","M","6","571b3de05d40840013c49f3a","05/04/2022, 10:14:16","E_M_tom_hankes.png P_M_boris_johnson.png",1.68725066272821,"33","Female","left",0,1,FALSE
2413,"E_F_Judi_Dench.png","E_M_tom_hankes.png","TRUE","pictures/stimuli/E","pictures/stimuli/E","F","M","2","571b3de05d40840013c49f3a","05/04/2022, 10:14:16","E_F_Judi_Dench.png E_M_tom_hankes.png",-1.94535699640335,"33","Female","left",0,0,FALSE
2449,"E_M_michael_caine.png","P_M_bill_clinton.png","FALSE","pictures/stimuli/E","pictures/stimuli/P","M","M","2","571b3de05d40840013c49f3a","05/04/2022, 10:14:16","E_M_michael_caine.png P_M_bill_clinton.png",-1.94535699640335,"33","Female","left",0,0,FALSE
3251,"E_F_Judi_Dench.png","E_M_michael_caine.png","TRUE","pictures/stimuli/E","pictures/stimuli/E","F","M","3","571b3de05d40840013c49f3a","05/04/2022, 10:14:16","E_F_Judi_Dench.png E_M_michael_caine.png",-1.03720508162046,"33","Female","left",0,0,FALSE
6898,"E_F_sandra_bullock.png","P_M_donald_trump.png","FALSE","pictures/stimuli/E","pictures/stimuli/P","F","M","6","571b3de05d40840013c49f3a","05/04/2022, 10:14:16","E_F_sandra_bullock.png P_M_donald_trump.png",1.68725066272821,"33","Female","left",0,1,FALSE
3367,"E_F_Kate_Winslet.png","E_M_Hugh_Grant.png","TRUE","pictures/stimuli/E","pictures/stimuli/E","F","M","4","571b3de05d40840013c49f3a","05/04/2022, 10:14:16","E_F_Kate_Winslet.png E_M_Hugh_Grant.png",-0.129053166837569,"33","Female","left",0,0,FALSE
2765,"E_F_keira_knightley.png","E_M_nicolas_cage.png","TRUE","pictures/stimuli/E","pictures/stimuli/E","F","M","3","571b3de05d40840013c49f3a","05/04/2022, 10:14:16","E_F_keira_knightley.png E_M_nicolas_cage.png",-1.03720508162046,"33","Female","left",0,0,FALSE
4199,"E_F_Kate_Winslet.png","E_M_tom_hankes.png","TRUE","pictures/stimuli/E","pictures/stimuli/E","F","M","4","571b3de05d40840013c49f3a","05/04/2022, 10:14:16","E_F_Kate_Winslet.png E_M_tom_hankes.png",-0.129053166837569,"33","Female","left",0,0,FALSE
4932,"E_F_keira_knightley.png","P_F_tehresy_may.png","FALSE","pictures/stimuli/E","pictures/stimuli/P","F","F","3","571b3de05d40840013c49f3a","05/04/2022, 10:14:16","E_F_keira_knightley.png P_F_tehresy_may.png",-1.03720508162046,"33","Female","left",0,1,FALSE
2149,"E_M_michael_caine.png","P_M_boris_johnson.png","FALSE","pictures/stimuli/E","pictures/stimuli/P","M","M","4","571b3de05d40840013c49f3a","05/04/2022, 10:14:16","E_M_michael_caine.png P_M_boris_johnson.png",-0.129053166837569,"33","Female","left",0,1,FALSE
2550,"P_F_nicola_sturgeon.png","P_F_tehresy_may.png","TRUE","pictures/stimuli/P","pictures/stimuli/P","F","F","5","571b3de05d40840013c49f3a","05/04/2022, 10:14:16","P_F_nicola_sturgeon.png P_F_tehresy_may.png",0.779098747945323,"33","Female","left",0,1,FALSE
2665,"E_M_michael_caine.png","P_F_hillary_clinton.png","FALSE","pictures/stimuli/E","pictures/stimuli/P","M","F","3","571b3de05d40840013c49f3a","05/04/2022, 10:14:16","E_M_michael_caine.png P_F_hillary_clinton.png",-1.03720508162046,"33","Female","left",0,0,FALSE
3132,"P_F_tehresy_may.png","P_M_george_Wbush.png","TRUE","pictures/stimuli/P","pictures/stimuli/P","F","M","5","571b3de05d40840013c49f3a","05/04/2022, 10:14:16","P_F_tehresy_may.png P_M_george_Wbush.png",0.779098747945323,"33","Female","left",1,0,FALSE
2750,"E_M_robert_de_niro.png","P_F_nicola_sturgeon.png","FALSE","pictures/stimuli/E","pictures/stimuli/P","M","F","5","571b3de05d40840013c49f3a","05/04/2022, 10:14:16","E_M_robert_de_niro.png P_F_nicola_sturgeon.png",0.779098747945323,"33","Female","left",0,0,FALSE
2498,"E_M_Hugh_Grant.png","P_M_Tony_Blair.png","FALSE","pictures/stimuli/E","pictures/stimuli/P","M","M","2","571b3de05d40840013c49f3a","05/04/2022, 10:14:16","E_M_Hugh_Grant.png P_M_Tony_Blair.png",-1.94535699640335,"33","Female","left",0,1,FALSE
3333,"P_M_donald_trump.png","P_M_george_Wbush.png","TRUE","pictures/stimuli/P","pictures/stimuli/P","M","M","4","571b3de05d40840013c49f3a","05/04/2022, 10:14:16","P_M_donald_trump.png P_M_george_Wbush.png",-0.129053166837569,"33","Female","left",1,0,FALSE
3683,"E_F_jennifer_aniston.png","P_F_tehresy_may.png","FALSE","pictures/stimuli/E","pictures/stimuli/P","F","F","5","571b3de05d40840013c49f3a","05/04/2022, 10:14:16","E_F_jennifer_aniston.png P_F_tehresy_may.png",0.779098747945323,"33","Female","left",0,1,FALSE
2449,"E_F_angelina_jolie.png","E_F_jennifer_aniston.png","TRUE","pictures/stimuli/E","pictures/stimuli/E","F","F","4","571b3de05d40840013c49f3a","05/04/2022, 10:14:16","E_F_angelina_jolie.png E_F_jennifer_aniston.png",-0.129053166837569,"33","Female","left",0,0,FALSE
2000,"E_M_michael_caine.png","P_M_donald_trump.png","FALSE","pictures/stimuli/E","pictures/stimuli/P","M","M","6","571b3de05d40840013c49f3a","05/04/2022, 10:14:16","E_M_michael_caine.png P_M_donald_trump.png",1.68725066272821,"33","Female","left",0,1,FALSE
2581,"E_F_keira_knightley.png","E_F_sandra_bullock.png","TRUE","pictures/stimuli/E","pictures/stimuli/E","F","F","1","571b3de05d40840013c49f3a","05/04/2022, 10:14:16","E_F_keira_knightley.png E_F_sandra_bullock.png",-2.85350891118624,"33","Female","left",0,0,FALSE
1949,"P_F_tehresy_may.png","P_M_donald_trump.png","TRUE","pictures/stimuli/P","pictures/stimuli/P","F","M","5","571b3de05d40840013c49f3a","05/04/2022, 10:14:16","P_F_tehresy_may.png P_M_donald_trump.png",0.779098747945323,"33","Female","left",1,1,FALSE
3333,"E_F_keira_knightley.png","P_M_boris_johnson.png","FALSE","pictures/stimuli/E","pictures/stimuli/P","F","M","5","571b3de05d40840013c49f3a","05/04/2022, 10:14:16","E_F_keira_knightley.png P_M_boris_johnson.png",0.779098747945323,"33","Female","left",0,1,FALSE
3597,"E_F_angelina_jolie.png","E_M_michael_caine.png","TRUE","pictures/stimuli/E","pictures/stimuli/E","F","M","4","571b3de05d40840013c49f3a","05/04/2022, 10:14:16","E_F_angelina_jolie.png E_M_michael_caine.png",-0.129053166837569,"33","Female","left",0,0,FALSE
2167,"E_F_keira_knightley.png","E_M_Hugh_Grant.png","TRUE","pictures/stimuli/E","pictures/stimuli/E","F","M","5","571b3de05d40840013c49f3a","05/04/2022, 10:14:16","E_F_keira_knightley.png E_M_Hugh_Grant.png",0.779098747945323,"33","Female","left",0,0,FALSE
2498,"P_F_nicola_sturgeon.png","P_M_bill_clinton.png","TRUE","pictures/stimuli/P","pictures/stimuli/P","F","M","4","571b3de05d40840013c49f3a","05/04/2022, 10:14:16","P_F_nicola_sturgeon.png P_M_bill_clinton.png",-0.129053166837569,"33","Female","left",0,0,FALSE
2134,"E_F_jennifer_aniston.png","P_M_david_cameron.png","FALSE","pictures/stimuli/E","pictures/stimuli/P","F","M","5","571b3de05d40840013c49f3a","05/04/2022, 10:14:16","E_F_jennifer_aniston.png P_M_david_cameron.png",0.779098747945323,"33","Female","left",0,1,FALSE
3901,"E_M_michael_caine.png","P_M_Tony_Blair.png","FALSE","pictures/stimuli/E","pictures/stimuli/P","M","M","4","571b3de05d40840013c49f3a","05/04/2022, 10:14:16","E_M_michael_caine.png P_M_Tony_Blair.png",-0.129053166837569,"33","Female","left",0,1,FALSE
4779,"E_F_sandra_bullock.png","P_M_bill_clinton.png","FALSE","pictures/stimuli/E","pictures/stimuli/P","F","M","3","571b3de05d40840013c49f3a","05/04/2022, 10:14:16","E_F_sandra_bullock.png P_M_bill_clinton.png",-1.03720508162046,"33","Female","left",0,0,FALSE
1936,"P_M_david_cameron.png","P_M_Tony_Blair.png","TRUE","pictures/stimuli/P","pictures/stimuli/P","M","M","5","571b3de05d40840013c49f3a","05/04/2022, 10:14:16","P_M_david_cameron.png P_M_Tony_Blair.png",0.779098747945323,"33","Female","left",1,1,FALSE
2379,"P_M_boris_johnson.png","P_M_david_cameron.png","TRUE","pictures/stimuli/P","pictures/stimuli/P","M","M","2","571b3de05d40840013c49f3a","05/04/2022, 10:14:16","P_M_boris_johnson.png P_M_david_cameron.png",-1.94535699640335,"33","Female","left",1,1,FALSE
2283,"E_F_sandra_bullock.png","P_F_tehresy_may.png","FALSE","pictures/stimuli/E","pictures/stimuli/P","F","F","5","571b3de05d40840013c49f3a","05/04/2022, 10:14:16","E_F_sandra_bullock.png P_F_tehresy_may.png",0.779098747945323,"33","Female","left",0,1,FALSE
1899,"E_F_sandra_bullock.png","P_F_hillary_clinton.png","FALSE","pictures/stimuli/E","pictures/stimuli/P","F","F","4","571b3de05d40840013c49f3a","05/04/2022, 10:14:16","E_F_sandra_bullock.png P_F_hillary_clinton.png",-0.129053166837569,"33","Female","left",0,0,FALSE
1867,"E_F_sandra_bullock.png","E_M_tom_hankes.png","TRUE","pictures/stimuli/E","pictures/stimuli/E","F","M","4","571b3de05d40840013c49f3a","05/04/2022, 10:14:16","E_F_sandra_bullock.png E_M_tom_hankes.png",-0.129053166837569,"33","Female","left",0,0,FALSE
2548,"P_M_bill_clinton.png","P_M_george_Wbush.png","TRUE","pictures/stimuli/P","pictures/stimuli/P","M","M","4","571b3de05d40840013c49f3a","05/04/2022, 10:14:16","P_M_bill_clinton.png P_M_george_Wbush.png",-0.129053166837569,"33","Female","left",0,0,FALSE
2632,"P_M_bill_clinton.png","P_M_Tony_Blair.png","TRUE","pictures/stimuli/P","pictures/stimuli/P","M","M","5","571b3de05d40840013c49f3a","05/04/2022, 10:14:16","P_M_bill_clinton.png P_M_Tony_Blair.png",0.779098747945323,"33","Female","left",0,1,FALSE
2152,"E_F_jennifer_aniston.png","P_M_Tony_Blair.png","FALSE","pictures/stimuli/E","pictures/stimuli/P","F","M","4","571b3de05d40840013c49f3a","05/04/2022, 10:14:16","E_F_jennifer_aniston.png P_M_Tony_Blair.png",-0.129053166837569,"33","Female","left",0,1,FALSE
3095,"E_F_jennifer_aniston.png","E_F_Kate_Winslet.png","TRUE","pictures/stimuli/E","pictures/stimuli/E","F","F","4","571b3de05d40840013c49f3a","05/04/2022, 10:14:16","E_F_jennifer_aniston.png E_F_Kate_Winslet.png",-0.129053166837569,"33","Female","left",0,0,FALSE
3466,"E_F_Judi_Dench.png","P_F_hillary_clinton.png","FALSE","pictures/stimuli/E","pictures/stimuli/P","F","F","3","571b3de05d40840013c49f3a","05/04/2022, 10:14:16","E_F_Judi_Dench.png P_F_hillary_clinton.png",-1.03720508162046,"33","Female","left",0,0,FALSE
3082,"E_M_tom_hankes.png","P_M_bill_clinton.png","FALSE","pictures/stimuli/E","pictures/stimuli/P","M","M","4","571b3de05d40840013c49f3a","05/04/2022, 10:14:16","E_M_tom_hankes.png P_M_bill_clinton.png",-0.129053166837569,"33","Female","left",0,0,FALSE
2282,"E_F_angelina_jolie.png","E_M_nicolas_cage.png","TRUE","pictures/stimuli/E","pictures/stimuli/E","F","M","3","571b3de05d40840013c49f3a","05/04/2022, 10:14:16","E_F_angelina_jolie.png E_M_nicolas_cage.png",-1.03720508162046,"33","Female","left",0,0,FALSE
2566,"E_F_jennifer_aniston.png","P_F_hillary_clinton.png","FALSE","pictures/stimuli/E","pictures/stimuli/P","F","F","2","571b3de05d40840013c49f3a","05/04/2022, 10:14:16","E_F_jennifer_aniston.png P_F_hillary_clinton.png",-1.94535699640335,"33","Female","left",0,0,FALSE
2699,"E_M_nicolas_cage.png","P_F_nicola_sturgeon.png","FALSE","pictures/stimuli/E","pictures/stimuli/P","M","F","5","571b3de05d40840013c49f3a","05/04/2022, 10:14:16","E_M_nicolas_cage.png P_F_nicola_sturgeon.png",0.779098747945323,"33","Female","left",0,0,FALSE
1966,"E_M_robert_de_niro.png","P_M_bill_clinton.png","FALSE","pictures/stimuli/E","pictures/stimuli/P","M","M","4","571b3de05d40840013c49f3a","05/04/2022, 10:14:16","E_M_robert_de_niro.png P_M_bill_clinton.png",-0.129053166837569,"33","Female","left",0,0,FALSE
1716,"E_F_angelina_jolie.png","P_F_nicola_sturgeon.png","FALSE","pictures/stimuli/E","pictures/stimuli/P","F","F","5","571b3de05d40840013c49f3a","05/04/2022, 10:14:16","E_F_angelina_jolie.png P_F_nicola_sturgeon.png",0.779098747945323,"33","Female","left",0,0,FALSE
3731,"E_F_Judi_Dench.png","E_F_sandra_bullock.png","TRUE","pictures/stimuli/E","pictures/stimuli/E","F","F","4","571b3de05d40840013c49f3a","05/04/2022, 10:14:16","E_F_Judi_Dench.png E_F_sandra_bullock.png",-0.129053166837569,"33","Female","left",0,0,FALSE
1884,"E_M_nicolas_cage.png","E_M_tom_hankes.png","TRUE","pictures/stimuli/E","pictures/stimuli/E","M","M","5","571b3de05d40840013c49f3a","05/04/2022, 10:14:16","E_M_nicolas_cage.png E_M_tom_hankes.png",0.779098747945323,"33","Female","left",0,0,FALSE
3483,"E_F_sandra_bullock.png","E_M_michael_caine.png","TRUE","pictures/stimuli/E","pictures/stimuli/E","F","M","5","571b3de05d40840013c49f3a","05/04/2022, 10:14:16","E_F_sandra_bullock.png E_M_michael_caine.png",0.779098747945323,"33","Female","left",0,0,FALSE
3816,"E_M_Hugh_Grant.png","P_F_hillary_clinton.png","FALSE","pictures/stimuli/E","pictures/stimuli/P","M","F","3","571b3de05d40840013c49f3a","05/04/2022, 10:14:16","E_M_Hugh_Grant.png P_F_hillary_clinton.png",-1.03720508162046,"33","Female","left",0,0,FALSE
2200,"E_M_nicolas_cage.png","P_M_george_Wbush.png","FALSE","pictures/stimuli/E","pictures/stimuli/P","M","M","5","571b3de05d40840013c49f3a","05/04/2022, 10:14:16","E_M_nicolas_cage.png P_M_george_Wbush.png",0.779098747945323,"33","Female","left",0,0,FALSE
4131,"E_F_angelina_jolie.png","E_F_Judi_Dench.png","TRUE","pictures/stimuli/E","pictures/stimuli/E","F","F","3","571b3de05d40840013c49f3a","05/04/2022, 10:14:16","E_F_angelina_jolie.png E_F_Judi_Dench.png",-1.03720508162046,"33","Female","left",0,0,FALSE
3183,"P_F_nicola_sturgeon.png","P_M_boris_johnson.png","TRUE","pictures/stimuli/P","pictures/stimuli/P","F","M","3","571b3de05d40840013c49f3a","05/04/2022, 10:14:16","P_F_nicola_sturgeon.png P_M_boris_johnson.png",-1.03720508162046,"33","Female","left",0,1,FALSE
3016,"E_F_Kate_Winslet.png","E_M_nicolas_cage.png","TRUE","pictures/stimuli/E","pictures/stimuli/E","F","M","3","571b3de05d40840013c49f3a","05/04/2022, 10:14:16","E_F_Kate_Winslet.png E_M_nicolas_cage.png",-1.03720508162046,"33","Female","left",0,0,FALSE
2449,"E_F_Judi_Dench.png","P_M_Tony_Blair.png","FALSE","pictures/stimuli/E","pictures/stimuli/P","F","M","4","571b3de05d40840013c49f3a","05/04/2022, 10:14:16","E_F_Judi_Dench.png P_M_Tony_Blair.png",-0.129053166837569,"33","Female","left",0,1,FALSE
3448,"E_F_keira_knightley.png","E_M_robert_de_niro.png","TRUE","pictures/stimuli/E","pictures/stimuli/E","F","M","5","571b3de05d40840013c49f3a","05/04/2022, 10:14:16","E_F_keira_knightley.png E_M_robert_de_niro.png",0.779098747945323,"33","Female","left",0,0,FALSE
3249,"E_F_Kate_Winslet.png","E_M_michael_caine.png","TRUE","pictures/stimuli/E","pictures/stimuli/E","F","M","2","571b3de05d40840013c49f3a","05/04/2022, 10:14:16","E_F_Kate_Winslet.png E_M_michael_caine.png",-1.94535699640335,"33","Female","left",0,0,FALSE
2501,"E_F_angelina_jolie.png","E_F_sandra_bullock.png","TRUE","pictures/stimuli/E","pictures/stimuli/E","F","F","4","571b3de05d40840013c49f3a","05/04/2022, 10:14:16","E_F_angelina_jolie.png E_F_sandra_bullock.png",-0.129053166837569,"33","Female","left",0,0,FALSE
3000,"P_F_hillary_clinton.png","P_M_boris_johnson.png","TRUE","pictures/stimuli/P","pictures/stimuli/P","F","M","5","571b3de05d40840013c49f3a","05/04/2022, 10:14:16","P_F_hillary_clinton.png P_M_boris_johnson.png",0.779098747945323,"33","Female","left",0,1,FALSE
1846,"E_M_Hugh_Grant.png","P_M_bill_clinton.png","FALSE","pictures/stimuli/E","pictures/stimuli/P","M","M","5","571b3de05d40840013c49f3a","05/04/2022, 10:14:16","E_M_Hugh_Grant.png P_M_bill_clinton.png",0.779098747945323,"33","Female","left",0,0,FALSE
2218,"E_F_sandra_bullock.png","P_M_david_cameron.png","FALSE","pictures/stimuli/E","pictures/stimuli/P","F","M","6","571b3de05d40840013c49f3a","05/04/2022, 10:14:16","E_F_sandra_bullock.png P_M_david_cameron.png",1.68725066272821,"33","Female","left",0,1,FALSE
2332,"P_M_bill_clinton.png","P_M_boris_johnson.png","TRUE","pictures/stimuli/P","pictures/stimuli/P","M","M","3","571b3de05d40840013c49f3a","05/04/2022, 10:14:16","P_M_bill_clinton.png P_M_boris_johnson.png",-1.03720508162046,"33","Female","left",0,1,FALSE
3383,"E_F_jennifer_aniston.png","E_F_keira_knightley.png","TRUE","pictures/stimuli/E","pictures/stimuli/E","F","F","4","571b3de05d40840013c49f3a","05/04/2022, 10:14:16","E_F_jennifer_aniston.png E_F_keira_knightley.png",-0.129053166837569,"33","Female","left",0,0,FALSE
2065,"E_F_Kate_Winslet.png","P_M_donald_trump.png","FALSE","pictures/stimuli/E","pictures/stimuli/P","F","M","5","571b3de05d40840013c49f3a","05/04/2022, 10:14:16","E_F_Kate_Winslet.png P_M_donald_trump.png",0.779098747945323,"33","Female","left",0,1,FALSE
1651,"E_M_Hugh_Grant.png","P_M_donald_trump.png","FALSE","pictures/stimuli/E","pictures/stimuli/P","M","M","5","571b3de05d40840013c49f3a","05/04/2022, 10:14:16","E_M_Hugh_Grant.png P_M_donald_trump.png",0.779098747945323,"33","Female","left",0,1,FALSE
2381,"E_M_tom_hankes.png","P_M_donald_trump.png","FALSE","pictures/stimuli/E","pictures/stimuli/P","M","M","6","571b3de05d40840013c49f3a","05/04/2022, 10:14:16","E_M_tom_hankes.png P_M_donald_trump.png",1.68725066272821,"33","Female","left",0,1,FALSE
2690,"E_F_angelina_jolie.png","P_M_donald_trump.png","FALSE","pictures/stimuli/E","pictures/stimuli/P","F","M","5","571b3de05d40840013c49f3a","05/04/2022, 10:14:16","E_F_angelina_jolie.png P_M_donald_trump.png",0.779098747945323,"33","Female","left",0,1,FALSE
2090,"E_F_Judi_Dench.png","E_F_Kate_Winslet.png","TRUE","pictures/stimuli/E","pictures/stimuli/E","F","F","4","571b3de05d40840013c49f3a","05/04/2022, 10:14:16","E_F_Judi_Dench.png E_F_Kate_Winslet.png",-0.129053166837569,"33","Female","left",0,0,FALSE
1817,"E_F_jennifer_aniston.png","E_M_robert_de_niro.png","TRUE","pictures/stimuli/E","pictures/stimuli/E","F","M","5","571b3de05d40840013c49f3a","05/04/2022, 10:14:16","E_F_jennifer_aniston.png E_M_robert_de_niro.png",0.779098747945323,"33","Female","left",0,0,FALSE
2684,"E_F_angelina_jolie.png","E_F_Kate_Winslet.png","TRUE","pictures/stimuli/E","pictures/stimuli/E","F","F","3","571b3de05d40840013c49f3a","05/04/2022, 10:14:16","E_F_angelina_jolie.png E_F_Kate_Winslet.png",-1.03720508162046,"33","Female","left",0,0,FALSE
1914,"E_F_Kate_Winslet.png","P_F_nicola_sturgeon.png","FALSE","pictures/stimuli/E","pictures/stimuli/P","F","F","4","571b3de05d40840013c49f3a","05/04/2022, 10:14:16","E_F_Kate_Winslet.png P_F_nicola_sturgeon.png",-0.129053166837569,"33","Female","left",0,0,FALSE
2367,"P_F_nicola_sturgeon.png","P_M_david_cameron.png","TRUE","pictures/stimuli/P","pictures/stimuli/P","F","M","5","571b3de05d40840013c49f3a","05/04/2022, 10:14:16","P_F_nicola_sturgeon.png P_M_david_cameron.png",0.779098747945323,"33","Female","left",0,1,FALSE
3214,"P_F_nicola_sturgeon.png","P_M_Tony_Blair.png","TRUE","pictures/stimuli/P","pictures/stimuli/P","F","M","5","571b3de05d40840013c49f3a","05/04/2022, 10:14:16","P_F_nicola_sturgeon.png P_M_Tony_Blair.png",0.779098747945323,"33","Female","left",0,1,FALSE
2118,"P_F_hillary_clinton.png","P_M_Tony_Blair.png","TRUE","pictures/stimuli/P","pictures/stimuli/P","F","M","5","571b3de05d40840013c49f3a","05/04/2022, 10:14:16","P_F_hillary_clinton.png P_M_Tony_Blair.png",0.779098747945323,"33","Female","left",0,1,FALSE
1765,"E_F_jennifer_aniston.png","E_M_tom_hankes.png","TRUE","pictures/stimuli/E","pictures/stimuli/E","F","M","5","571b3de05d40840013c49f3a","05/04/2022, 10:14:16","E_F_jennifer_aniston.png E_M_tom_hankes.png",0.779098747945323,"33","Female","left",0,0,FALSE
2349,"P_F_nicola_sturgeon.png","P_M_donald_trump.png","TRUE","pictures/stimuli/P","pictures/stimuli/P","F","M","4","571b3de05d40840013c49f3a","05/04/2022, 10:14:16","P_F_nicola_sturgeon.png P_M_donald_trump.png",-0.129053166837569,"33","Female","left",0,1,FALSE
1965,"E_F_Kate_Winslet.png","P_M_Tony_Blair.png","FALSE","pictures/stimuli/E","pictures/stimuli/P","F","M","5","571b3de05d40840013c49f3a","05/04/2022, 10:14:16","E_F_Kate_Winslet.png P_M_Tony_Blair.png",0.779098747945323,"33","Female","left",0,1,FALSE
1616,"P_M_david_cameron.png","P_M_donald_trump.png","TRUE","pictures/stimuli/P","pictures/stimuli/P","M","M","5","571b3de05d40840013c49f3a","05/04/2022, 10:14:16","P_M_david_cameron.png P_M_donald_trump.png",0.779098747945323,"33","Female","left",1,1,FALSE
2567,"E_M_robert_de_niro.png","E_M_tom_hankes.png","TRUE","pictures/stimuli/E","pictures/stimuli/E","M","M","2","571b3de05d40840013c49f3a","05/04/2022, 10:14:16","E_M_robert_de_niro.png E_M_tom_hankes.png",-1.94535699640335,"33","Female","left",0,0,FALSE
2582,"E_F_Judi_Dench.png","P_M_boris_johnson.png","FALSE","pictures/stimuli/E","pictures/stimuli/P","F","M","3","571b3de05d40840013c49f3a","05/04/2022, 10:14:16","E_F_Judi_Dench.png P_M_boris_johnson.png",-1.03720508162046,"33","Female","left",0,1,FALSE
1866,"E_F_sandra_bullock.png","P_M_boris_johnson.png","FALSE","pictures/stimuli/E","pictures/stimuli/P","F","M","5","571b3de05d40840013c49f3a","05/04/2022, 10:14:16","E_F_sandra_bullock.png P_M_boris_johnson.png",0.779098747945323,"33","Female","left",0,1,FALSE
1734,"P_F_tehresy_may.png","P_M_bill_clinton.png","TRUE","pictures/stimuli/P","pictures/stimuli/P","F","M","4","571b3de05d40840013c49f3a","05/04/2022, 10:14:16","P_F_tehresy_may.png P_M_bill_clinton.png",-0.129053166837569,"33","Female","left",1,0,FALSE
2315,"E_M_nicolas_cage.png","P_F_tehresy_may.png","FALSE","pictures/stimuli/E","pictures/stimuli/P","M","F","5","571b3de05d40840013c49f3a","05/04/2022, 10:14:16","E_M_nicolas_cage.png P_F_tehresy_may.png",0.779098747945323,"33","Female","left",0,1,FALSE
2399,"E_M_michael_caine.png","P_F_tehresy_may.png","FALSE","pictures/stimuli/E","pictures/stimuli/P","M","F","3","571b3de05d40840013c49f3a","05/04/2022, 10:14:16","E_M_michael_caine.png P_F_tehresy_may.png",-1.03720508162046,"33","Female","left",0,1,FALSE
4714,"P_M_george_Wbush.png","P_M_Tony_Blair.png","TRUE","pictures/stimuli/P","pictures/stimuli/P","M","M","5","571b3de05d40840013c49f3a","05/04/2022, 10:14:16","P_M_george_Wbush.png P_M_Tony_Blair.png",0.779098747945323,"33","Female","left",0,1,FALSE
2800,"E_F_keira_knightley.png","P_M_david_cameron.png","FALSE","pictures/stimuli/E","pictures/stimuli/P","F","M","5","571b3de05d40840013c49f3a","05/04/2022, 10:14:16","E_F_keira_knightley.png P_M_david_cameron.png",0.779098747945323,"33","Female","left",0,1,FALSE
1731,"E_M_robert_de_niro.png","P_M_george_Wbush.png","FALSE","pictures/stimuli/E","pictures/stimuli/P","M","M","4","571b3de05d40840013c49f3a","05/04/2022, 10:14:16","E_M_robert_de_niro.png P_M_george_Wbush.png",-0.129053166837569,"33","Female","left",0,0,FALSE
1683,"E_F_sandra_bullock.png","E_M_nicolas_cage.png","TRUE","pictures/stimuli/E","pictures/stimuli/E","F","M","5","571b3de05d40840013c49f3a","05/04/2022, 10:14:16","E_F_sandra_bullock.png E_M_nicolas_cage.png",0.779098747945323,"33","Female","left",0,0,FALSE
1866,"E_F_Judi_Dench.png","P_F_nicola_sturgeon.png","FALSE","pictures/stimuli/E","pictures/stimuli/P","F","F","5","571b3de05d40840013c49f3a","05/04/2022, 10:14:16","E_F_Judi_Dench.png P_F_nicola_sturgeon.png",0.779098747945323,"33","Female","left",0,0,FALSE
1666,"E_F_Judi_Dench.png","P_M_donald_trump.png","FALSE","pictures/stimuli/E","pictures/stimuli/P","F","M","6","571b3de05d40840013c49f3a","05/04/2022, 10:14:16","E_F_Judi_Dench.png P_M_donald_trump.png",1.68725066272821,"33","Female","left",0,1,FALSE
1847,"E_F_Kate_Winslet.png","P_M_david_cameron.png","FALSE","pictures/stimuli/E","pictures/stimuli/P","F","M","5","571b3de05d40840013c49f3a","05/04/2022, 10:14:16","E_F_Kate_Winslet.png P_M_david_cameron.png",0.779098747945323,"33","Female","left",0,1,FALSE
1783,"E_F_keira_knightley.png","P_M_george_Wbush.png","FALSE","pictures/stimuli/E","pictures/stimuli/P","F","M","6","571b3de05d40840013c49f3a","05/04/2022, 10:14:16","E_F_keira_knightley.png P_M_george_Wbush.png",1.68725066272821,"33","Female","left",0,0,FALSE
2667,"E_F_sandra_bullock.png","P_F_nicola_sturgeon.png","FALSE","pictures/stimuli/E","pictures/stimuli/P","F","F","5","571b3de05d40840013c49f3a","05/04/2022, 10:14:16","E_F_sandra_bullock.png P_F_nicola_sturgeon.png",0.779098747945323,"33","Female","left",0,0,FALSE
2148,"P_M_bill_clinton.png","P_M_david_cameron.png","TRUE","pictures/stimuli/P","pictures/stimuli/P","M","M","3","571b3de05d40840013c49f3a","05/04/2022, 10:14:16","P_M_bill_clinton.png P_M_david_cameron.png",-1.03720508162046,"33","Female","left",0,1,FALSE
1649,"E_F_keira_knightley.png","P_F_hillary_clinton.png","FALSE","pictures/stimuli/E","pictures/stimuli/P","F","F","5","571b3de05d40840013c49f3a","05/04/2022, 10:14:16","E_F_keira_knightley.png P_F_hillary_clinton.png",0.779098747945323,"33","Female","left",0,0,FALSE
1715,"E_F_sandra_bullock.png","E_M_Hugh_Grant.png","TRUE","pictures/stimuli/E","pictures/stimuli/E","F","M","5","571b3de05d40840013c49f3a","05/04/2022, 10:14:16","E_F_sandra_bullock.png E_M_Hugh_Grant.png",0.779098747945323,"33","Female","left",0,0,FALSE
2167,"E_F_jennifer_aniston.png","P_F_nicola_sturgeon.png","FALSE","pictures/stimuli/E","pictures/stimuli/P","F","F","3","571b3de05d40840013c49f3a","05/04/2022, 10:14:16","E_F_jennifer_aniston.png P_F_nicola_sturgeon.png",-1.03720508162046,"33","Female","left",0,0,FALSE
2264,"P_M_boris_johnson.png","P_M_george_Wbush.png","TRUE","pictures/stimuli/P","pictures/stimuli/P","M","M","4","571b3de05d40840013c49f3a","05/04/2022, 10:14:16","P_M_boris_johnson.png P_M_george_Wbush.png",-0.129053166837569,"33","Female","left",1,0,FALSE
2282,"E_M_nicolas_cage.png","E_M_robert_de_niro.png","TRUE","pictures/stimuli/E","pictures/stimuli/E","M","M","5","571b3de05d40840013c49f3a","05/04/2022, 10:14:16","E_M_nicolas_cage.png E_M_robert_de_niro.png",0.779098747945323,"33","Female","left",0,0,FALSE
1783,"P_F_hillary_clinton.png","P_M_donald_trump.png","TRUE","pictures/stimuli/P","pictures/stimuli/P","F","M","5","571b3de05d40840013c49f3a","05/04/2022, 10:14:16","P_F_hillary_clinton.png P_M_donald_trump.png",0.779098747945323,"33","Female","left",0,1,FALSE
2599,"E_M_michael_caine.png","P_M_david_cameron.png","FALSE","pictures/stimuli/E","pictures/stimuli/P","M","M","5","571b3de05d40840013c49f3a","05/04/2022, 10:14:16","E_M_michael_caine.png P_M_david_cameron.png",0.779098747945323,"33","Female","left",0,1,FALSE
4050,"E_F_Judi_Dench.png","P_F_tehresy_may.png","FALSE","pictures/stimuli/E","pictures/stimuli/P","F","F","5","571b3de05d40840013c49f3a","05/04/2022, 10:14:16","E_F_Judi_Dench.png P_F_tehresy_may.png",0.779098747945323,"33","Female","left",0,1,FALSE
4728,"E_F_angelina_jolie.png","E_F_Kate_Winslet.png","TRUE","pictures/stimuli/E","pictures/stimuli/E","F","F","3","5950fb26ad2ce90001b87bc4","05/04/2022, 10:40:21","E_F_angelina_jolie.png E_F_Kate_Winslet.png",-0.352446911903384,"35","Female","right",0,0,FALSE
3940,"E_F_Kate_Winslet.png","E_M_nicolas_cage.png","TRUE","pictures/stimuli/E","pictures/stimuli/E","F","M","6","5950fb26ad2ce90001b87bc4","05/04/2022, 10:40:21","E_F_Kate_Winslet.png E_M_nicolas_cage.png",1.39446386883513,"35","Female","right",0,1,FALSE
4080,"E_M_michael_caine.png","P_M_Tony_Blair.png","FALSE","pictures/stimuli/E","pictures/stimuli/P","M","M","2","5950fb26ad2ce90001b87bc4","05/04/2022, 10:40:21","E_M_michael_caine.png P_M_Tony_Blair.png",-0.934750505482889,"35","Female","right",0,0,FALSE
4282,"E_F_jennifer_aniston.png","E_F_Judi_Dench.png","TRUE","pictures/stimuli/E","pictures/stimuli/E","F","F","4","5950fb26ad2ce90001b87bc4","05/04/2022, 10:40:21","E_F_jennifer_aniston.png E_F_Judi_Dench.png",0.22985668167612,"35","Female","right",0,1,FALSE
5047,"E_F_angelina_jolie.png","P_F_tehresy_may.png","FALSE","pictures/stimuli/E","pictures/stimuli/P","F","F","3","5950fb26ad2ce90001b87bc4","05/04/2022, 10:40:21","E_F_angelina_jolie.png P_F_tehresy_may.png",-0.352446911903384,"35","Female","right",0,0,FALSE
4165,"E_F_keira_knightley.png","P_F_tehresy_may.png","FALSE","pictures/stimuli/E","pictures/stimuli/P","F","F","4","5950fb26ad2ce90001b87bc4","05/04/2022, 10:40:21","E_F_keira_knightley.png P_F_tehresy_may.png",0.22985668167612,"35","Female","right",0,0,FALSE
4794,"E_M_nicolas_cage.png","E_M_tom_hankes.png","TRUE","pictures/stimuli/E","pictures/stimuli/E","M","M","1","5950fb26ad2ce90001b87bc4","05/04/2022, 10:40:21","E_M_nicolas_cage.png E_M_tom_hankes.png",-1.51705409906239,"35","Female","right",1,1,FALSE
3422,"P_M_david_cameron.png","P_M_george_Wbush.png","TRUE","pictures/stimuli/P","pictures/stimuli/P","M","M","3","5950fb26ad2ce90001b87bc4","05/04/2022, 10:40:21","P_M_david_cameron.png P_M_george_Wbush.png",-0.352446911903384,"35","Female","right",0,0,FALSE
4752,"E_F_keira_knightley.png","E_M_Hugh_Grant.png","TRUE","pictures/stimuli/E","pictures/stimuli/E","F","M","5","5950fb26ad2ce90001b87bc4","05/04/2022, 10:40:21","E_F_keira_knightley.png E_M_Hugh_Grant.png",0.812160275255625,"35","Female","right",0,0,FALSE
3731,"E_M_Hugh_Grant.png","P_M_george_Wbush.png","FALSE","pictures/stimuli/E","pictures/stimuli/P","M","M","5","5950fb26ad2ce90001b87bc4","05/04/2022, 10:40:21","E_M_Hugh_Grant.png P_M_george_Wbush.png",0.812160275255625,"35","Female","right",0,0,FALSE
3236,"E_F_angelina_jolie.png","E_M_robert_de_niro.png","TRUE","pictures/stimuli/E","pictures/stimuli/E","F","M","6","5950fb26ad2ce90001b87bc4","05/04/2022, 10:40:21","E_F_angelina_jolie.png E_M_robert_de_niro.png",1.39446386883513,"35","Female","right",0,0,FALSE
4002,"E_M_robert_de_niro.png","E_M_tom_hankes.png","TRUE","pictures/stimuli/E","pictures/stimuli/E","M","M","3","5950fb26ad2ce90001b87bc4","05/04/2022, 10:40:21","E_M_robert_de_niro.png E_M_tom_hankes.png",-0.352446911903384,"35","Female","right",0,1,FALSE
4792,"E_M_michael_caine.png","P_M_george_Wbush.png","FALSE","pictures/stimuli/E","pictures/stimuli/P","M","M","6","5950fb26ad2ce90001b87bc4","05/04/2022, 10:40:21","E_M_michael_caine.png P_M_george_Wbush.png",1.39446386883513,"35","Female","right",0,0,FALSE
5370,"E_F_keira_knightley.png","E_F_sandra_bullock.png","TRUE","pictures/stimuli/E","pictures/stimuli/E","F","F","2","5950fb26ad2ce90001b87bc4","05/04/2022, 10:40:21","E_F_keira_knightley.png E_F_sandra_bullock.png",-0.934750505482889,"35","Female","right",0,0,FALSE
7432,"E_F_keira_knightley.png","P_M_Tony_Blair.png","FALSE","pictures/stimuli/E","pictures/stimuli/P","F","M","6","5950fb26ad2ce90001b87bc4","05/04/2022, 10:40:21","E_F_keira_knightley.png P_M_Tony_Blair.png",1.39446386883513,"35","Female","right",0,0,FALSE
4870,"E_F_sandra_bullock.png","P_F_tehresy_may.png","FALSE","pictures/stimuli/E","pictures/stimuli/P","F","F","6","5950fb26ad2ce90001b87bc4","05/04/2022, 10:40:21","E_F_sandra_bullock.png P_F_tehresy_may.png",1.39446386883513,"35","Female","right",0,0,FALSE
3608,"E_M_michael_caine.png","E_M_nicolas_cage.png","TRUE","pictures/stimuli/E","pictures/stimuli/E","M","M","3","5950fb26ad2ce90001b87bc4","05/04/2022, 10:40:21","E_M_michael_caine.png E_M_nicolas_cage.png",-0.352446911903384,"35","Female","right",0,1,FALSE
3903,"P_M_boris_johnson.png","P_M_george_Wbush.png","TRUE","pictures/stimuli/P","pictures/stimuli/P","M","M","4","5950fb26ad2ce90001b87bc4","05/04/2022, 10:40:21","P_M_boris_johnson.png P_M_george_Wbush.png",0.22985668167612,"35","Female","right",1,0,FALSE
3207,"E_M_Hugh_Grant.png","E_M_tom_hankes.png","TRUE","pictures/stimuli/E","pictures/stimuli/E","M","M","4","5950fb26ad2ce90001b87bc4","05/04/2022, 10:40:21","E_M_Hugh_Grant.png E_M_tom_hankes.png",0.22985668167612,"35","Female","right",0,1,FALSE
3405,"E_F_sandra_bullock.png","P_F_hillary_clinton.png","FALSE","pictures/stimuli/E","pictures/stimuli/P","F","F","5","5950fb26ad2ce90001b87bc4","05/04/2022, 10:40:21","E_F_sandra_bullock.png P_F_hillary_clinton.png",0.812160275255625,"35","Female","right",0,0,FALSE
4330,"E_F_Judi_Dench.png","E_F_keira_knightley.png","TRUE","pictures/stimuli/E","pictures/stimuli/E","F","F","4","5950fb26ad2ce90001b87bc4","05/04/2022, 10:40:21","E_F_Judi_Dench.png E_F_keira_knightley.png",0.22985668167612,"35","Female","right",1,0,FALSE
5499,"E_M_tom_hankes.png","P_M_donald_trump.png","FALSE","pictures/stimuli/E","pictures/stimuli/P","M","M","6","5950fb26ad2ce90001b87bc4","05/04/2022, 10:40:21","E_M_tom_hankes.png P_M_donald_trump.png",1.39446386883513,"35","Female","right",1,0,FALSE
3178,"E_F_Judi_Dench.png","P_M_david_cameron.png","FALSE","pictures/stimuli/E","pictures/stimuli/P","F","M","6","5950fb26ad2ce90001b87bc4","05/04/2022, 10:40:21","E_F_Judi_Dench.png P_M_david_cameron.png",1.39446386883513,"35","Female","right",1,0,FALSE
3708,"E_F_Kate_Winslet.png","P_M_george_Wbush.png","FALSE","pictures/stimuli/E","pictures/stimuli/P","F","M","6","5950fb26ad2ce90001b87bc4","05/04/2022, 10:40:21","E_F_Kate_Winslet.png P_M_george_Wbush.png",1.39446386883513,"35","Female","right",0,0,FALSE
3402,"E_F_sandra_bullock.png","P_M_Tony_Blair.png","FALSE","pictures/stimuli/E","pictures/stimuli/P","F","M","4","5950fb26ad2ce90001b87bc4","05/04/2022, 10:40:21","E_F_sandra_bullock.png P_M_Tony_Blair.png",0.22985668167612,"35","Female","right",0,0,FALSE
4020,"E_F_Kate_Winslet.png","P_M_donald_trump.png","FALSE","pictures/stimuli/E","pictures/stimuli/P","F","M","4","5950fb26ad2ce90001b87bc4","05/04/2022, 10:40:21","E_F_Kate_Winslet.png P_M_donald_trump.png",0.22985668167612,"35","Female","right",0,0,FALSE
3001,"P_F_hillary_clinton.png","P_M_george_Wbush.png","TRUE","pictures/stimuli/P","pictures/stimuli/P","F","M","6","5950fb26ad2ce90001b87bc4","05/04/2022, 10:40:21","P_F_hillary_clinton.png P_M_george_Wbush.png",1.39446386883513,"35","Female","right",0,0,FALSE
3003,"E_F_Kate_Winslet.png","E_M_robert_de_niro.png","TRUE","pictures/stimuli/E","pictures/stimuli/E","F","M","4","5950fb26ad2ce90001b87bc4","05/04/2022, 10:40:21","E_F_Kate_Winslet.png E_M_robert_de_niro.png",0.22985668167612,"35","Female","right",0,0,FALSE
5407,"E_F_angelina_jolie.png","P_F_nicola_sturgeon.png","FALSE","pictures/stimuli/E","pictures/stimuli/P","F","F","5","5950fb26ad2ce90001b87bc4","05/04/2022, 10:40:21","E_F_angelina_jolie.png P_F_nicola_sturgeon.png",0.812160275255625,"35","Female","right",0,0,FALSE
6123,"E_F_jennifer_aniston.png","E_F_keira_knightley.png","TRUE","pictures/stimuli/E","pictures/stimuli/E","F","F","5","5950fb26ad2ce90001b87bc4","05/04/2022, 10:40:21","E_F_jennifer_aniston.png E_F_keira_knightley.png",0.812160275255625,"35","Female","right",0,0,FALSE
4792,"E_M_michael_caine.png","P_F_tehresy_may.png","FALSE","pictures/stimuli/E","pictures/stimuli/P","M","F","5","5950fb26ad2ce90001b87bc4","05/04/2022, 10:40:21","E_M_michael_caine.png P_F_tehresy_may.png",0.812160275255625,"35","Female","right",0,0,FALSE
4478,"E_M_michael_caine.png","E_M_robert_de_niro.png","TRUE","pictures/stimuli/E","pictures/stimuli/E","M","M","3","5950fb26ad2ce90001b87bc4","05/04/2022, 10:40:21","E_M_michael_caine.png E_M_robert_de_niro.png",-0.352446911903384,"35","Female","right",0,0,FALSE
3813,"E_F_jennifer_aniston.png","P_M_bill_clinton.png","FALSE","pictures/stimuli/E","pictures/stimuli/P","F","M","4","5950fb26ad2ce90001b87bc4","05/04/2022, 10:40:21","E_F_jennifer_aniston.png P_M_bill_clinton.png",0.22985668167612,"35","Female","right",0,0,FALSE
3981,"P_F_hillary_clinton.png","P_M_boris_johnson.png","TRUE","pictures/stimuli/P","pictures/stimuli/P","F","M","5","5950fb26ad2ce90001b87bc4","05/04/2022, 10:40:21","P_F_hillary_clinton.png P_M_boris_johnson.png",0.812160275255625,"35","Female","right",0,1,FALSE
5464,"E_F_keira_knightley.png","E_M_nicolas_cage.png","TRUE","pictures/stimuli/E","pictures/stimuli/E","F","M","3","5950fb26ad2ce90001b87bc4","05/04/2022, 10:40:21","E_F_keira_knightley.png E_M_nicolas_cage.png",-0.352446911903384,"35","Female","right",0,1,FALSE
4479,"E_F_Judi_Dench.png","P_M_boris_johnson.png","FALSE","pictures/stimuli/E","pictures/stimuli/P","F","M","4","5950fb26ad2ce90001b87bc4","05/04/2022, 10:40:21","E_F_Judi_Dench.png P_M_boris_johnson.png",0.22985668167612,"35","Female","right",1,1,FALSE
4175,"E_F_angelina_jolie.png","P_M_donald_trump.png","FALSE","pictures/stimuli/E","pictures/stimuli/P","F","M","6","5950fb26ad2ce90001b87bc4","05/04/2022, 10:40:21","E_F_angelina_jolie.png P_M_donald_trump.png",1.39446386883513,"35","Female","right",0,0,FALSE
5047,"E_F_jennifer_aniston.png","P_F_nicola_sturgeon.png","FALSE","pictures/stimuli/E","pictures/stimuli/P","F","F","6","5950fb26ad2ce90001b87bc4","05/04/2022, 10:40:21","E_F_jennifer_aniston.png P_F_nicola_sturgeon.png",1.39446386883513,"35","Female","right",0,0,FALSE
3461,"E_F_keira_knightley.png","E_M_robert_de_niro.png","TRUE","pictures/stimuli/E","pictures/stimuli/E","F","M","3","5950fb26ad2ce90001b87bc4","05/04/2022, 10:40:21","E_F_keira_knightley.png E_M_robert_de_niro.png",-0.352446911903384,"35","Female","right",0,0,FALSE
3561,"P_F_nicola_sturgeon.png","P_M_Tony_Blair.png","TRUE","pictures/stimuli/P","pictures/stimuli/P","F","M","6","5950fb26ad2ce90001b87bc4","05/04/2022, 10:40:21","P_F_nicola_sturgeon.png P_M_Tony_Blair.png",1.39446386883513,"35","Female","right",0,0,FALSE
3262,"E_F_sandra_bullock.png","E_M_Hugh_Grant.png","TRUE","pictures/stimuli/E","pictures/stimuli/E","F","M","2","5950fb26ad2ce90001b87bc4","05/04/2022, 10:40:21","E_F_sandra_bullock.png E_M_Hugh_Grant.png",-0.934750505482889,"35","Female","right",0,0,FALSE
2981,"E_M_Hugh_Grant.png","E_M_robert_de_niro.png","TRUE","pictures/stimuli/E","pictures/stimuli/E","M","M","4","5950fb26ad2ce90001b87bc4","05/04/2022, 10:40:21","E_M_Hugh_Grant.png E_M_robert_de_niro.png",0.22985668167612,"35","Female","right",0,0,FALSE
4098,"E_M_michael_caine.png","E_M_tom_hankes.png","TRUE","pictures/stimuli/E","pictures/stimuli/E","M","M","5","5950fb26ad2ce90001b87bc4","05/04/2022, 10:40:21","E_M_michael_caine.png E_M_tom_hankes.png",0.812160275255625,"35","Female","right",0,1,FALSE
4144,"P_F_nicola_sturgeon.png","P_M_donald_trump.png","TRUE","pictures/stimuli/P","pictures/stimuli/P","F","M","4","5950fb26ad2ce90001b87bc4","05/04/2022, 10:40:21","P_F_nicola_sturgeon.png P_M_donald_trump.png",0.22985668167612,"35","Female","right",0,0,FALSE
4177,"E_M_tom_hankes.png","P_M_boris_johnson.png","FALSE","pictures/stimuli/E","pictures/stimuli/P","M","M","5","5950fb26ad2ce90001b87bc4","05/04/2022, 10:40:21","E_M_tom_hankes.png P_M_boris_johnson.png",0.812160275255625,"35","Female","right",1,1,FALSE
4043,"E_M_robert_de_niro.png","P_F_nicola_sturgeon.png","FALSE","pictures/stimuli/E","pictures/stimuli/P","M","F","6","5950fb26ad2ce90001b87bc4","05/04/2022, 10:40:21","E_M_robert_de_niro.png P_F_nicola_sturgeon.png",1.39446386883513,"35","Female","right",0,0,FALSE
3574,"E_M_Hugh_Grant.png","P_F_nicola_sturgeon.png","FALSE","pictures/stimuli/E","pictures/stimuli/P","M","F","3","5950fb26ad2ce90001b87bc4","05/04/2022, 10:40:21","E_M_Hugh_Grant.png P_F_nicola_sturgeon.png",-0.352446911903384,"35","Female","right",0,0,FALSE
3158,"E_F_Kate_Winslet.png","P_M_bill_clinton.png","FALSE","pictures/stimuli/E","pictures/stimuli/P","F","M","4","5950fb26ad2ce90001b87bc4","05/04/2022, 10:40:21","E_F_Kate_Winslet.png P_M_bill_clinton.png",0.22985668167612,"35","Female","right",0,0,FALSE
3014,"E_F_sandra_bullock.png","E_M_nicolas_cage.png","TRUE","pictures/stimuli/E","pictures/stimuli/E","F","M","3","5950fb26ad2ce90001b87bc4","05/04/2022, 10:40:21","E_F_sandra_bullock.png E_M_nicolas_cage.png",-0.352446911903384,"35","Female","right",0,1,FALSE
2962,"E_M_nicolas_cage.png","P_M_george_Wbush.png","FALSE","pictures/stimuli/E","pictures/stimuli/P","M","M","4","5950fb26ad2ce90001b87bc4","05/04/2022, 10:40:21","E_M_nicolas_cage.png P_M_george_Wbush.png",0.22985668167612,"35","Female","right",1,0,FALSE
3560,"E_F_sandra_bullock.png","E_M_michael_caine.png","TRUE","pictures/stimuli/E","pictures/stimuli/E","F","M","5","5950fb26ad2ce90001b87bc4","05/04/2022, 10:40:21","E_F_sandra_bullock.png E_M_michael_caine.png",0.812160275255625,"35","Female","right",0,0,FALSE
3245,"E_M_michael_caine.png","P_F_nicola_sturgeon.png","FALSE","pictures/stimuli/E","pictures/stimuli/P","M","F","5","5950fb26ad2ce90001b87bc4","05/04/2022, 10:40:21","E_M_michael_caine.png P_F_nicola_sturgeon.png",0.812160275255625,"35","Female","right",0,0,FALSE
4138,"E_F_Judi_Dench.png","P_M_bill_clinton.png","FALSE","pictures/stimuli/E","pictures/stimuli/P","F","M","4","5950fb26ad2ce90001b87bc4","05/04/2022, 10:40:21","E_F_Judi_Dench.png P_M_bill_clinton.png",0.22985668167612,"35","Female","right",1,0,FALSE
3467,"E_F_keira_knightley.png","P_M_donald_trump.png","FALSE","pictures/stimuli/E","pictures/stimuli/P","F","M","6","5950fb26ad2ce90001b87bc4","05/04/2022, 10:40:21","E_F_keira_knightley.png P_M_donald_trump.png",1.39446386883513,"35","Female","right",0,0,FALSE
4360,"E_M_robert_de_niro.png","P_M_Tony_Blair.png","FALSE","pictures/stimuli/E","pictures/stimuli/P","M","M","2","5950fb26ad2ce90001b87bc4","05/04/2022, 10:40:21","E_M_robert_de_niro.png P_M_Tony_Blair.png",-0.934750505482889,"35","Female","right",0,0,FALSE
2956,"E_F_sandra_bullock.png","E_M_robert_de_niro.png","TRUE","pictures/stimuli/E","pictures/stimuli/E","F","M","5","5950fb26ad2ce90001b87bc4","05/04/2022, 10:40:21","E_F_sandra_bullock.png E_M_robert_de_niro.png",0.812160275255625,"35","Female","right",0,0,FALSE
4048,"P_F_tehresy_may.png","P_M_david_cameron.png","TRUE","pictures/stimuli/P","pictures/stimuli/P","F","M","1","5950fb26ad2ce90001b87bc4","05/04/2022, 10:40:21","P_F_tehresy_may.png P_M_david_cameron.png",-1.51705409906239,"35","Female","right",0,0,FALSE
4147,"E_M_robert_de_niro.png","P_M_donald_trump.png","FALSE","pictures/stimuli/E","pictures/stimuli/P","M","M","4","5950fb26ad2ce90001b87bc4","05/04/2022, 10:40:21","E_M_robert_de_niro.png P_M_donald_trump.png",0.22985668167612,"35","Female","right",0,0,FALSE
3461,"E_F_angelina_jolie.png","E_F_Judi_Dench.png","TRUE","pictures/stimuli/E","pictures/stimuli/E","F","F","3","5950fb26ad2ce90001b87bc4","05/04/2022, 10:40:21","E_F_angelina_jolie.png E_F_Judi_Dench.png",-0.352446911903384,"35","Female","right",0,1,FALSE
3287,"E_M_nicolas_cage.png","P_M_Tony_Blair.png","FALSE","pictures/stimuli/E","pictures/stimuli/P","M","M","4","5950fb26ad2ce90001b87bc4","05/04/2022, 10:40:21","E_M_nicolas_cage.png P_M_Tony_Blair.png",0.22985668167612,"35","Female","right",1,0,FALSE
3421,"E_F_jennifer_aniston.png","P_F_tehresy_may.png","FALSE","pictures/stimuli/E","pictures/stimuli/P","F","F","4","5950fb26ad2ce90001b87bc4","05/04/2022, 10:40:21","E_F_jennifer_aniston.png P_F_tehresy_may.png",0.22985668167612,"35","Female","right",0,0,FALSE
2807,"E_F_Judi_Dench.png","E_M_tom_hankes.png","TRUE","pictures/stimuli/E","pictures/stimuli/E","F","M","2","5950fb26ad2ce90001b87bc4","05/04/2022, 10:40:21","E_F_Judi_Dench.png E_M_tom_hankes.png",-0.934750505482889,"35","Female","right",1,1,FALSE
3265,"E_F_Judi_Dench.png","E_M_michael_caine.png","TRUE","pictures/stimuli/E","pictures/stimuli/E","F","M","2","5950fb26ad2ce90001b87bc4","05/04/2022, 10:40:21","E_F_Judi_Dench.png E_M_michael_caine.png",-0.934750505482889,"35","Female","right",1,0,FALSE
4617,"E_F_Judi_Dench.png","P_F_tehresy_may.png","FALSE","pictures/stimuli/E","pictures/stimuli/P","F","F","3","5950fb26ad2ce90001b87bc4","05/04/2022, 10:40:21","E_F_Judi_Dench.png P_F_tehresy_may.png",-0.352446911903384,"35","Female","right",1,0,FALSE
6090,"E_F_angelina_jolie.png","P_M_Tony_Blair.png","FALSE","pictures/stimuli/E","pictures/stimuli/P","F","M","3","5950fb26ad2ce90001b87bc4","05/04/2022, 10:40:21","E_F_angelina_jolie.png P_M_Tony_Blair.png",-0.352446911903384,"35","Female","right",0,0,FALSE
5780,"E_F_jennifer_aniston.png","E_M_Hugh_Grant.png","TRUE","pictures/stimuli/E","pictures/stimuli/E","F","M","3","5950fb26ad2ce90001b87bc4","05/04/2022, 10:40:21","E_F_jennifer_aniston.png E_M_Hugh_Grant.png",-0.352446911903384,"35","Female","right",0,0,FALSE
3868,"P_F_hillary_clinton.png","P_F_nicola_sturgeon.png","TRUE","pictures/stimuli/P","pictures/stimuli/P","F","F","6","5950fb26ad2ce90001b87bc4","05/04/2022, 10:40:21","P_F_hillary_clinton.png P_F_nicola_sturgeon.png",1.39446386883513,"35","Female","right",0,0,FALSE
5730,"E_F_jennifer_aniston.png","E_M_robert_de_niro.png","TRUE","pictures/stimuli/E","pictures/stimuli/E","F","M","3","5950fb26ad2ce90001b87bc4","05/04/2022, 10:40:21","E_F_jennifer_aniston.png E_M_robert_de_niro.png",-0.352446911903384,"35","Female","right",0,0,FALSE
5077,"E_F_keira_knightley.png","E_M_michael_caine.png","TRUE","pictures/stimuli/E","pictures/stimuli/E","F","M","3","5950fb26ad2ce90001b87bc4","05/04/2022, 10:40:21","E_F_keira_knightley.png E_M_michael_caine.png",-0.352446911903384,"35","Female","right",0,0,FALSE
3011,"E_F_jennifer_aniston.png","E_M_tom_hankes.png","TRUE","pictures/stimuli/E","pictures/stimuli/E","F","M","2","5950fb26ad2ce90001b87bc4","05/04/2022, 10:40:21","E_F_jennifer_aniston.png E_M_tom_hankes.png",-0.934750505482889,"35","Female","right",0,1,FALSE
3357,"E_F_Kate_Winslet.png","P_M_boris_johnson.png","FALSE","pictures/stimuli/E","pictures/stimuli/P","F","M","2","5950fb26ad2ce90001b87bc4","05/04/2022, 10:40:21","E_F_Kate_Winslet.png P_M_boris_johnson.png",-0.934750505482889,"35","Female","right",0,1,FALSE
4439,"E_F_Judi_Dench.png","P_F_hillary_clinton.png","FALSE","pictures/stimuli/E","pictures/stimuli/P","F","F","3","5950fb26ad2ce90001b87bc4","05/04/2022, 10:40:21","E_F_Judi_Dench.png P_F_hillary_clinton.png",-0.352446911903384,"35","Female","right",1,0,FALSE
3718,"E_M_tom_hankes.png","P_F_hillary_clinton.png","FALSE","pictures/stimuli/E","pictures/stimuli/P","M","F","2","5950fb26ad2ce90001b87bc4","05/04/2022, 10:40:21","E_M_tom_hankes.png P_F_hillary_clinton.png",-0.934750505482889,"35","Female","right",1,0,FALSE
3031,"E_F_angelina_jolie.png","P_M_george_Wbush.png","FALSE","pictures/stimuli/E","pictures/stimuli/P","F","M","4","5950fb26ad2ce90001b87bc4","05/04/2022, 10:40:21","E_F_angelina_jolie.png P_M_george_Wbush.png",0.22985668167612,"35","Female","right",0,0,FALSE
3248,"E_M_Hugh_Grant.png","P_M_boris_johnson.png","FALSE","pictures/stimuli/E","pictures/stimuli/P","M","M","2","5950fb26ad2ce90001b87bc4","05/04/2022, 10:40:21","E_M_Hugh_Grant.png P_M_boris_johnson.png",-0.934750505482889,"35","Female","right",0,1,FALSE
4259,"E_F_jennifer_aniston.png","P_M_george_Wbush.png","FALSE","pictures/stimuli/E","pictures/stimuli/P","F","M","4","5950fb26ad2ce90001b87bc4","05/04/2022, 10:40:21","E_F_jennifer_aniston.png P_M_george_Wbush.png",0.22985668167612,"35","Female","right",0,0,FALSE
3753,"P_F_nicola_sturgeon.png","P_M_bill_clinton.png","TRUE","pictures/stimuli/P","pictures/stimuli/P","F","M","1","5950fb26ad2ce90001b87bc4","05/04/2022, 10:40:21","P_F_nicola_sturgeon.png P_M_bill_clinton.png",-1.51705409906239,"35","Female","right",0,0,FALSE
3042,"E_F_Kate_Winslet.png","E_F_sandra_bullock.png","TRUE","pictures/stimuli/E","pictures/stimuli/E","F","F","3","5950fb26ad2ce90001b87bc4","05/04/2022, 10:40:21","E_F_Kate_Winslet.png E_F_sandra_bullock.png",-0.352446911903384,"35","Female","right",0,0,FALSE
5866,"P_M_bill_clinton.png","P_M_Tony_Blair.png","TRUE","pictures/stimuli/P","pictures/stimuli/P","M","M","1","5950fb26ad2ce90001b87bc4","05/04/2022, 10:40:21","P_M_bill_clinton.png P_M_Tony_Blair.png",-1.51705409906239,"35","Female","right",0,0,FALSE
3083,"E_M_Hugh_Grant.png","P_M_david_cameron.png","FALSE","pictures/stimuli/E","pictures/stimuli/P","M","M","1","5950fb26ad2ce90001b87bc4","05/04/2022, 10:40:21","E_M_Hugh_Grant.png P_M_david_cameron.png",-1.51705409906239,"35","Female","right",0,0,FALSE
5401,"P_F_hillary_clinton.png","P_F_tehresy_may.png","TRUE","pictures/stimuli/P","pictures/stimuli/P","F","F","2","5950fb26ad2ce90001b87bc4","05/04/2022, 10:40:21","P_F_hillary_clinton.png P_F_tehresy_may.png",-0.934750505482889,"35","Female","right",0,0,FALSE
3682,"P_F_hillary_clinton.png","P_M_donald_trump.png","TRUE","pictures/stimuli/P","pictures/stimuli/P","F","M","5","5950fb26ad2ce90001b87bc4","05/04/2022, 10:40:21","P_F_hillary_clinton.png P_M_donald_trump.png",0.812160275255625,"35","Female","right",0,0,FALSE
3305,"P_M_david_cameron.png","P_M_Tony_Blair.png","TRUE","pictures/stimuli/P","pictures/stimuli/P","M","M","6","5950fb26ad2ce90001b87bc4","05/04/2022, 10:40:21","P_M_david_cameron.png P_M_Tony_Blair.png",1.39446386883513,"35","Female","right",0,0,FALSE
3511,"E_F_jennifer_aniston.png","E_M_michael_caine.png","TRUE","pictures/stimuli/E","pictures/stimuli/E","F","M","3","5950fb26ad2ce90001b87bc4","05/04/2022, 10:40:21","E_F_jennifer_aniston.png E_M_michael_caine.png",-0.352446911903384,"35","Female","right",0,0,FALSE
2775,"E_M_nicolas_cage.png","P_F_tehresy_may.png","FALSE","pictures/stimuli/E","pictures/stimuli/P","M","F","1","5950fb26ad2ce90001b87bc4","05/04/2022, 10:40:21","E_M_nicolas_cage.png P_F_tehresy_may.png",-1.51705409906239,"35","Female","right",1,0,FALSE
3393,"E_M_robert_de_niro.png","P_M_george_Wbush.png","FALSE","pictures/stimuli/E","pictures/stimuli/P","M","M","1","5950fb26ad2ce90001b87bc4","05/04/2022, 10:40:21","E_M_robert_de_niro.png P_M_george_Wbush.png",-1.51705409906239,"35","Female","right",0,0,FALSE
5647,"P_M_bill_clinton.png","P_M_donald_trump.png","TRUE","pictures/stimuli/P","pictures/stimuli/P","M","M","4","5950fb26ad2ce90001b87bc4","05/04/2022, 10:40:21","P_M_bill_clinton.png P_M_donald_trump.png",0.22985668167612,"35","Female","right",0,0,FALSE
3040,"E_M_tom_hankes.png","P_F_nicola_sturgeon.png","FALSE","pictures/stimuli/E","pictures/stimuli/P","M","F","1","5950fb26ad2ce90001b87bc4","05/04/2022, 10:40:21","E_M_tom_hankes.png P_F_nicola_sturgeon.png",-1.51705409906239,"35","Female","right",1,0,FALSE
3267,"P_F_tehresy_may.png","P_M_Tony_Blair.png","TRUE","pictures/stimuli/P","pictures/stimuli/P","F","M","1","5950fb26ad2ce90001b87bc4","05/04/2022, 10:40:21","P_F_tehresy_may.png P_M_Tony_Blair.png",-1.51705409906239,"35","Female","right",0,0,FALSE
3099,"E_M_nicolas_cage.png","P_F_hillary_clinton.png","FALSE","pictures/stimuli/E","pictures/stimuli/P","M","F","3","5950fb26ad2ce90001b87bc4","05/04/2022, 10:40:21","E_M_nicolas_cage.png P_F_hillary_clinton.png",-0.352446911903384,"35","Female","right",1,0,FALSE
3678,"E_F_sandra_bullock.png","P_M_donald_trump.png","FALSE","pictures/stimuli/E","pictures/stimuli/P","F","M","5","5950fb26ad2ce90001b87bc4","05/04/2022, 10:40:21","E_F_sandra_bullock.png P_M_donald_trump.png",0.812160275255625,"35","Female","right",0,0,FALSE
5132,"E_F_sandra_bullock.png","P_M_david_cameron.png","FALSE","pictures/stimuli/E","pictures/stimuli/P","F","M","4","5950fb26ad2ce90001b87bc4","05/04/2022, 10:40:21","E_F_sandra_bullock.png P_M_david_cameron.png",0.22985668167612,"35","Female","right",0,0,FALSE
4049,"E_F_Judi_Dench.png","E_M_robert_de_niro.png","TRUE","pictures/stimuli/E","pictures/stimuli/E","F","M","1","5950fb26ad2ce90001b87bc4","05/04/2022, 10:40:21","E_F_Judi_Dench.png E_M_robert_de_niro.png",-1.51705409906239,"35","Female","right",1,0,FALSE
3431,"E_F_jennifer_aniston.png","P_M_boris_johnson.png","FALSE","pictures/stimuli/E","pictures/stimuli/P","F","M","2","5950fb26ad2ce90001b87bc4","05/04/2022, 10:40:21","E_F_jennifer_aniston.png P_M_boris_johnson.png",-0.934750505482889,"35","Female","right",0,1,FALSE
4343,"P_M_george_Wbush.png","P_M_Tony_Blair.png","TRUE","pictures/stimuli/P","pictures/stimuli/P","M","M","1","5950fb26ad2ce90001b87bc4","05/04/2022, 10:40:21","P_M_george_Wbush.png P_M_Tony_Blair.png",-1.51705409906239,"35","Female","right",0,0,FALSE
3520,"E_M_michael_caine.png","P_M_boris_johnson.png","FALSE","pictures/stimuli/E","pictures/stimuli/P","M","M","1","5950fb26ad2ce90001b87bc4","05/04/2022, 10:40:21","E_M_michael_caine.png P_M_boris_johnson.png",-1.51705409906239,"35","Female","right",0,1,FALSE
7404,"P_F_hillary_clinton.png","P_M_bill_clinton.png","TRUE","pictures/stimuli/P","pictures/stimuli/P","F","M","4","5950fb26ad2ce90001b87bc4","05/04/2022, 10:40:21","P_F_hillary_clinton.png P_M_bill_clinton.png",0.22985668167612,"35","Female","right",0,0,FALSE
2805,"E_M_Hugh_Grant.png","P_M_Tony_Blair.png","FALSE","pictures/stimuli/E","pictures/stimuli/P","M","M","1","5950fb26ad2ce90001b87bc4","05/04/2022, 10:40:21","E_M_Hugh_Grant.png P_M_Tony_Blair.png",-1.51705409906239,"35","Female","right",0,0,FALSE
3209,"E_F_Kate_Winslet.png","P_F_nicola_sturgeon.png","FALSE","pictures/stimuli/E","pictures/stimuli/P","F","F","4","5950fb26ad2ce90001b87bc4","05/04/2022, 10:40:21","E_F_Kate_Winslet.png P_F_nicola_sturgeon.png",0.22985668167612,"35","Female","right",0,0,FALSE
3929,"P_M_bill_clinton.png","P_M_george_Wbush.png","TRUE","pictures/stimuli/P","pictures/stimuli/P","M","M","4","5950fb26ad2ce90001b87bc4","05/04/2022, 10:40:21","P_M_bill_clinton.png P_M_george_Wbush.png",0.22985668167612,"35","Female","right",0,0,FALSE
6249,"E_M_michael_caine.png","P_M_donald_trump.png","FALSE","pictures/stimuli/E","pictures/stimuli/P","M","M","5","5950fb26ad2ce90001b87bc4","05/04/2022, 10:40:21","E_M_michael_caine.png P_M_donald_trump.png",0.812160275255625,"35","Female","right",0,0,FALSE
9864,"E_F_Judi_Dench.png","P_M_donald_trump.png","FALSE","pictures/stimuli/E","pictures/stimuli/P","F","M","6","5950fb26ad2ce90001b87bc4","05/04/2022, 10:40:21","E_F_Judi_Dench.png P_M_donald_trump.png",1.39446386883513,"35","Female","right",1,0,FALSE
4635,"P_F_tehresy_may.png","P_M_george_Wbush.png","TRUE","pictures/stimuli/P","pictures/stimuli/P","F","M","2","5950fb26ad2ce90001b87bc4","05/04/2022, 10:40:21","P_F_tehresy_may.png P_M_george_Wbush.png",-0.934750505482889,"35","Female","right",0,0,FALSE
15932,"E_M_Hugh_Grant.png","E_M_nicolas_cage.png","TRUE","pictures/stimuli/E","pictures/stimuli/E","M","M","2","5950fb26ad2ce90001b87bc4","05/04/2022, 10:40:21","E_M_Hugh_Grant.png E_M_nicolas_cage.png",-0.934750505482889,"35","Female","right",0,1,FALSE
7363,"E_F_keira_knightley.png","P_M_boris_johnson.png","FALSE","pictures/stimuli/E","pictures/stimuli/P","F","M","4","5950fb26ad2ce90001b87bc4","05/04/2022, 10:40:21","E_F_keira_knightley.png P_M_boris_johnson.png",0.22985668167612,"35","Female","right",0,1,FALSE
3460,"E_F_angelina_jolie.png","E_F_sandra_bullock.png","TRUE","pictures/stimuli/E","pictures/stimuli/E","F","F","2","5950fb26ad2ce90001b87bc4","05/04/2022, 10:40:21","E_F_angelina_jolie.png E_F_sandra_bullock.png",-0.934750505482889,"35","Female","right",0,0,FALSE
3443,"E_F_keira_knightley.png","P_F_hillary_clinton.png","FALSE","pictures/stimuli/E","pictures/stimuli/P","F","F","1","5950fb26ad2ce90001b87bc4","05/04/2022, 10:40:21","E_F_keira_knightley.png P_F_hillary_clinton.png",-1.51705409906239,"35","Female","right",0,0,FALSE
14464,"E_F_keira_knightley.png","P_F_nicola_sturgeon.png","FALSE","pictures/stimuli/E","pictures/stimuli/P","F","F","6","5950fb26ad2ce90001b87bc4","05/04/2022, 10:40:21","E_F_keira_knightley.png P_F_nicola_sturgeon.png",1.39446386883513,"35","Female","right",0,0,FALSE
3403,"E_M_robert_de_niro.png","P_M_bill_clinton.png","FALSE","pictures/stimuli/E","pictures/stimuli/P","M","M","4","5950fb26ad2ce90001b87bc4","05/04/2022, 10:40:21","E_M_robert_de_niro.png P_M_bill_clinton.png",0.22985668167612,"35","Female","right",0,0,FALSE
9862,"E_M_nicolas_cage.png","P_M_bill_clinton.png","FALSE","pictures/stimuli/E","pictures/stimuli/P","M","M","3","5950fb26ad2ce90001b87bc4","05/04/2022, 10:40:21","E_M_nicolas_cage.png P_M_bill_clinton.png",-0.352446911903384,"35","Female","right",1,0,FALSE
3033,"E_F_jennifer_aniston.png","P_M_david_cameron.png","FALSE","pictures/stimuli/E","pictures/stimuli/P","F","M","2","5950fb26ad2ce90001b87bc4","05/04/2022, 10:40:21","E_F_jennifer_aniston.png P_M_david_cameron.png",-0.934750505482889,"35","Female","right",0,0,FALSE
5834,"P_F_nicola_sturgeon.png","P_F_tehresy_may.png","TRUE","pictures/stimuli/P","pictures/stimuli/P","F","F","1","5950fb26ad2ce90001b87bc4","05/04/2022, 10:40:21","P_F_nicola_sturgeon.png P_F_tehresy_may.png",-1.51705409906239,"35","Female","right",0,0,FALSE
3256,"E_M_Hugh_Grant.png","P_F_hillary_clinton.png","FALSE","pictures/stimuli/E","pictures/stimuli/P","M","F","1","5950fb26ad2ce90001b87bc4","05/04/2022, 10:40:21","E_M_Hugh_Grant.png P_F_hillary_clinton.png",-1.51705409906239,"35","Female","right",0,0,FALSE
3733,"E_M_michael_caine.png","P_M_bill_clinton.png","FALSE","pictures/stimuli/E","pictures/stimuli/P","M","M","3","5950fb26ad2ce90001b87bc4","05/04/2022, 10:40:21","E_M_michael_caine.png P_M_bill_clinton.png",-0.352446911903384,"35","Female","right",0,0,FALSE
5465,"E_F_Kate_Winslet.png","P_F_tehresy_may.png","FALSE","pictures/stimuli/E","pictures/stimuli/P","F","F","4","5950fb26ad2ce90001b87bc4","05/04/2022, 10:40:21","E_F_Kate_Winslet.png P_F_tehresy_may.png",0.22985668167612,"35","Female","right",0,0,FALSE
3392,"E_F_angelina_jolie.png","P_F_hillary_clinton.png","FALSE","pictures/stimuli/E","pictures/stimuli/P","F","F","2","5950fb26ad2ce90001b87bc4","05/04/2022, 10:40:21","E_F_angelina_jolie.png P_F_hillary_clinton.png",-0.934750505482889,"35","Female","right",0,0,FALSE
2963,"E_M_robert_de_niro.png","P_M_david_cameron.png","FALSE","pictures/stimuli/E","pictures/stimuli/P","M","M","4","5950fb26ad2ce90001b87bc4","05/04/2022, 10:40:21","E_M_robert_de_niro.png P_M_david_cameron.png",0.22985668167612,"35","Female","right",0,0,FALSE
3422,"E_M_Hugh_Grant.png","P_M_bill_clinton.png","FALSE","pictures/stimuli/E","pictures/stimuli/P","M","M","1","5950fb26ad2ce90001b87bc4","05/04/2022, 10:40:21","E_M_Hugh_Grant.png P_M_bill_clinton.png",-1.51705409906239,"35","Female","right",0,0,FALSE
2897,"P_M_boris_johnson.png","P_M_donald_trump.png","TRUE","pictures/stimuli/P","pictures/stimuli/P","M","M","1","5950fb26ad2ce90001b87bc4","05/04/2022, 10:40:21","P_M_boris_johnson.png P_M_donald_trump.png",-1.51705409906239,"35","Female","right",1,0,FALSE
2463,"E_M_michael_caine.png","P_F_hillary_clinton.png","FALSE","pictures/stimuli/E","pictures/stimuli/P","M","F","1","5950fb26ad2ce90001b87bc4","05/04/2022, 10:40:21","E_M_michael_caine.png P_F_hillary_clinton.png",-1.51705409906239,"35","Female","right",0,0,FALSE
3219,"E_F_keira_knightley.png","E_M_tom_hankes.png","TRUE","pictures/stimuli/E","pictures/stimuli/E","F","M","3","5950fb26ad2ce90001b87bc4","05/04/2022, 10:40:21","E_F_keira_knightley.png E_M_tom_hankes.png",-0.352446911903384,"35","Female","right",0,1,FALSE
3891,"E_F_Kate_Winslet.png","E_F_keira_knightley.png","TRUE","pictures/stimuli/E","pictures/stimuli/E","F","F","1","5950fb26ad2ce90001b87bc4","05/04/2022, 10:40:21","E_F_Kate_Winslet.png E_F_keira_knightley.png",-1.51705409906239,"35","Female","right",0,0,FALSE
3335,"P_F_nicola_sturgeon.png","P_M_david_cameron.png","TRUE","pictures/stimuli/P","pictures/stimuli/P","F","M","1","5950fb26ad2ce90001b87bc4","05/04/2022, 10:40:21","P_F_nicola_sturgeon.png P_M_david_cameron.png",-1.51705409906239,"35","Female","right",0,0,FALSE
3637,"E_M_Hugh_Grant.png","E_M_michael_caine.png","TRUE","pictures/stimuli/E","pictures/stimuli/E","M","M","2","5950fb26ad2ce90001b87bc4","05/04/2022, 10:40:21","E_M_Hugh_Grant.png E_M_michael_caine.png",-0.934750505482889,"35","Female","right",0,0,FALSE
3639,"E_M_robert_de_niro.png","P_F_hillary_clinton.png","FALSE","pictures/stimuli/E","pictures/stimuli/P","M","F","2","5950fb26ad2ce90001b87bc4","05/04/2022, 10:40:21","E_M_robert_de_niro.png P_F_hillary_clinton.png",-0.934750505482889,"35","Female","right",0,0,FALSE
3431,"E_M_robert_de_niro.png","P_F_tehresy_may.png","FALSE","pictures/stimuli/E","pictures/stimuli/P","M","F","4","5950fb26ad2ce90001b87bc4","05/04/2022, 10:40:21","E_M_robert_de_niro.png P_F_tehresy_may.png",0.22985668167612,"35","Female","right",0,0,FALSE
3432,"E_F_jennifer_aniston.png","E_F_sandra_bullock.png","TRUE","pictures/stimuli/E","pictures/stimuli/E","F","F","3","5950fb26ad2ce90001b87bc4","05/04/2022, 10:40:21","E_F_jennifer_aniston.png E_F_sandra_bullock.png",-0.352446911903384,"35","Female","right",0,0,FALSE
3604,"E_F_Kate_Winslet.png","P_M_Tony_Blair.png","FALSE","pictures/stimuli/E","pictures/stimuli/P","F","M","3","5950fb26ad2ce90001b87bc4","05/04/2022, 10:40:21","E_F_Kate_Winslet.png P_M_Tony_Blair.png",-0.352446911903384,"35","Female","right",0,0,FALSE
3040,"P_F_tehresy_may.png","P_M_boris_johnson.png","TRUE","pictures/stimuli/P","pictures/stimuli/P","F","M","2","5950fb26ad2ce90001b87bc4","05/04/2022, 10:40:21","P_F_tehresy_may.png P_M_boris_johnson.png",-0.934750505482889,"35","Female","right",0,1,FALSE
2974,"E_F_Judi_Dench.png","P_F_nicola_sturgeon.png","FALSE","pictures/stimuli/E","pictures/stimuli/P","F","F","1","5950fb26ad2ce90001b87bc4","05/04/2022, 10:40:21","E_F_Judi_Dench.png P_F_nicola_sturgeon.png",-1.51705409906239,"35","Female","right",1,0,FALSE
2716,"E_M_Hugh_Grant.png","P_F_tehresy_may.png","FALSE","pictures/stimuli/E","pictures/stimuli/P","M","F","1","5950fb26ad2ce90001b87bc4","05/04/2022, 10:40:21","E_M_Hugh_Grant.png P_F_tehresy_may.png",-1.51705409906239,"35","Female","right",0,0,FALSE
4030,"E_M_tom_hankes.png","P_M_Tony_Blair.png","FALSE","pictures/stimuli/E","pictures/stimuli/P","M","M","6","5950fb26ad2ce90001b87bc4","05/04/2022, 10:40:21","E_M_tom_hankes.png P_M_Tony_Blair.png",1.39446386883513,"35","Female","right",1,0,FALSE
3388,"E_F_Judi_Dench.png","E_F_Kate_Winslet.png","TRUE","pictures/stimuli/E","pictures/stimuli/E","F","F","3","5950fb26ad2ce90001b87bc4","05/04/2022, 10:40:21","E_F_Judi_Dench.png E_F_Kate_Winslet.png",-0.352446911903384,"35","Female","right",1,0,FALSE
3246,"E_F_Kate_Winslet.png","E_M_michael_caine.png","TRUE","pictures/stimuli/E","pictures/stimuli/E","F","M","6","5950fb26ad2ce90001b87bc4","05/04/2022, 10:40:21","E_F_Kate_Winslet.png E_M_michael_caine.png",1.39446386883513,"35","Female","right",0,0,FALSE
3961,"E_F_jennifer_aniston.png","P_M_Tony_Blair.png","FALSE","pictures/stimuli/E","pictures/stimuli/P","F","M","4","5950fb26ad2ce90001b87bc4","05/04/2022, 10:40:21","E_F_jennifer_aniston.png P_M_Tony_Blair.png",0.22985668167612,"35","Female","right",0,0,FALSE
2844,"E_F_sandra_bullock.png","P_M_boris_johnson.png","FALSE","pictures/stimuli/E","pictures/stimuli/P","F","M","6","5950fb26ad2ce90001b87bc4","05/04/2022, 10:40:21","E_F_sandra_bullock.png P_M_boris_johnson.png",1.39446386883513,"35","Female","right",0,1,FALSE
3071,"P_F_nicola_sturgeon.png","P_M_boris_johnson.png","TRUE","pictures/stimuli/P","pictures/stimuli/P","F","M","1","5950fb26ad2ce90001b87bc4","05/04/2022, 10:40:21","P_F_nicola_sturgeon.png P_M_boris_johnson.png",-1.51705409906239,"35","Female","right",0,1,FALSE
4082,"E_F_keira_knightley.png","P_M_george_Wbush.png","FALSE","pictures/stimuli/E","pictures/stimuli/P","F","M","6","5950fb26ad2ce90001b87bc4","05/04/2022, 10:40:21","E_F_keira_knightley.png P_M_george_Wbush.png",1.39446386883513,"35","Female","right",0,0,FALSE
4907,"E_F_Judi_Dench.png","E_F_sandra_bullock.png","TRUE","pictures/stimuli/E","pictures/stimuli/E","F","F","5","5950fb26ad2ce90001b87bc4","05/04/2022, 10:40:21","E_F_Judi_Dench.png E_F_sandra_bullock.png",0.812160275255625,"35","Female","right",1,0,FALSE
4236,"P_F_tehresy_may.png","P_M_bill_clinton.png","TRUE","pictures/stimuli/P","pictures/stimuli/P","F","M","3","5950fb26ad2ce90001b87bc4","05/04/2022, 10:40:21","P_F_tehresy_may.png P_M_bill_clinton.png",-0.352446911903384,"35","Female","right",0,0,FALSE
3315,"P_M_boris_johnson.png","P_M_Tony_Blair.png","TRUE","pictures/stimuli/P","pictures/stimuli/P","M","M","6","5950fb26ad2ce90001b87bc4","05/04/2022, 10:40:21","P_M_boris_johnson.png P_M_Tony_Blair.png",1.39446386883513,"35","Female","right",1,0,FALSE
5017,"E_F_sandra_bullock.png","P_M_bill_clinton.png","FALSE","pictures/stimuli/E","pictures/stimuli/P","F","M","5","5950fb26ad2ce90001b87bc4","05/04/2022, 10:40:21","E_F_sandra_bullock.png P_M_bill_clinton.png",0.812160275255625,"35","Female","right",0,0,FALSE
4785,"E_F_angelina_jolie.png","P_M_bill_clinton.png","FALSE","pictures/stimuli/E","pictures/stimuli/P","F","M","5","5950fb26ad2ce90001b87bc4","05/04/2022, 10:40:21","E_F_angelina_jolie.png P_M_bill_clinton.png",0.812160275255625,"35","Female","right",0,0,FALSE
4095,"E_M_robert_de_niro.png","P_M_boris_johnson.png","FALSE","pictures/stimuli/E","pictures/stimuli/P","M","M","6","5950fb26ad2ce90001b87bc4","05/04/2022, 10:40:21","E_M_robert_de_niro.png P_M_boris_johnson.png",1.39446386883513,"35","Female","right",0,1,FALSE
3766,"E_F_angelina_jolie.png","E_M_tom_hankes.png","TRUE","pictures/stimuli/E","pictures/stimuli/E","F","M","3","5950fb26ad2ce90001b87bc4","05/04/2022, 10:40:21","E_F_angelina_jolie.png E_M_tom_hankes.png",-0.352446911903384,"35","Female","right",0,1,FALSE
2679,"E_M_nicolas_cage.png","P_M_david_cameron.png","FALSE","pictures/stimuli/E","pictures/stimuli/P","M","M","6","5950fb26ad2ce90001b87bc4","05/04/2022, 10:40:21","E_M_nicolas_cage.png P_M_david_cameron.png",1.39446386883513,"35","Female","right",1,0,FALSE
3044,"E_F_Kate_Winslet.png","P_F_hillary_clinton.png","FALSE","pictures/stimuli/E","pictures/stimuli/P","F","F","1","5950fb26ad2ce90001b87bc4","05/04/2022, 10:40:21","E_F_Kate_Winslet.png P_F_hillary_clinton.png",-1.51705409906239,"35","Female","right",0,0,FALSE
3536,"E_M_nicolas_cage.png","P_M_donald_trump.png","FALSE","pictures/stimuli/E","pictures/stimuli/P","M","M","6","5950fb26ad2ce90001b87bc4","05/04/2022, 10:40:21","E_M_nicolas_cage.png P_M_donald_trump.png",1.39446386883513,"35","Female","right",1,0,FALSE
4595,"E_F_angelina_jolie.png","E_F_jennifer_aniston.png","TRUE","pictures/stimuli/E","pictures/stimuli/E","F","F","6","5950fb26ad2ce90001b87bc4","05/04/2022, 10:40:21","E_F_angelina_jolie.png E_F_jennifer_aniston.png",1.39446386883513,"35","Female","right",0,0,FALSE
3376,"E_F_Judi_Dench.png","P_M_Tony_Blair.png","FALSE","pictures/stimuli/E","pictures/stimuli/P","F","M","2","5950fb26ad2ce90001b87bc4","05/04/2022, 10:40:21","E_F_Judi_Dench.png P_M_Tony_Blair.png",-0.934750505482889,"35","Female","right",1,0,FALSE
11983,"E_M_michael_caine.png","P_M_david_cameron.png","FALSE","pictures/stimuli/E","pictures/stimuli/P","M","M","5","5950fb26ad2ce90001b87bc4","05/04/2022, 10:40:21","E_M_michael_caine.png P_M_david_cameron.png",0.812160275255625,"35","Female","right",0,0,FALSE
5085,"E_M_tom_hankes.png","P_M_david_cameron.png","FALSE","pictures/stimuli/E","pictures/stimuli/P","M","M","5","5950fb26ad2ce90001b87bc4","05/04/2022, 10:40:21","E_M_tom_hankes.png P_M_david_cameron.png",0.812160275255625,"35","Female","right",1,0,FALSE
5652,"E_F_sandra_bullock.png","E_M_tom_hankes.png","TRUE","pictures/stimuli/E","pictures/stimuli/E","F","M","5","5950fb26ad2ce90001b87bc4","05/04/2022, 10:40:21","E_F_sandra_bullock.png E_M_tom_hankes.png",0.812160275255625,"35","Female","right",0,1,FALSE
4835,"E_F_Kate_Winslet.png","P_M_david_cameron.png","FALSE","pictures/stimuli/E","pictures/stimuli/P","F","M","5","5950fb26ad2ce90001b87bc4","05/04/2022, 10:40:21","E_F_Kate_Winslet.png P_M_david_cameron.png",0.812160275255625,"35","Female","right",0,0,FALSE
3713,"P_M_bill_clinton.png","P_M_boris_johnson.png","TRUE","pictures/stimuli/P","pictures/stimuli/P","M","M","4","5950fb26ad2ce90001b87bc4","05/04/2022, 10:40:21","P_M_bill_clinton.png P_M_boris_johnson.png",0.22985668167612,"35","Female","right",0,1,FALSE
2743,"P_F_hillary_clinton.png","P_M_Tony_Blair.png","TRUE","pictures/stimuli/P","pictures/stimuli/P","F","M","6","5950fb26ad2ce90001b87bc4","05/04/2022, 10:40:21","P_F_hillary_clinton.png P_M_Tony_Blair.png",1.39446386883513,"35","Female","right",0,0,FALSE
2268,"E_M_Hugh_Grant.png","P_M_donald_trump.png","FALSE","pictures/stimuli/E","pictures/stimuli/P","M","M","6","5950fb26ad2ce90001b87bc4","05/04/2022, 10:40:21","E_M_Hugh_Grant.png P_M_donald_trump.png",1.39446386883513,"35","Female","right",0,0,FALSE
2984,"E_F_keira_knightley.png","P_M_david_cameron.png","FALSE","pictures/stimuli/E","pictures/stimuli/P","F","M","6","5950fb26ad2ce90001b87bc4","05/04/2022, 10:40:21","E_F_keira_knightley.png P_M_david_cameron.png",1.39446386883513,"35","Female","right",0,0,FALSE
3000,"E_F_angelina_jolie.png","E_M_Hugh_Grant.png","TRUE","pictures/stimuli/E","pictures/stimuli/E","F","M","4","5950fb26ad2ce90001b87bc4","05/04/2022, 10:40:21","E_F_angelina_jolie.png E_M_Hugh_Grant.png",0.22985668167612,"35","Female","right",0,0,FALSE
3219,"P_F_hillary_clinton.png","P_M_david_cameron.png","TRUE","pictures/stimuli/P","pictures/stimuli/P","F","M","5","5950fb26ad2ce90001b87bc4","05/04/2022, 10:40:21","P_F_hillary_clinton.png P_M_david_cameron.png",0.812160275255625,"35","Female","right",0,0,FALSE
5022,"E_M_tom_hankes.png","P_M_george_Wbush.png","FALSE","pictures/stimuli/E","pictures/stimuli/P","M","M","4","5950fb26ad2ce90001b87bc4","05/04/2022, 10:40:21","E_M_tom_hankes.png P_M_george_Wbush.png",0.22985668167612,"35","Female","right",1,0,FALSE
4410,"E_M_nicolas_cage.png","P_F_nicola_sturgeon.png","FALSE","pictures/stimuli/E","pictures/stimuli/P","M","F","5","5950fb26ad2ce90001b87bc4","05/04/2022, 10:40:21","E_M_nicolas_cage.png P_F_nicola_sturgeon.png",0.812160275255625,"35","Female","right",1,0,FALSE
3238,"P_M_boris_johnson.png","P_M_david_cameron.png","TRUE","pictures/stimuli/P","pictures/stimuli/P","M","M","2","5950fb26ad2ce90001b87bc4","05/04/2022, 10:40:21","P_M_boris_johnson.png P_M_david_cameron.png",-0.934750505482889,"35","Female","right",1,0,FALSE
3423,"E_F_jennifer_aniston.png","E_F_Kate_Winslet.png","TRUE","pictures/stimuli/E","pictures/stimuli/E","F","F","4","5950fb26ad2ce90001b87bc4","05/04/2022, 10:40:21","E_F_jennifer_aniston.png E_F_Kate_Winslet.png",0.22985668167612,"35","Female","right",0,0,FALSE
6201,"P_F_tehresy_may.png","P_M_donald_trump.png","TRUE","pictures/stimuli/P","pictures/stimuli/P","F","M","6","5950fb26ad2ce90001b87bc4","05/04/2022, 10:40:21","P_F_tehresy_may.png P_M_donald_trump.png",1.39446386883513,"35","Female","right",0,0,FALSE
3370,"P_M_bill_clinton.png","P_M_david_cameron.png","TRUE","pictures/stimuli/P","pictures/stimuli/P","M","M","3","5950fb26ad2ce90001b87bc4","05/04/2022, 10:40:21","P_M_bill_clinton.png P_M_david_cameron.png",-0.352446911903384,"35","Female","right",0,0,FALSE
3050,"E_F_Judi_Dench.png","E_M_nicolas_cage.png","TRUE","pictures/stimuli/E","pictures/stimuli/E","F","M","2","5950fb26ad2ce90001b87bc4","05/04/2022, 10:40:21","E_F_Judi_Dench.png E_M_nicolas_cage.png",-0.934750505482889,"35","Female","right",1,1,FALSE
3834,"E_F_angelina_jolie.png","P_M_boris_johnson.png","FALSE","pictures/stimuli/E","pictures/stimuli/P","F","M","6","5950fb26ad2ce90001b87bc4","05/04/2022, 10:40:21","E_F_angelina_jolie.png P_M_boris_johnson.png",1.39446386883513,"35","Female","right",0,1,FALSE
2738,"E_F_jennifer_aniston.png","P_M_donald_trump.png","FALSE","pictures/stimuli/E","pictures/stimuli/P","F","M","6","5950fb26ad2ce90001b87bc4","05/04/2022, 10:40:21","E_F_jennifer_aniston.png P_M_donald_trump.png",1.39446386883513,"35","Female","right",0,0,FALSE
3757,"E_F_jennifer_aniston.png","E_M_nicolas_cage.png","TRUE","pictures/stimuli/E","pictures/stimuli/E","F","M","4","5950fb26ad2ce90001b87bc4","05/04/2022, 10:40:21","E_F_jennifer_aniston.png E_M_nicolas_cage.png",0.22985668167612,"35","Female","right",0,1,FALSE
3246,"E_F_Kate_Winslet.png","E_M_Hugh_Grant.png","TRUE","pictures/stimuli/E","pictures/stimuli/E","F","M","3","5950fb26ad2ce90001b87bc4","05/04/2022, 10:40:21","E_F_Kate_Winslet.png E_M_Hugh_Grant.png",-0.352446911903384,"35","Female","right",0,0,FALSE
3478,"E_M_nicolas_cage.png","P_M_boris_johnson.png","FALSE","pictures/stimuli/E","pictures/stimuli/P","M","M","6","5950fb26ad2ce90001b87bc4","05/04/2022, 10:40:21","E_M_nicolas_cage.png P_M_boris_johnson.png",1.39446386883513,"35","Female","right",1,1,FALSE
2868,"E_F_angelina_jolie.png","P_M_david_cameron.png","FALSE","pictures/stimuli/E","pictures/stimuli/P","F","M","6","5950fb26ad2ce90001b87bc4","05/04/2022, 10:40:21","E_F_angelina_jolie.png P_M_david_cameron.png",1.39446386883513,"35","Female","right",0,0,FALSE
3281,"E_M_tom_hankes.png","P_M_bill_clinton.png","FALSE","pictures/stimuli/E","pictures/stimuli/P","M","M","1","5950fb26ad2ce90001b87bc4","05/04/2022, 10:40:21","E_M_tom_hankes.png P_M_bill_clinton.png",-1.51705409906239,"35","Female","right",1,0,FALSE
3099,"E_F_angelina_jolie.png","E_M_nicolas_cage.png","TRUE","pictures/stimuli/E","pictures/stimuli/E","F","M","2","5950fb26ad2ce90001b87bc4","05/04/2022, 10:40:21","E_F_angelina_jolie.png E_M_nicolas_cage.png",-0.934750505482889,"35","Female","right",0,1,FALSE
3336,"E_F_angelina_jolie.png","E_M_michael_caine.png","TRUE","pictures/stimuli/E","pictures/stimuli/E","F","M","2","5950fb26ad2ce90001b87bc4","05/04/2022, 10:40:21","E_F_angelina_jolie.png E_M_michael_caine.png",-0.934750505482889,"35","Female","right",0,0,FALSE
3832,"E_F_Judi_Dench.png","E_M_Hugh_Grant.png","TRUE","pictures/stimuli/E","pictures/stimuli/E","F","M","2","5950fb26ad2ce90001b87bc4","05/04/2022, 10:40:21","E_F_Judi_Dench.png E_M_Hugh_Grant.png",-0.934750505482889,"35","Female","right",1,0,FALSE
4960,"P_F_nicola_sturgeon.png","P_M_george_Wbush.png","TRUE","pictures/stimuli/P","pictures/stimuli/P","F","M","2","5950fb26ad2ce90001b87bc4","05/04/2022, 10:40:21","P_F_nicola_sturgeon.png P_M_george_Wbush.png",-0.934750505482889,"35","Female","right",0,0,FALSE
3319,"E_F_jennifer_aniston.png","P_F_hillary_clinton.png","FALSE","pictures/stimuli/E","pictures/stimuli/P","F","F","1","5950fb26ad2ce90001b87bc4","05/04/2022, 10:40:21","E_F_jennifer_aniston.png P_F_hillary_clinton.png",-1.51705409906239,"35","Female","right",0,0,FALSE
3291,"E_M_nicolas_cage.png","E_M_robert_de_niro.png","TRUE","pictures/stimuli/E","pictures/stimuli/E","M","M","2","5950fb26ad2ce90001b87bc4","05/04/2022, 10:40:21","E_M_nicolas_cage.png E_M_robert_de_niro.png",-0.934750505482889,"35","Female","right",1,0,FALSE
4370,"E_F_angelina_jolie.png","E_F_keira_knightley.png","TRUE","pictures/stimuli/E","pictures/stimuli/E","F","F","1","5950fb26ad2ce90001b87bc4","05/04/2022, 10:40:21","E_F_angelina_jolie.png E_F_keira_knightley.png",-1.51705409906239,"35","Female","right",0,0,FALSE
3023,"E_F_keira_knightley.png","P_M_bill_clinton.png","FALSE","pictures/stimuli/E","pictures/stimuli/P","F","M","2","5950fb26ad2ce90001b87bc4","05/04/2022, 10:40:21","E_F_keira_knightley.png P_M_bill_clinton.png",-0.934750505482889,"35","Female","right",0,0,FALSE
4088,"E_F_Judi_Dench.png","P_M_george_Wbush.png","FALSE","pictures/stimuli/E","pictures/stimuli/P","F","M","5","5950fb26ad2ce90001b87bc4","05/04/2022, 10:40:21","E_F_Judi_Dench.png P_M_george_Wbush.png",0.812160275255625,"35","Female","right",1,0,FALSE
3346,"E_F_Kate_Winslet.png","E_M_tom_hankes.png","TRUE","pictures/stimuli/E","pictures/stimuli/E","F","M","3","5950fb26ad2ce90001b87bc4","05/04/2022, 10:40:21","E_F_Kate_Winslet.png E_M_tom_hankes.png",-0.352446911903384,"35","Female","right",0,1,FALSE
3764,"P_M_donald_trump.png","P_M_Tony_Blair.png","TRUE","pictures/stimuli/P","pictures/stimuli/P","M","M","3","5950fb26ad2ce90001b87bc4","05/04/2022, 10:40:21","P_M_donald_trump.png P_M_Tony_Blair.png",-0.352446911903384,"35","Female","right",0,0,FALSE
4178,"E_F_sandra_bullock.png","P_M_george_Wbush.png","FALSE","pictures/stimuli/E","pictures/stimuli/P","F","M","5","5950fb26ad2ce90001b87bc4","05/04/2022, 10:40:21","E_F_sandra_bullock.png P_M_george_Wbush.png",0.812160275255625,"35","Female","right",0,0,FALSE
2728,"E_F_sandra_bullock.png","P_F_nicola_sturgeon.png","FALSE","pictures/stimuli/E","pictures/stimuli/P","F","F","6","5950fb26ad2ce90001b87bc4","05/04/2022, 10:40:21","E_F_sandra_bullock.png P_F_nicola_sturgeon.png",1.39446386883513,"35","Female","right",0,0,FALSE
3551,"P_M_donald_trump.png","P_M_george_Wbush.png","TRUE","pictures/stimuli/P","pictures/stimuli/P","M","M","1","5950fb26ad2ce90001b87bc4","05/04/2022, 10:40:21","P_M_donald_trump.png P_M_george_Wbush.png",-1.51705409906239,"35","Female","right",0,0,FALSE
4094,"P_M_david_cameron.png","P_M_donald_trump.png","TRUE","pictures/stimuli/P","pictures/stimuli/P","M","M","6","5950fb26ad2ce90001b87bc4","05/04/2022, 10:40:21","P_M_david_cameron.png P_M_donald_trump.png",1.39446386883513,"35","Female","right",0,0,FALSE
3041,"E_M_tom_hankes.png","P_F_tehresy_may.png","FALSE","pictures/stimuli/E","pictures/stimuli/P","M","F","6","5950fb26ad2ce90001b87bc4","05/04/2022, 10:40:21","E_M_tom_hankes.png P_F_tehresy_may.png",1.39446386883513,"35","Female","right",1,0,FALSE
4717,"E_F_Kate_Winslet.png","E_M_nicolas_cage.png","TRUE","pictures/stimuli/E","pictures/stimuli/E","F","M","5","5a67676a35f26b000149689d","05/04/2022, 10:44:12","E_F_Kate_Winslet.png E_M_nicolas_cage.png",0.632840286159785,"27","Female","right",0,0,FALSE
4278,"P_F_hillary_clinton.png","P_M_george_Wbush.png","TRUE","pictures/stimuli/P","pictures/stimuli/P","F","M","3","5a67676a35f26b000149689d","05/04/2022, 10:44:12","P_F_hillary_clinton.png P_M_george_Wbush.png",-0.394849067433028,"27","Female","right",0,0,FALSE
5268,"E_F_angelina_jolie.png","E_F_keira_knightley.png","TRUE","pictures/stimuli/E","pictures/stimuli/E","F","F","2","5a67676a35f26b000149689d","05/04/2022, 10:44:12","E_F_angelina_jolie.png E_F_keira_knightley.png",-0.908693744229435,"27","Female","right",0,0,FALSE
3977,"E_M_robert_de_niro.png","P_M_donald_trump.png","FALSE","pictures/stimuli/E","pictures/stimuli/P","M","M","6","5a67676a35f26b000149689d","05/04/2022, 10:44:12","E_M_robert_de_niro.png P_M_donald_trump.png",1.14668496295619,"27","Female","right",0,0,FALSE
3412,"E_F_sandra_bullock.png","P_M_george_Wbush.png","FALSE","pictures/stimuli/E","pictures/stimuli/P","F","M","6","5a67676a35f26b000149689d","05/04/2022, 10:44:12","E_F_sandra_bullock.png P_M_george_Wbush.png",1.14668496295619,"27","Female","right",0,0,FALSE
