"RT","img_1","img_2","isSameProffesion","img1proffesion","img2proffesion","img1Gender","img2Gender","keyPressed","participant","time","normlised_keyPress","age","gender","handedness","isFamiliar_img1","isFamiliar_img2","reject_trial","condition","pair"
NA,"E_F_angelina_jolie.jpg","E_F_jennifer_aniston.jpg",NA,NA,NA,NA,NA,0.23137063,NA,NA,NA,NA,NA,NA,NA,NA,FALSE,"CLIP_vit.csv","E_F_angelina_jolie.jpg E_F_jennifer_aniston.jpg"
NA,"E_F_angelina_jolie.jpg","E_F_Judi_Dench.jpg",NA,NA,NA,NA,NA,0.27585232,NA,NA,NA,NA,NA,NA,NA,NA,FALSE,"CLIP_vit.csv","E_F_angelina_jolie.jpg E_F_Judi_Dench.jpg"
NA,"E_F_angelina_jolie.jpg","E_F_Kate_Winslet.jpg",NA,NA,NA,NA,NA,0.22570527,NA,NA,NA,NA,NA,NA,NA,NA,FALSE,"CLIP_vit.csv","E_F_angelina_jolie.jpg E_F_Kate_Winslet.jpg"
NA,"E_F_angelina_jolie.jpg","E_F_keira_knightley.jpg",NA,NA,NA,NA,NA,0.18978524,NA,NA,NA,NA,NA,NA,NA,NA,FALSE,"CLIP_vit.csv","E_F_angelina_jolie.jpg E_F_keira_knightley.jpg"
NA,"E_F_angelina_jolie.jpg","E_F_sandra_bullock.jpg",NA,NA,NA,NA,NA,0.23009175,NA,NA,NA,NA,NA,NA,NA,NA,FALSE,"CLIP_vit.csv","E_F_angelina_jolie.jpg E_F_sandra_bullock.jpg"
NA,"E_F_angelina_jolie.jpg","E_M_Hugh_Grant.jpg",NA,NA,NA,NA,NA,0.28058827,NA,NA,NA,NA,NA,NA,NA,NA,FALSE,"CLIP_vit.csv","E_F_angelina_jolie.jpg E_M_Hugh_Grant.jpg"
NA,"E_F_angelina_jolie.jpg","E_M_michael_caine.jpg",NA,NA,NA,NA,NA,0.4213562,NA,NA,NA,NA,NA,NA,NA,NA,FALSE,"CLIP_vit.csv","E_F_angelina_jolie.jpg E_M_michael_caine.jpg"
NA,"E_F_angelina_jolie.jpg","E_M_nicolas_cage.jpg",NA,NA,NA,NA,NA,0.33265442,NA,NA,NA,NA,NA,NA,NA,NA,FALSE,"CLIP_vit.csv","E_F_angelina_jolie.jpg E_M_nicolas_cage.jpg"
NA,"E_F_angelina_jolie.jpg","E_M_robert_de_niro.jpg",NA,NA,NA,NA,NA,0.4695189,NA,NA,NA,NA,NA,NA,NA,NA,FALSE,"CLIP_vit.csv","E_F_angelina_jolie.jpg E_M_robert_de_niro.jpg"
NA,"E_F_angelina_jolie.jpg","E_M_tom_hankes.jpg",NA,NA,NA,NA,NA,0.33192313,NA,NA,NA,NA,NA,NA,NA,NA,FALSE,"CLIP_vit.csv","E_F_angelina_jolie.jpg E_M_tom_hankes.jpg"
NA,"E_F_angelina_jolie.jpg","P_F_hillary_clinton.jpg",NA,NA,NA,NA,NA,0.29896528,NA,NA,NA,NA,NA,NA,NA,NA,FALSE,"CLIP_vit.csv","E_F_angelina_jolie.jpg P_F_hillary_clinton.jpg"
NA,"E_F_angelina_jolie.jpg","P_F_nicola_sturgeon.jpg",NA,NA,NA,NA,NA,0.43635422,NA,NA,NA,NA,NA,NA,NA,NA,FALSE,"CLIP_vit.csv","E_F_angelina_jolie.jpg P_F_nicola_sturgeon.jpg"
NA,"E_F_angelina_jolie.jpg","P_F_tehresy_may.jpg",NA,NA,NA,NA,NA,0.47689694,NA,NA,NA,NA,NA,NA,NA,NA,FALSE,"CLIP_vit.csv","E_F_angelina_jolie.jpg P_F_tehresy_may.jpg"
NA,"E_F_angelina_jolie.jpg","P_M_bill_clinton.jpg",NA,NA,NA,NA,NA,0.4090709,NA,NA,NA,NA,NA,NA,NA,NA,FALSE,"CLIP_vit.csv","E_F_angelina_jolie.jpg P_M_bill_clinton.jpg"
NA,"E_F_angelina_jolie.jpg","P_M_boris_johnson.jpg",NA,NA,NA,NA,NA,0.47148508,NA,NA,NA,NA,NA,NA,NA,NA,FALSE,"CLIP_vit.csv","E_F_angelina_jolie.jpg P_M_boris_johnson.jpg"
NA,"E_F_angelina_jolie.jpg","P_M_david_cameron.jpg",NA,NA,NA,NA,NA,0.4256354,NA,NA,NA,NA,NA,NA,NA,NA,FALSE,"CLIP_vit.csv","E_F_angelina_jolie.jpg P_M_david_cameron.jpg"
NA,"E_F_angelina_jolie.jpg","P_M_donald_trump.jpg",NA,NA,NA,NA,NA,0.41906524,NA,NA,NA,NA,NA,NA,NA,NA,FALSE,"CLIP_vit.csv","E_F_angelina_jolie.jpg P_M_donald_trump.jpg"
NA,"E_F_angelina_jolie.jpg","P_M_george_Wbush.jpg",NA,NA,NA,NA,NA,0.43699127,NA,NA,NA,NA,NA,NA,NA,NA,FALSE,"CLIP_vit.csv","E_F_angelina_jolie.jpg P_M_george_Wbush.jpg"
NA,"E_F_angelina_jolie.jpg","P_M_Tony_Blair.jpg",NA,NA,NA,NA,NA,0.40288764,NA,NA,NA,NA,NA,NA,NA,NA,FALSE,"CLIP_vit.csv","E_F_angelina_jolie.jpg P_M_Tony_Blair.jpg"
NA,"E_F_jennifer_aniston.jpg","E_F_Judi_Dench.jpg",NA,NA,NA,NA,NA,0.3295486,NA,NA,NA,NA,NA,NA,NA,NA,FALSE,"CLIP_vit.csv","E_F_jennifer_aniston.jpg E_F_Judi_Dench.jpg"
NA,"E_F_jennifer_aniston.jpg","E_F_Kate_Winslet.jpg",NA,NA,NA,NA,NA,0.20973092,NA,NA,NA,NA,NA,NA,NA,NA,FALSE,"CLIP_vit.csv","E_F_jennifer_aniston.jpg E_F_Kate_Winslet.jpg"
NA,"E_F_jennifer_aniston.jpg","E_F_keira_knightley.jpg",NA,NA,NA,NA,NA,0.22060925,NA,NA,NA,NA,NA,NA,NA,NA,FALSE,"CLIP_vit.csv","E_F_jennifer_aniston.jpg E_F_keira_knightley.jpg"
NA,"E_F_jennifer_aniston.jpg","E_F_sandra_bullock.jpg",NA,NA,NA,NA,NA,0.22589666,NA,NA,NA,NA,NA,NA,NA,NA,FALSE,"CLIP_vit.csv","E_F_jennifer_aniston.jpg E_F_sandra_bullock.jpg"
NA,"E_F_jennifer_aniston.jpg","E_M_Hugh_Grant.jpg",NA,NA,NA,NA,NA,0.28001237,NA,NA,NA,NA,NA,NA,NA,NA,FALSE,"CLIP_vit.csv","E_F_jennifer_aniston.jpg E_M_Hugh_Grant.jpg"
NA,"E_F_jennifer_aniston.jpg","E_M_michael_caine.jpg",NA,NA,NA,NA,NA,0.446913,NA,NA,NA,NA,NA,NA,NA,NA,FALSE,"CLIP_vit.csv","E_F_jennifer_aniston.jpg E_M_michael_caine.jpg"
NA,"E_F_jennifer_aniston.jpg","E_M_nicolas_cage.jpg",NA,NA,NA,NA,NA,0.30888838,NA,NA,NA,NA,NA,NA,NA,NA,FALSE,"CLIP_vit.csv","E_F_jennifer_aniston.jpg E_M_nicolas_cage.jpg"
NA,"E_F_jennifer_aniston.jpg","E_M_robert_de_niro.jpg",NA,NA,NA,NA,NA,0.36627716,NA,NA,NA,NA,NA,NA,NA,NA,FALSE,"CLIP_vit.csv","E_F_jennifer_aniston.jpg E_M_robert_de_niro.jpg"
NA,"E_F_jennifer_aniston.jpg","E_M_tom_hankes.jpg",NA,NA,NA,NA,NA,0.2625878,NA,NA,NA,NA,NA,NA,NA,NA,FALSE,"CLIP_vit.csv","E_F_jennifer_aniston.jpg E_M_tom_hankes.jpg"
NA,"E_F_jennifer_aniston.jpg","P_F_hillary_clinton.jpg",NA,NA,NA,NA,NA,0.29513943,NA,NA,NA,NA,NA,NA,NA,NA,FALSE,"CLIP_vit.csv","E_F_jennifer_aniston.jpg P_F_hillary_clinton.jpg"
NA,"E_F_jennifer_aniston.jpg","P_F_nicola_sturgeon.jpg",NA,NA,NA,NA,NA,0.43909281,NA,NA,NA,NA,NA,NA,NA,NA,FALSE,"CLIP_vit.csv","E_F_jennifer_aniston.jpg P_F_nicola_sturgeon.jpg"
NA,"E_F_jennifer_aniston.jpg","P_F_tehresy_may.jpg",NA,NA,NA,NA,NA,0.4945783,NA,NA,NA,NA,NA,NA,NA,NA,FALSE,"CLIP_vit.csv","E_F_jennifer_aniston.jpg P_F_tehresy_may.jpg"
NA,"E_F_jennifer_aniston.jpg","P_M_bill_clinton.jpg",NA,NA,NA,NA,NA,0.36749184,NA,NA,NA,NA,NA,NA,NA,NA,FALSE,"CLIP_vit.csv","E_F_jennifer_aniston.jpg P_M_bill_clinton.jpg"
NA,"E_F_jennifer_aniston.jpg","P_M_boris_johnson.jpg",NA,NA,NA,NA,NA,0.47483534,NA,NA,NA,NA,NA,NA,NA,NA,FALSE,"CLIP_vit.csv","E_F_jennifer_aniston.jpg P_M_boris_johnson.jpg"
NA,"E_F_jennifer_aniston.jpg","P_M_david_cameron.jpg",NA,NA,NA,NA,NA,0.44607484,NA,NA,NA,NA,NA,NA,NA,NA,FALSE,"CLIP_vit.csv","E_F_jennifer_aniston.jpg P_M_david_cameron.jpg"
NA,"E_F_jennifer_aniston.jpg","P_M_donald_trump.jpg",NA,NA,NA,NA,NA,0.43357468,NA,NA,NA,NA,NA,NA,NA,NA,FALSE,"CLIP_vit.csv","E_F_jennifer_aniston.jpg P_M_donald_trump.jpg"
NA,"E_F_jennifer_aniston.jpg","P_M_george_Wbush.jpg",NA,NA,NA,NA,NA,0.40845197,NA,NA,NA,NA,NA,NA,NA,NA,FALSE,"CLIP_vit.csv","E_F_jennifer_aniston.jpg P_M_george_Wbush.jpg"
NA,"E_F_jennifer_aniston.jpg","P_M_Tony_Blair.jpg",NA,NA,NA,NA,NA,0.491903,NA,NA,NA,NA,NA,NA,NA,NA,FALSE,"CLIP_vit.csv","E_F_jennifer_aniston.jpg P_M_Tony_Blair.jpg"
NA,"E_F_Judi_Dench.jpg","E_F_Kate_Winslet.jpg",NA,NA,NA,NA,NA,0.34824938,NA,NA,NA,NA,NA,NA,NA,NA,FALSE,"CLIP_vit.csv","E_F_Judi_Dench.jpg E_F_Kate_Winslet.jpg"
NA,"E_F_Judi_Dench.jpg","E_F_keira_knightley.jpg",NA,NA,NA,NA,NA,0.39532268,NA,NA,NA,NA,NA,NA,NA,NA,FALSE,"CLIP_vit.csv","E_F_Judi_Dench.jpg E_F_keira_knightley.jpg"
NA,"E_F_Judi_Dench.jpg","E_F_sandra_bullock.jpg",NA,NA,NA,NA,NA,0.38281673,NA,NA,NA,NA,NA,NA,NA,NA,FALSE,"CLIP_vit.csv","E_F_Judi_Dench.jpg E_F_sandra_bullock.jpg"
NA,"E_F_Judi_Dench.jpg","E_M_Hugh_Grant.jpg",NA,NA,NA,NA,NA,0.33732176,NA,NA,NA,NA,NA,NA,NA,NA,FALSE,"CLIP_vit.csv","E_F_Judi_Dench.jpg E_M_Hugh_Grant.jpg"
NA,"E_F_Judi_Dench.jpg","E_M_michael_caine.jpg",NA,NA,NA,NA,NA,0.33720982,NA,NA,NA,NA,NA,NA,NA,NA,FALSE,"CLIP_vit.csv","E_F_Judi_Dench.jpg E_M_michael_caine.jpg"
NA,"E_F_Judi_Dench.jpg","E_M_nicolas_cage.jpg",NA,NA,NA,NA,NA,0.34327924,NA,NA,NA,NA,NA,NA,NA,NA,FALSE,"CLIP_vit.csv","E_F_Judi_Dench.jpg E_M_nicolas_cage.jpg"
NA,"E_F_Judi_Dench.jpg","E_M_robert_de_niro.jpg",NA,NA,NA,NA,NA,0.45322043,NA,NA,NA,NA,NA,NA,NA,NA,FALSE,"CLIP_vit.csv","E_F_Judi_Dench.jpg E_M_robert_de_niro.jpg"
NA,"E_F_Judi_Dench.jpg","E_M_tom_hankes.jpg",NA,NA,NA,NA,NA,0.3363076,NA,NA,NA,NA,NA,NA,NA,NA,FALSE,"CLIP_vit.csv","E_F_Judi_Dench.jpg E_M_tom_hankes.jpg"
NA,"E_F_Judi_Dench.jpg","P_F_hillary_clinton.jpg",NA,NA,NA,NA,NA,0.28403217,NA,NA,NA,NA,NA,NA,NA,NA,FALSE,"CLIP_vit.csv","E_F_Judi_Dench.jpg P_F_hillary_clinton.jpg"
NA,"E_F_Judi_Dench.jpg","P_F_nicola_sturgeon.jpg",NA,NA,NA,NA,NA,0.23678839,NA,NA,NA,NA,NA,NA,NA,NA,FALSE,"CLIP_vit.csv","E_F_Judi_Dench.jpg P_F_nicola_sturgeon.jpg"
NA,"E_F_Judi_Dench.jpg","P_F_tehresy_may.jpg",NA,NA,NA,NA,NA,0.29256153,NA,NA,NA,NA,NA,NA,NA,NA,FALSE,"CLIP_vit.csv","E_F_Judi_Dench.jpg P_F_tehresy_may.jpg"
NA,"E_F_Judi_Dench.jpg","P_M_bill_clinton.jpg",NA,NA,NA,NA,NA,0.34796906,NA,NA,NA,NA,NA,NA,NA,NA,FALSE,"CLIP_vit.csv","E_F_Judi_Dench.jpg P_M_bill_clinton.jpg"
NA,"E_F_Judi_Dench.jpg","P_M_boris_johnson.jpg",NA,NA,NA,NA,NA,0.29697126,NA,NA,NA,NA,NA,NA,NA,NA,FALSE,"CLIP_vit.csv","E_F_Judi_Dench.jpg P_M_boris_johnson.jpg"
NA,"E_F_Judi_Dench.jpg","P_M_david_cameron.jpg",NA,NA,NA,NA,NA,0.28299695,NA,NA,NA,NA,NA,NA,NA,NA,FALSE,"CLIP_vit.csv","E_F_Judi_Dench.jpg P_M_david_cameron.jpg"
NA,"E_F_Judi_Dench.jpg","P_M_donald_trump.jpg",NA,NA,NA,NA,NA,0.39944267,NA,NA,NA,NA,NA,NA,NA,NA,FALSE,"CLIP_vit.csv","E_F_Judi_Dench.jpg P_M_donald_trump.jpg"
NA,"E_F_Judi_Dench.jpg","P_M_george_Wbush.jpg",NA,NA,NA,NA,NA,0.3972497,NA,NA,NA,NA,NA,NA,NA,NA,FALSE,"CLIP_vit.csv","E_F_Judi_Dench.jpg P_M_george_Wbush.jpg"
NA,"E_F_Judi_Dench.jpg","P_M_Tony_Blair.jpg",NA,NA,NA,NA,NA,0.3131985,NA,NA,NA,NA,NA,NA,NA,NA,FALSE,"CLIP_vit.csv","E_F_Judi_Dench.jpg P_M_Tony_Blair.jpg"
NA,"E_F_Kate_Winslet.jpg","E_F_keira_knightley.jpg",NA,NA,NA,NA,NA,0.18630296,NA,NA,NA,NA,NA,NA,NA,NA,FALSE,"CLIP_vit.csv","E_F_Kate_Winslet.jpg E_F_keira_knightley.jpg"
NA,"E_F_Kate_Winslet.jpg","E_F_sandra_bullock.jpg",NA,NA,NA,NA,NA,0.22886968,NA,NA,NA,NA,NA,NA,NA,NA,FALSE,"CLIP_vit.csv","E_F_Kate_Winslet.jpg E_F_sandra_bullock.jpg"
NA,"E_F_Kate_Winslet.jpg","E_M_Hugh_Grant.jpg",NA,NA,NA,NA,NA,0.36373717,NA,NA,NA,NA,NA,NA,NA,NA,FALSE,"CLIP_vit.csv","E_F_Kate_Winslet.jpg E_M_Hugh_Grant.jpg"
NA,"E_F_Kate_Winslet.jpg","E_M_michael_caine.jpg",NA,NA,NA,NA,NA,0.43793958,NA,NA,NA,NA,NA,NA,NA,NA,FALSE,"CLIP_vit.csv","E_F_Kate_Winslet.jpg E_M_michael_caine.jpg"
NA,"E_F_Kate_Winslet.jpg","E_M_nicolas_cage.jpg",NA,NA,NA,NA,NA,0.36634588,NA,NA,NA,NA,NA,NA,NA,NA,FALSE,"CLIP_vit.csv","E_F_Kate_Winslet.jpg E_M_nicolas_cage.jpg"
NA,"E_F_Kate_Winslet.jpg","E_M_robert_de_niro.jpg",NA,NA,NA,NA,NA,0.41728908,NA,NA,NA,NA,NA,NA,NA,NA,FALSE,"CLIP_vit.csv","E_F_Kate_Winslet.jpg E_M_robert_de_niro.jpg"
NA,"E_F_Kate_Winslet.jpg","E_M_tom_hankes.jpg",NA,NA,NA,NA,NA,0.3930496,NA,NA,NA,NA,NA,NA,NA,NA,FALSE,"CLIP_vit.csv","E_F_Kate_Winslet.jpg E_M_tom_hankes.jpg"
NA,"E_F_Kate_Winslet.jpg","P_F_hillary_clinton.jpg",NA,NA,NA,NA,NA,0.38408,NA,NA,NA,NA,NA,NA,NA,NA,FALSE,"CLIP_vit.csv","E_F_Kate_Winslet.jpg P_F_hillary_clinton.jpg"
NA,"E_F_Kate_Winslet.jpg","P_F_nicola_sturgeon.jpg",NA,NA,NA,NA,NA,0.47134608,NA,NA,NA,NA,NA,NA,NA,NA,FALSE,"CLIP_vit.csv","E_F_Kate_Winslet.jpg P_F_nicola_sturgeon.jpg"
NA,"E_F_Kate_Winslet.jpg","P_F_tehresy_may.jpg",NA,NA,NA,NA,NA,0.54614186,NA,NA,NA,NA,NA,NA,NA,NA,FALSE,"CLIP_vit.csv","E_F_Kate_Winslet.jpg P_F_tehresy_may.jpg"
NA,"E_F_Kate_Winslet.jpg","P_M_bill_clinton.jpg",NA,NA,NA,NA,NA,0.4816336,NA,NA,NA,NA,NA,NA,NA,NA,FALSE,"CLIP_vit.csv","E_F_Kate_Winslet.jpg P_M_bill_clinton.jpg"
NA,"E_F_Kate_Winslet.jpg","P_M_boris_johnson.jpg",NA,NA,NA,NA,NA,0.51974034,NA,NA,NA,NA,NA,NA,NA,NA,FALSE,"CLIP_vit.csv","E_F_Kate_Winslet.jpg P_M_boris_johnson.jpg"
NA,"E_F_Kate_Winslet.jpg","P_M_david_cameron.jpg",NA,NA,NA,NA,NA,0.49641442,NA,NA,NA,NA,NA,NA,NA,NA,FALSE,"CLIP_vit.csv","E_F_Kate_Winslet.jpg P_M_david_cameron.jpg"
NA,"E_F_Kate_Winslet.jpg","P_M_donald_trump.jpg",NA,NA,NA,NA,NA,0.49235803,NA,NA,NA,NA,NA,NA,NA,NA,FALSE,"CLIP_vit.csv","E_F_Kate_Winslet.jpg P_M_donald_trump.jpg"
NA,"E_F_Kate_Winslet.jpg","P_M_george_Wbush.jpg",NA,NA,NA,NA,NA,0.47135425,NA,NA,NA,NA,NA,NA,NA,NA,FALSE,"CLIP_vit.csv","E_F_Kate_Winslet.jpg P_M_george_Wbush.jpg"
NA,"E_F_Kate_Winslet.jpg","P_M_Tony_Blair.jpg",NA,NA,NA,NA,NA,0.46213406,NA,NA,NA,NA,NA,NA,NA,NA,FALSE,"CLIP_vit.csv","E_F_Kate_Winslet.jpg P_M_Tony_Blair.jpg"
NA,"E_F_keira_knightley.jpg","E_F_sandra_bullock.jpg",NA,NA,NA,NA,NA,0.18874073,NA,NA,NA,NA,NA,NA,NA,NA,FALSE,"CLIP_vit.csv","E_F_keira_knightley.jpg E_F_sandra_bullock.jpg"
NA,"E_F_keira_knightley.jpg","E_M_Hugh_Grant.jpg",NA,NA,NA,NA,NA,0.42280507,NA,NA,NA,NA,NA,NA,NA,NA,FALSE,"CLIP_vit.csv","E_F_keira_knightley.jpg E_M_Hugh_Grant.jpg"
NA,"E_F_keira_knightley.jpg","E_M_michael_caine.jpg",NA,NA,NA,NA,NA,0.50037533,NA,NA,NA,NA,NA,NA,NA,NA,FALSE,"CLIP_vit.csv","E_F_keira_knightley.jpg E_M_michael_caine.jpg"
NA,"E_F_keira_knightley.jpg","E_M_nicolas_cage.jpg",NA,NA,NA,NA,NA,0.4499684,NA,NA,NA,NA,NA,NA,NA,NA,FALSE,"CLIP_vit.csv","E_F_keira_knightley.jpg E_M_nicolas_cage.jpg"
NA,"E_F_keira_knightley.jpg","E_M_robert_de_niro.jpg",NA,NA,NA,NA,NA,0.44897604,NA,NA,NA,NA,NA,NA,NA,NA,FALSE,"CLIP_vit.csv","E_F_keira_knightley.jpg E_M_robert_de_niro.jpg"
NA,"E_F_keira_knightley.jpg","E_M_tom_hankes.jpg",NA,NA,NA,NA,NA,0.41444308,NA,NA,NA,NA,NA,NA,NA,NA,FALSE,"CLIP_vit.csv","E_F_keira_knightley.jpg E_M_tom_hankes.jpg"
NA,"E_F_keira_knightley.jpg","P_F_hillary_clinton.jpg",NA,NA,NA,NA,NA,0.42789662,NA,NA,NA,NA,NA,NA,NA,NA,FALSE,"CLIP_vit.csv","E_F_keira_knightley.jpg P_F_hillary_clinton.jpg"
NA,"E_F_keira_knightley.jpg","P_F_nicola_sturgeon.jpg",NA,NA,NA,NA,NA,0.47736675,NA,NA,NA,NA,NA,NA,NA,NA,FALSE,"CLIP_vit.csv","E_F_keira_knightley.jpg P_F_nicola_sturgeon.jpg"
NA,"E_F_keira_knightley.jpg","P_F_tehresy_may.jpg",NA,NA,NA,NA,NA,0.53979933,NA,NA,NA,NA,NA,NA,NA,NA,FALSE,"CLIP_vit.csv","E_F_keira_knightley.jpg P_F_tehresy_may.jpg"
NA,"E_F_keira_knightley.jpg","P_M_bill_clinton.jpg",NA,NA,NA,NA,NA,0.52257055,NA,NA,NA,NA,NA,NA,NA,NA,FALSE,"CLIP_vit.csv","E_F_keira_knightley.jpg P_M_bill_clinton.jpg"
NA,"E_F_keira_knightley.jpg","P_M_boris_johnson.jpg",NA,NA,NA,NA,NA,0.5845357,NA,NA,NA,NA,NA,NA,NA,NA,FALSE,"CLIP_vit.csv","E_F_keira_knightley.jpg P_M_boris_johnson.jpg"
NA,"E_F_keira_knightley.jpg","P_M_david_cameron.jpg",NA,NA,NA,NA,NA,0.5323576,NA,NA,NA,NA,NA,NA,NA,NA,FALSE,"CLIP_vit.csv","E_F_keira_knightley.jpg P_M_david_cameron.jpg"
NA,"E_F_keira_knightley.jpg","P_M_donald_trump.jpg",NA,NA,NA,NA,NA,0.5164683,NA,NA,NA,NA,NA,NA,NA,NA,FALSE,"CLIP_vit.csv","E_F_keira_knightley.jpg P_M_donald_trump.jpg"
NA,"E_F_keira_knightley.jpg","P_M_george_Wbush.jpg",NA,NA,NA,NA,NA,0.49645257,NA,NA,NA,NA,NA,NA,NA,NA,FALSE,"CLIP_vit.csv","E_F_keira_knightley.jpg P_M_george_Wbush.jpg"
NA,"E_F_keira_knightley.jpg","P_M_Tony_Blair.jpg",NA,NA,NA,NA,NA,0.48347843,NA,NA,NA,NA,NA,NA,NA,NA,FALSE,"CLIP_vit.csv","E_F_keira_knightley.jpg P_M_Tony_Blair.jpg"
NA,"E_F_sandra_bullock.jpg","E_M_Hugh_Grant.jpg",NA,NA,NA,NA,NA,0.37183923,NA,NA,NA,NA,NA,NA,NA,NA,FALSE,"CLIP_vit.csv","E_F_sandra_bullock.jpg E_M_Hugh_Grant.jpg"
NA,"E_F_sandra_bullock.jpg","E_M_michael_caine.jpg",NA,NA,NA,NA,NA,0.51940656,NA,NA,NA,NA,NA,NA,NA,NA,FALSE,"CLIP_vit.csv","E_F_sandra_bullock.jpg E_M_michael_caine.jpg"
NA,"E_F_sandra_bullock.jpg","E_M_nicolas_cage.jpg",NA,NA,NA,NA,NA,0.37217593,NA,NA,NA,NA,NA,NA,NA,NA,FALSE,"CLIP_vit.csv","E_F_sandra_bullock.jpg E_M_nicolas_cage.jpg"
NA,"E_F_sandra_bullock.jpg","E_M_robert_de_niro.jpg",NA,NA,NA,NA,NA,0.4729603,NA,NA,NA,NA,NA,NA,NA,NA,FALSE,"CLIP_vit.csv","E_F_sandra_bullock.jpg E_M_robert_de_niro.jpg"
NA,"E_F_sandra_bullock.jpg","E_M_tom_hankes.jpg",NA,NA,NA,NA,NA,0.40988892,NA,NA,NA,NA,NA,NA,NA,NA,FALSE,"CLIP_vit.csv","E_F_sandra_bullock.jpg E_M_tom_hankes.jpg"
NA,"E_F_sandra_bullock.jpg","P_F_hillary_clinton.jpg",NA,NA,NA,NA,NA,0.38372886,NA,NA,NA,NA,NA,NA,NA,NA,FALSE,"CLIP_vit.csv","E_F_sandra_bullock.jpg P_F_hillary_clinton.jpg"
NA,"E_F_sandra_bullock.jpg","P_F_nicola_sturgeon.jpg",NA,NA,NA,NA,NA,0.47826886,NA,NA,NA,NA,NA,NA,NA,NA,FALSE,"CLIP_vit.csv","E_F_sandra_bullock.jpg P_F_nicola_sturgeon.jpg"
NA,"E_F_sandra_bullock.jpg","P_F_tehresy_may.jpg",NA,NA,NA,NA,NA,0.5469713,NA,NA,NA,NA,NA,NA,NA,NA,FALSE,"CLIP_vit.csv","E_F_sandra_bullock.jpg P_F_tehresy_may.jpg"
NA,"E_F_sandra_bullock.jpg","P_M_bill_clinton.jpg",NA,NA,NA,NA,NA,0.44932532,NA,NA,NA,NA,NA,NA,NA,NA,FALSE,"CLIP_vit.csv","E_F_sandra_bullock.jpg P_M_bill_clinton.jpg"
NA,"E_F_sandra_bullock.jpg","P_M_boris_johnson.jpg",NA,NA,NA,NA,NA,0.5481566,NA,NA,NA,NA,NA,NA,NA,NA,FALSE,"CLIP_vit.csv","E_F_sandra_bullock.jpg P_M_boris_johnson.jpg"
NA,"E_F_sandra_bullock.jpg","P_M_david_cameron.jpg",NA,NA,NA,NA,NA,0.516166,NA,NA,NA,NA,NA,NA,NA,NA,FALSE,"CLIP_vit.csv","E_F_sandra_bullock.jpg P_M_david_cameron.jpg"
NA,"E_F_sandra_bullock.jpg","P_M_donald_trump.jpg",NA,NA,NA,NA,NA,0.4644686,NA,NA,NA,NA,NA,NA,NA,NA,FALSE,"CLIP_vit.csv","E_F_sandra_bullock.jpg P_M_donald_trump.jpg"
NA,"E_F_sandra_bullock.jpg","P_M_george_Wbush.jpg",NA,NA,NA,NA,NA,0.4187079,NA,NA,NA,NA,NA,NA,NA,NA,FALSE,"CLIP_vit.csv","E_F_sandra_bullock.jpg P_M_george_Wbush.jpg"
NA,"E_F_sandra_bullock.jpg","P_M_Tony_Blair.jpg",NA,NA,NA,NA,NA,0.46125454,NA,NA,NA,NA,NA,NA,NA,NA,FALSE,"CLIP_vit.csv","E_F_sandra_bullock.jpg P_M_Tony_Blair.jpg"
NA,"E_M_Hugh_Grant.jpg","E_M_michael_caine.jpg",NA,NA,NA,NA,NA,0.3155319,NA,NA,NA,NA,NA,NA,NA,NA,FALSE,"CLIP_vit.csv","E_M_Hugh_Grant.jpg E_M_michael_caine.jpg"
NA,"E_M_Hugh_Grant.jpg","E_M_nicolas_cage.jpg",NA,NA,NA,NA,NA,0.21333921,NA,NA,NA,NA,NA,NA,NA,NA,FALSE,"CLIP_vit.csv","E_M_Hugh_Grant.jpg E_M_nicolas_cage.jpg"
NA,"E_M_Hugh_Grant.jpg","E_M_robert_de_niro.jpg",NA,NA,NA,NA,NA,0.3799525,NA,NA,NA,NA,NA,NA,NA,NA,FALSE,"CLIP_vit.csv","E_M_Hugh_Grant.jpg E_M_robert_de_niro.jpg"
NA,"E_M_Hugh_Grant.jpg","E_M_tom_hankes.jpg",NA,NA,NA,NA,NA,0.3085953,NA,NA,NA,NA,NA,NA,NA,NA,FALSE,"CLIP_vit.csv","E_M_Hugh_Grant.jpg E_M_tom_hankes.jpg"
NA,"E_M_Hugh_Grant.jpg","P_F_hillary_clinton.jpg",NA,NA,NA,NA,NA,0.38915992,NA,NA,NA,NA,NA,NA,NA,NA,FALSE,"CLIP_vit.csv","E_M_Hugh_Grant.jpg P_F_hillary_clinton.jpg"
NA,"E_M_Hugh_Grant.jpg","P_F_nicola_sturgeon.jpg",NA,NA,NA,NA,NA,0.4812786,NA,NA,NA,NA,NA,NA,NA,NA,FALSE,"CLIP_vit.csv","E_M_Hugh_Grant.jpg P_F_nicola_sturgeon.jpg"
NA,"E_M_Hugh_Grant.jpg","P_F_tehresy_may.jpg",NA,NA,NA,NA,NA,0.5449108,NA,NA,NA,NA,NA,NA,NA,NA,FALSE,"CLIP_vit.csv","E_M_Hugh_Grant.jpg P_F_tehresy_may.jpg"
NA,"E_M_Hugh_Grant.jpg","P_M_bill_clinton.jpg",NA,NA,NA,NA,NA,0.34580642,NA,NA,NA,NA,NA,NA,NA,NA,FALSE,"CLIP_vit.csv","E_M_Hugh_Grant.jpg P_M_bill_clinton.jpg"
NA,"E_M_Hugh_Grant.jpg","P_M_boris_johnson.jpg",NA,NA,NA,NA,NA,0.3997733,NA,NA,NA,NA,NA,NA,NA,NA,FALSE,"CLIP_vit.csv","E_M_Hugh_Grant.jpg P_M_boris_johnson.jpg"
NA,"E_M_Hugh_Grant.jpg","P_M_david_cameron.jpg",NA,NA,NA,NA,NA,0.36130518,NA,NA,NA,NA,NA,NA,NA,NA,FALSE,"CLIP_vit.csv","E_M_Hugh_Grant.jpg P_M_david_cameron.jpg"
NA,"E_M_Hugh_Grant.jpg","P_M_donald_trump.jpg",NA,NA,NA,NA,NA,0.43515503,NA,NA,NA,NA,NA,NA,NA,NA,FALSE,"CLIP_vit.csv","E_M_Hugh_Grant.jpg P_M_donald_trump.jpg"
NA,"E_M_Hugh_Grant.jpg","P_M_george_Wbush.jpg",NA,NA,NA,NA,NA,0.43847716,NA,NA,NA,NA,NA,NA,NA,NA,FALSE,"CLIP_vit.csv","E_M_Hugh_Grant.jpg P_M_george_Wbush.jpg"
NA,"E_M_Hugh_Grant.jpg","P_M_Tony_Blair.jpg",NA,NA,NA,NA,NA,0.40045398,NA,NA,NA,NA,NA,NA,NA,NA,FALSE,"CLIP_vit.csv","E_M_Hugh_Grant.jpg P_M_Tony_Blair.jpg"
NA,"E_M_michael_caine.jpg","E_M_nicolas_cage.jpg",NA,NA,NA,NA,NA,0.34511,NA,NA,NA,NA,NA,NA,NA,NA,FALSE,"CLIP_vit.csv","E_M_michael_caine.jpg E_M_nicolas_cage.jpg"
NA,"E_M_michael_caine.jpg","E_M_robert_de_niro.jpg",NA,NA,NA,NA,NA,0.34916908,NA,NA,NA,NA,NA,NA,NA,NA,FALSE,"CLIP_vit.csv","E_M_michael_caine.jpg E_M_robert_de_niro.jpg"
NA,"E_M_michael_caine.jpg","E_M_tom_hankes.jpg",NA,NA,NA,NA,NA,0.3118655,NA,NA,NA,NA,NA,NA,NA,NA,FALSE,"CLIP_vit.csv","E_M_michael_caine.jpg E_M_tom_hankes.jpg"
NA,"E_M_michael_caine.jpg","P_F_hillary_clinton.jpg",NA,NA,NA,NA,NA,0.40439373,NA,NA,NA,NA,NA,NA,NA,NA,FALSE,"CLIP_vit.csv","E_M_michael_caine.jpg P_F_hillary_clinton.jpg"
NA,"E_M_michael_caine.jpg","P_F_nicola_sturgeon.jpg",NA,NA,NA,NA,NA,0.46449357,NA,NA,NA,NA,NA,NA,NA,NA,FALSE,"CLIP_vit.csv","E_M_michael_caine.jpg P_F_nicola_sturgeon.jpg"
NA,"E_M_michael_caine.jpg","P_F_tehresy_may.jpg",NA,NA,NA,NA,NA,0.4700665,NA,NA,NA,NA,NA,NA,NA,NA,FALSE,"CLIP_vit.csv","E_M_michael_caine.jpg P_F_tehresy_may.jpg"
NA,"E_M_michael_caine.jpg","P_M_bill_clinton.jpg",NA,NA,NA,NA,NA,0.35012132,NA,NA,NA,NA,NA,NA,NA,NA,FALSE,"CLIP_vit.csv","E_M_michael_caine.jpg P_M_bill_clinton.jpg"
NA,"E_M_michael_caine.jpg","P_M_boris_johnson.jpg",NA,NA,NA,NA,NA,0.3697186,NA,NA,NA,NA,NA,NA,NA,NA,FALSE,"CLIP_vit.csv","E_M_michael_caine.jpg P_M_boris_johnson.jpg"
NA,"E_M_michael_caine.jpg","P_M_david_cameron.jpg",NA,NA,NA,NA,NA,0.33850485,NA,NA,NA,NA,NA,NA,NA,NA,FALSE,"CLIP_vit.csv","E_M_michael_caine.jpg P_M_david_cameron.jpg"
NA,"E_M_michael_caine.jpg","P_M_donald_trump.jpg",NA,NA,NA,NA,NA,0.4258113,NA,NA,NA,NA,NA,NA,NA,NA,FALSE,"CLIP_vit.csv","E_M_michael_caine.jpg P_M_donald_trump.jpg"
NA,"E_M_michael_caine.jpg","P_M_george_Wbush.jpg",NA,NA,NA,NA,NA,0.39536524,NA,NA,NA,NA,NA,NA,NA,NA,FALSE,"CLIP_vit.csv","E_M_michael_caine.jpg P_M_george_Wbush.jpg"
NA,"E_M_michael_caine.jpg","P_M_Tony_Blair.jpg",NA,NA,NA,NA,NA,0.23013389,NA,NA,NA,NA,NA,NA,NA,NA,FALSE,"CLIP_vit.csv","E_M_michael_caine.jpg P_M_Tony_Blair.jpg"
NA,"E_M_nicolas_cage.jpg","E_M_robert_de_niro.jpg",NA,NA,NA,NA,NA,0.3553657,NA,NA,NA,NA,NA,NA,NA,NA,FALSE,"CLIP_vit.csv","E_M_nicolas_cage.jpg E_M_robert_de_niro.jpg"
NA,"E_M_nicolas_cage.jpg","E_M_tom_hankes.jpg",NA,NA,NA,NA,NA,0.2670992,NA,NA,NA,NA,NA,NA,NA,NA,FALSE,"CLIP_vit.csv","E_M_nicolas_cage.jpg E_M_tom_hankes.jpg"
NA,"E_M_nicolas_cage.jpg","P_F_hillary_clinton.jpg",NA,NA,NA,NA,NA,0.30984765,NA,NA,NA,NA,NA,NA,NA,NA,FALSE,"CLIP_vit.csv","E_M_nicolas_cage.jpg P_F_hillary_clinton.jpg"
NA,"E_M_nicolas_cage.jpg","P_F_nicola_sturgeon.jpg",NA,NA,NA,NA,NA,0.3937332,NA,NA,NA,NA,NA,NA,NA,NA,FALSE,"CLIP_vit.csv","E_M_nicolas_cage.jpg P_F_nicola_sturgeon.jpg"
NA,"E_M_nicolas_cage.jpg","P_F_tehresy_may.jpg",NA,NA,NA,NA,NA,0.45465535,NA,NA,NA,NA,NA,NA,NA,NA,FALSE,"CLIP_vit.csv","E_M_nicolas_cage.jpg P_F_tehresy_may.jpg"
NA,"E_M_nicolas_cage.jpg","P_M_bill_clinton.jpg",NA,NA,NA,NA,NA,0.27077472,NA,NA,NA,NA,NA,NA,NA,NA,FALSE,"CLIP_vit.csv","E_M_nicolas_cage.jpg P_M_bill_clinton.jpg"
NA,"E_M_nicolas_cage.jpg","P_M_boris_johnson.jpg",NA,NA,NA,NA,NA,0.37031615,NA,NA,NA,NA,NA,NA,NA,NA,FALSE,"CLIP_vit.csv","E_M_nicolas_cage.jpg P_M_boris_johnson.jpg"
NA,"E_M_nicolas_cage.jpg","P_M_david_cameron.jpg",NA,NA,NA,NA,NA,0.28754622,NA,NA,NA,NA,NA,NA,NA,NA,FALSE,"CLIP_vit.csv","E_M_nicolas_cage.jpg P_M_david_cameron.jpg"
NA,"E_M_nicolas_cage.jpg","P_M_donald_trump.jpg",NA,NA,NA,NA,NA,0.33818775,NA,NA,NA,NA,NA,NA,NA,NA,FALSE,"CLIP_vit.csv","E_M_nicolas_cage.jpg P_M_donald_trump.jpg"
NA,"E_M_nicolas_cage.jpg","P_M_george_Wbush.jpg",NA,NA,NA,NA,NA,0.29580444,NA,NA,NA,NA,NA,NA,NA,NA,FALSE,"CLIP_vit.csv","E_M_nicolas_cage.jpg P_M_george_Wbush.jpg"
NA,"E_M_nicolas_cage.jpg","P_M_Tony_Blair.jpg",NA,NA,NA,NA,NA,0.37476486,NA,NA,NA,NA,NA,NA,NA,NA,FALSE,"CLIP_vit.csv","E_M_nicolas_cage.jpg P_M_Tony_Blair.jpg"
NA,"E_M_robert_de_niro.jpg","E_M_tom_hankes.jpg",NA,NA,NA,NA,NA,0.3134045,NA,NA,NA,NA,NA,NA,NA,NA,FALSE,"CLIP_vit.csv","E_M_robert_de_niro.jpg E_M_tom_hankes.jpg"
NA,"E_M_robert_de_niro.jpg","P_F_hillary_clinton.jpg",NA,NA,NA,NA,NA,0.4293847,NA,NA,NA,NA,NA,NA,NA,NA,FALSE,"CLIP_vit.csv","E_M_robert_de_niro.jpg P_F_hillary_clinton.jpg"
NA,"E_M_robert_de_niro.jpg","P_F_nicola_sturgeon.jpg",NA,NA,NA,NA,NA,0.5275985,NA,NA,NA,NA,NA,NA,NA,NA,FALSE,"CLIP_vit.csv","E_M_robert_de_niro.jpg P_F_nicola_sturgeon.jpg"
NA,"E_M_robert_de_niro.jpg","P_F_tehresy_may.jpg",NA,NA,NA,NA,NA,0.5410911,NA,NA,NA,NA,NA,NA,NA,NA,FALSE,"CLIP_vit.csv","E_M_robert_de_niro.jpg P_F_tehresy_may.jpg"
NA,"E_M_robert_de_niro.jpg","P_M_bill_clinton.jpg",NA,NA,NA,NA,NA,0.41599947,NA,NA,NA,NA,NA,NA,NA,NA,FALSE,"CLIP_vit.csv","E_M_robert_de_niro.jpg P_M_bill_clinton.jpg"
NA,"E_M_robert_de_niro.jpg","P_M_boris_johnson.jpg",NA,NA,NA,NA,NA,0.5155716,NA,NA,NA,NA,NA,NA,NA,NA,FALSE,"CLIP_vit.csv","E_M_robert_de_niro.jpg P_M_boris_johnson.jpg"
NA,"E_M_robert_de_niro.jpg","P_M_david_cameron.jpg",NA,NA,NA,NA,NA,0.45006454,NA,NA,NA,NA,NA,NA,NA,NA,FALSE,"CLIP_vit.csv","E_M_robert_de_niro.jpg P_M_david_cameron.jpg"
NA,"E_M_robert_de_niro.jpg","P_M_donald_trump.jpg",NA,NA,NA,NA,NA,0.5077039,NA,NA,NA,NA,NA,NA,NA,NA,FALSE,"CLIP_vit.csv","E_M_robert_de_niro.jpg P_M_donald_trump.jpg"
NA,"E_M_robert_de_niro.jpg","P_M_george_Wbush.jpg",NA,NA,NA,NA,NA,0.36761647,NA,NA,NA,NA,NA,NA,NA,NA,FALSE,"CLIP_vit.csv","E_M_robert_de_niro.jpg P_M_george_Wbush.jpg"
NA,"E_M_robert_de_niro.jpg","P_M_Tony_Blair.jpg",NA,NA,NA,NA,NA,0.32838863,NA,NA,NA,NA,NA,NA,NA,NA,FALSE,"CLIP_vit.csv","E_M_robert_de_niro.jpg P_M_Tony_Blair.jpg"
NA,"E_M_tom_hankes.jpg","P_F_hillary_clinton.jpg",NA,NA,NA,NA,NA,0.33920836,NA,NA,NA,NA,NA,NA,NA,NA,FALSE,"CLIP_vit.csv","E_M_tom_hankes.jpg P_F_hillary_clinton.jpg"
NA,"E_M_tom_hankes.jpg","P_F_nicola_sturgeon.jpg",NA,NA,NA,NA,NA,0.4832164,NA,NA,NA,NA,NA,NA,NA,NA,FALSE,"CLIP_vit.csv","E_M_tom_hankes.jpg P_F_nicola_sturgeon.jpg"
NA,"E_M_tom_hankes.jpg","P_F_tehresy_may.jpg",NA,NA,NA,NA,NA,0.4997214,NA,NA,NA,NA,NA,NA,NA,NA,FALSE,"CLIP_vit.csv","E_M_tom_hankes.jpg P_F_tehresy_may.jpg"
NA,"E_M_tom_hankes.jpg","P_M_bill_clinton.jpg",NA,NA,NA,NA,NA,0.30627823,NA,NA,NA,NA,NA,NA,NA,NA,FALSE,"CLIP_vit.csv","E_M_tom_hankes.jpg P_M_bill_clinton.jpg"
NA,"E_M_tom_hankes.jpg","P_M_boris_johnson.jpg",NA,NA,NA,NA,NA,0.46754754,NA,NA,NA,NA,NA,NA,NA,NA,FALSE,"CLIP_vit.csv","E_M_tom_hankes.jpg P_M_boris_johnson.jpg"
NA,"E_M_tom_hankes.jpg","P_M_david_cameron.jpg",NA,NA,NA,NA,NA,0.36873245,NA,NA,NA,NA,NA,NA,NA,NA,FALSE,"CLIP_vit.csv","E_M_tom_hankes.jpg P_M_david_cameron.jpg"
NA,"E_M_tom_hankes.jpg","P_M_donald_trump.jpg",NA,NA,NA,NA,NA,0.38540262,NA,NA,NA,NA,NA,NA,NA,NA,FALSE,"CLIP_vit.csv","E_M_tom_hankes.jpg P_M_donald_trump.jpg"
NA,"E_M_tom_hankes.jpg","P_M_george_Wbush.jpg",NA,NA,NA,NA,NA,0.30838114,NA,NA,NA,NA,NA,NA,NA,NA,FALSE,"CLIP_vit.csv","E_M_tom_hankes.jpg P_M_george_Wbush.jpg"
NA,"E_M_tom_hankes.jpg","P_M_Tony_Blair.jpg",NA,NA,NA,NA,NA,0.3646019,NA,NA,NA,NA,NA,NA,NA,NA,FALSE,"CLIP_vit.csv","E_M_tom_hankes.jpg P_M_Tony_Blair.jpg"
NA,"P_F_hillary_clinton.jpg","P_F_nicola_sturgeon.jpg",NA,NA,NA,NA,NA,0.3309701,NA,NA,NA,NA,NA,NA,NA,NA,FALSE,"CLIP_vit.csv","P_F_hillary_clinton.jpg P_F_nicola_sturgeon.jpg"
NA,"P_F_hillary_clinton.jpg","P_F_tehresy_may.jpg",NA,NA,NA,NA,NA,0.2779807,NA,NA,NA,NA,NA,NA,NA,NA,FALSE,"CLIP_vit.csv","P_F_hillary_clinton.jpg P_F_tehresy_may.jpg"
NA,"P_F_hillary_clinton.jpg","P_M_bill_clinton.jpg",NA,NA,NA,NA,NA,0.14556372,NA,NA,NA,NA,NA,NA,NA,NA,FALSE,"CLIP_vit.csv","P_F_hillary_clinton.jpg P_M_bill_clinton.jpg"
NA,"P_F_hillary_clinton.jpg","P_M_boris_johnson.jpg",NA,NA,NA,NA,NA,0.32722706,NA,NA,NA,NA,NA,NA,NA,NA,FALSE,"CLIP_vit.csv","P_F_hillary_clinton.jpg P_M_boris_johnson.jpg"
NA,"P_F_hillary_clinton.jpg","P_M_david_cameron.jpg",NA,NA,NA,NA,NA,0.2827084,NA,NA,NA,NA,NA,NA,NA,NA,FALSE,"CLIP_vit.csv","P_F_hillary_clinton.jpg P_M_david_cameron.jpg"
NA,"P_F_hillary_clinton.jpg","P_M_donald_trump.jpg",NA,NA,NA,NA,NA,0.21390367,NA,NA,NA,NA,NA,NA,NA,NA,FALSE,"CLIP_vit.csv","P_F_hillary_clinton.jpg P_M_donald_trump.jpg"
NA,"P_F_hillary_clinton.jpg","P_M_george_Wbush.jpg",NA,NA,NA,NA,NA,0.22827041,NA,NA,NA,NA,NA,NA,NA,NA,FALSE,"CLIP_vit.csv","P_F_hillary_clinton.jpg P_M_george_Wbush.jpg"
NA,"P_F_hillary_clinton.jpg","P_M_Tony_Blair.jpg",NA,NA,NA,NA,NA,0.40189588,NA,NA,NA,NA,NA,NA,NA,NA,FALSE,"CLIP_vit.csv","P_F_hillary_clinton.jpg P_M_Tony_Blair.jpg"
NA,"P_F_nicola_sturgeon.jpg","P_F_tehresy_may.jpg",NA,NA,NA,NA,NA,0.24885911,NA,NA,NA,NA,NA,NA,NA,NA,FALSE,"CLIP_vit.csv","P_F_nicola_sturgeon.jpg P_F_tehresy_may.jpg"
NA,"P_F_nicola_sturgeon.jpg","P_M_bill_clinton.jpg",NA,NA,NA,NA,NA,0.37979817,NA,NA,NA,NA,NA,NA,NA,NA,FALSE,"CLIP_vit.csv","P_F_nicola_sturgeon.jpg P_M_bill_clinton.jpg"
NA,"P_F_nicola_sturgeon.jpg","P_M_boris_johnson.jpg",NA,NA,NA,NA,NA,0.24961996,NA,NA,NA,NA,NA,NA,NA,NA,FALSE,"CLIP_vit.csv","P_F_nicola_sturgeon.jpg P_M_boris_johnson.jpg"
NA,"P_F_nicola_sturgeon.jpg","P_M_david_cameron.jpg",NA,NA,NA,NA,NA,0.24023819,NA,NA,NA,NA,NA,NA,NA,NA,FALSE,"CLIP_vit.csv","P_F_nicola_sturgeon.jpg P_M_david_cameron.jpg"
NA,"P_F_nicola_sturgeon.jpg","P_M_donald_trump.jpg",NA,NA,NA,NA,NA,0.40750927,NA,NA,NA,NA,NA,NA,NA,NA,FALSE,"CLIP_vit.csv","P_F_nicola_sturgeon.jpg P_M_donald_trump.jpg"
NA,"P_F_nicola_sturgeon.jpg","P_M_george_Wbush.jpg",NA,NA,NA,NA,NA,0.38378215,NA,NA,NA,NA,NA,NA,NA,NA,FALSE,"CLIP_vit.csv","P_F_nicola_sturgeon.jpg P_M_george_Wbush.jpg"
NA,"P_F_nicola_sturgeon.jpg","P_M_Tony_Blair.jpg",NA,NA,NA,NA,NA,0.4280197,NA,NA,NA,NA,NA,NA,NA,NA,FALSE,"CLIP_vit.csv","P_F_nicola_sturgeon.jpg P_M_Tony_Blair.jpg"
NA,"P_F_tehresy_may.jpg","P_M_bill_clinton.jpg",NA,NA,NA,NA,NA,0.34530967,NA,NA,NA,NA,NA,NA,NA,NA,FALSE,"CLIP_vit.csv","P_F_tehresy_may.jpg P_M_bill_clinton.jpg"
NA,"P_F_tehresy_may.jpg","P_M_boris_johnson.jpg",NA,NA,NA,NA,NA,0.19689357,NA,NA,NA,NA,NA,NA,NA,NA,FALSE,"CLIP_vit.csv","P_F_tehresy_may.jpg P_M_boris_johnson.jpg"
NA,"P_F_tehresy_may.jpg","P_M_david_cameron.jpg",NA,NA,NA,NA,NA,0.19533163,NA,NA,NA,NA,NA,NA,NA,NA,FALSE,"CLIP_vit.csv","P_F_tehresy_may.jpg P_M_david_cameron.jpg"
NA,"P_F_tehresy_may.jpg","P_M_donald_trump.jpg",NA,NA,NA,NA,NA,0.29686606,NA,NA,NA,NA,NA,NA,NA,NA,FALSE,"CLIP_vit.csv","P_F_tehresy_may.jpg P_M_donald_trump.jpg"
NA,"P_F_tehresy_may.jpg","P_M_george_Wbush.jpg",NA,NA,NA,NA,NA,0.3747815,NA,NA,NA,NA,NA,NA,NA,NA,FALSE,"CLIP_vit.csv","P_F_tehresy_may.jpg P_M_george_Wbush.jpg"
NA,"P_F_tehresy_may.jpg","P_M_Tony_Blair.jpg",NA,NA,NA,NA,NA,0.41258663,NA,NA,NA,NA,NA,NA,NA,NA,FALSE,"CLIP_vit.csv","P_F_tehresy_may.jpg P_M_Tony_Blair.jpg"
NA,"P_M_bill_clinton.jpg","P_M_boris_johnson.jpg",NA,NA,NA,NA,NA,0.29575855,NA,NA,NA,NA,NA,NA,NA,NA,FALSE,"CLIP_vit.csv","P_M_bill_clinton.jpg P_M_boris_johnson.jpg"
NA,"P_M_bill_clinton.jpg","P_M_david_cameron.jpg",NA,NA,NA,NA,NA,0.21991944,NA,NA,NA,NA,NA,NA,NA,NA,FALSE,"CLIP_vit.csv","P_M_bill_clinton.jpg P_M_david_cameron.jpg"
NA,"P_M_bill_clinton.jpg","P_M_donald_trump.jpg",NA,NA,NA,NA,NA,0.23636293,NA,NA,NA,NA,NA,NA,NA,NA,FALSE,"CLIP_vit.csv","P_M_bill_clinton.jpg P_M_donald_trump.jpg"
NA,"P_M_bill_clinton.jpg","P_M_george_Wbush.jpg",NA,NA,NA,NA,NA,0.18244493,NA,NA,NA,NA,NA,NA,NA,NA,FALSE,"CLIP_vit.csv","P_M_bill_clinton.jpg P_M_george_Wbush.jpg"
NA,"P_M_bill_clinton.jpg","P_M_Tony_Blair.jpg",NA,NA,NA,NA,NA,0.40304685,NA,NA,NA,NA,NA,NA,NA,NA,FALSE,"CLIP_vit.csv","P_M_bill_clinton.jpg P_M_Tony_Blair.jpg"
NA,"P_M_boris_johnson.jpg","P_M_david_cameron.jpg",NA,NA,NA,NA,NA,0.115024745,NA,NA,NA,NA,NA,NA,NA,NA,FALSE,"CLIP_vit.csv","P_M_boris_johnson.jpg P_M_david_cameron.jpg"
NA,"P_M_boris_johnson.jpg","P_M_donald_trump.jpg",NA,NA,NA,NA,NA,0.35211003,NA,NA,NA,NA,NA,NA,NA,NA,FALSE,"CLIP_vit.csv","P_M_boris_johnson.jpg P_M_donald_trump.jpg"
NA,"P_M_boris_johnson.jpg","P_M_george_Wbush.jpg",NA,NA,NA,NA,NA,0.3579939,NA,NA,NA,NA,NA,NA,NA,NA,FALSE,"CLIP_vit.csv","P_M_boris_johnson.jpg P_M_george_Wbush.jpg"
NA,"P_M_boris_johnson.jpg","P_M_Tony_Blair.jpg",NA,NA,NA,NA,NA,0.3570584,NA,NA,NA,NA,NA,NA,NA,NA,FALSE,"CLIP_vit.csv","P_M_boris_johnson.jpg P_M_Tony_Blair.jpg"
NA,"P_M_david_cameron.jpg","P_M_donald_trump.jpg",NA,NA,NA,NA,NA,0.31164056,NA,NA,NA,NA,NA,NA,NA,NA,FALSE,"CLIP_vit.csv","P_M_david_cameron.jpg P_M_donald_trump.jpg"
NA,"P_M_david_cameron.jpg","P_M_george_Wbush.jpg",NA,NA,NA,NA,NA,0.24292976,NA,NA,NA,NA,NA,NA,NA,NA,FALSE,"CLIP_vit.csv","P_M_david_cameron.jpg P_M_george_Wbush.jpg"
NA,"P_M_david_cameron.jpg","P_M_Tony_Blair.jpg",NA,NA,NA,NA,NA,0.31936914,NA,NA,NA,NA,NA,NA,NA,NA,FALSE,"CLIP_vit.csv","P_M_david_cameron.jpg P_M_Tony_Blair.jpg"
NA,"P_M_donald_trump.jpg","P_M_george_Wbush.jpg",NA,NA,NA,NA,NA,0.27020276,NA,NA,NA,NA,NA,NA,NA,NA,FALSE,"CLIP_vit.csv","P_M_donald_trump.jpg P_M_george_Wbush.jpg"
NA,"P_M_donald_trump.jpg","P_M_Tony_Blair.jpg",NA,NA,NA,NA,NA,0.45023566,NA,NA,NA,NA,NA,NA,NA,NA,FALSE,"CLIP_vit.csv","P_M_donald_trump.jpg P_M_Tony_Blair.jpg"
NA,"P_M_george_Wbush.jpg","P_M_Tony_Blair.jpg",NA,NA,NA,NA,NA,0.35101354,NA,NA,NA,NA,NA,NA,NA,NA,FALSE,"CLIP_vit.csv","P_M_george_Wbush.jpg P_M_Tony_Blair.jpg"
