"RT","img_1","img_2","isSameProffesion","img1proffesion","img2proffesion","img1Gender","img2Gender","keyPressed","participant","time","normlised_keyPress","age","gender","handedness","isFamiliar_img1","isFamiliar_img2","vividness_img1","vividness_img2","reject_trial","pair"
5277,"P_F_hillary_clinton.png","P_M_bill_clinton.png","TRUE","pictures/stimuli/P","pictures/stimuli/P","F","M","4","571b3de05d40840013c49f3a","05/04/2022, 10:14:16",-0.129053166837569,"33","Female","left",0,0,0,0,FALSE,"P_F_hillary_clinton.png P_M_bill_clinton.png"
7914,"E_F_angelina_jolie.png","P_M_david_cameron.png","FALSE","pictures/stimuli/E","pictures/stimuli/P","F","M","5","571b3de05d40840013c49f3a","05/04/2022, 10:14:16",0.779098747945323,"33","Female","left",0,1,0,0,FALSE,"E_F_angelina_jolie.png P_M_david_cameron.png"
3049,"P_F_hillary_clinton.png","P_M_george_Wbush.png","TRUE","pictures/stimuli/P","pictures/stimuli/P","F","M","3","571b3de05d40840013c49f3a","05/04/2022, 10:14:16",-1.03720508162046,"33","Female","left",0,0,0,0,FALSE,"P_F_hillary_clinton.png P_M_george_Wbush.png"
6249,"E_F_keira_knightley.png","P_F_nicola_sturgeon.png","FALSE","pictures/stimuli/E","pictures/stimuli/P","F","F","4","571b3de05d40840013c49f3a","05/04/2022, 10:14:16",-0.129053166837569,"33","Female","left",0,0,0,0,FALSE,"E_F_keira_knightley.png P_F_nicola_sturgeon.png"
5134,"P_F_hillary_clinton.png","P_F_nicola_sturgeon.png","TRUE","pictures/stimuli/P","pictures/stimuli/P","F","F","4","571b3de05d40840013c49f3a","05/04/2022, 10:14:16",-0.129053166837569,"33","Female","left",0,0,0,0,FALSE,"P_F_hillary_clinton.png P_F_nicola_sturgeon.png"
3649,"E_M_nicolas_cage.png","P_M_boris_johnson.png","FALSE","pictures/stimuli/E","pictures/stimuli/P","M","M","5","571b3de05d40840013c49f3a","05/04/2022, 10:14:16",0.779098747945323,"33","Female","left",0,1,0,0,FALSE,"E_M_nicolas_cage.png P_M_boris_johnson.png"
4798,"E_F_Judi_Dench.png","P_M_george_Wbush.png","FALSE","pictures/stimuli/E","pictures/stimuli/P","F","M","4","571b3de05d40840013c49f3a","05/04/2022, 10:14:16",-0.129053166837569,"33","Female","left",0,0,0,0,FALSE,"E_F_Judi_Dench.png P_M_george_Wbush.png"
4700,"E_F_keira_knightley.png","P_M_Tony_Blair.png","FALSE","pictures/stimuli/E","pictures/stimuli/P","F","M","5","571b3de05d40840013c49f3a","05/04/2022, 10:14:16",0.779098747945323,"33","Female","left",0,1,0,0,FALSE,"E_F_keira_knightley.png P_M_Tony_Blair.png"
2898,"E_M_robert_de_niro.png","P_M_david_cameron.png","FALSE","pictures/stimuli/E","pictures/stimuli/P","M","M","3","571b3de05d40840013c49f3a","05/04/2022, 10:14:16",-1.03720508162046,"33","Female","left",0,1,0,0,FALSE,"E_M_robert_de_niro.png P_M_david_cameron.png"
3899,"E_M_michael_caine.png","E_M_robert_de_niro.png","TRUE","pictures/stimuli/E","pictures/stimuli/E","M","M","2","571b3de05d40840013c49f3a","05/04/2022, 10:14:16",-1.94535699640335,"33","Female","left",0,0,0,0,FALSE,"E_M_michael_caine.png E_M_robert_de_niro.png"
5548,"E_F_jennifer_aniston.png","P_M_george_Wbush.png","FALSE","pictures/stimuli/E","pictures/stimuli/P","F","M","4","571b3de05d40840013c49f3a","05/04/2022, 10:14:16",-0.129053166837569,"33","Female","left",0,0,0,0,FALSE,"E_F_jennifer_aniston.png P_M_george_Wbush.png"
2201,"E_M_nicolas_cage.png","P_M_david_cameron.png","FALSE","pictures/stimuli/E","pictures/stimuli/P","M","M","3","571b3de05d40840013c49f3a","05/04/2022, 10:14:16",-1.03720508162046,"33","Female","left",0,1,0,0,FALSE,"E_M_nicolas_cage.png P_M_david_cameron.png"
1951,"E_F_keira_knightley.png","E_M_michael_caine.png","TRUE","pictures/stimuli/E","pictures/stimuli/E","F","M","5","571b3de05d40840013c49f3a","05/04/2022, 10:14:16",0.779098747945323,"33","Female","left",0,0,0,0,FALSE,"E_F_keira_knightley.png E_M_michael_caine.png"
2180,"E_M_robert_de_niro.png","P_F_hillary_clinton.png","FALSE","pictures/stimuli/E","pictures/stimuli/P","M","F","5","571b3de05d40840013c49f3a","05/04/2022, 10:14:16",0.779098747945323,"33","Female","left",0,0,0,0,FALSE,"E_M_robert_de_niro.png P_F_hillary_clinton.png"
2299,"E_F_sandra_bullock.png","P_M_george_Wbush.png","FALSE","pictures/stimuli/E","pictures/stimuli/P","F","M","5","571b3de05d40840013c49f3a","05/04/2022, 10:14:16",0.779098747945323,"33","Female","left",0,0,0,0,FALSE,"E_F_sandra_bullock.png P_M_george_Wbush.png"
2150,"E_M_nicolas_cage.png","P_M_Tony_Blair.png","FALSE","pictures/stimuli/E","pictures/stimuli/P","M","M","3","571b3de05d40840013c49f3a","05/04/2022, 10:14:16",-1.03720508162046,"33","Female","left",0,1,0,0,FALSE,"E_M_nicolas_cage.png P_M_Tony_Blair.png"
2615,"P_F_tehresy_may.png","P_M_david_cameron.png","TRUE","pictures/stimuli/P","pictures/stimuli/P","F","M","2","571b3de05d40840013c49f3a","05/04/2022, 10:14:16",-1.94535699640335,"33","Female","left",1,1,0,0,FALSE,"P_F_tehresy_may.png P_M_david_cameron.png"
3283,"E_F_Judi_Dench.png","E_F_keira_knightley.png","TRUE","pictures/stimuli/E","pictures/stimuli/E","F","F","3","571b3de05d40840013c49f3a","05/04/2022, 10:14:16",-1.03720508162046,"33","Female","left",0,0,0,0,FALSE,"E_F_Judi_Dench.png E_F_keira_knightley.png"
2782,"E_M_Hugh_Grant.png","P_M_david_cameron.png","FALSE","pictures/stimuli/E","pictures/stimuli/P","M","M","3","571b3de05d40840013c49f3a","05/04/2022, 10:14:16",-1.03720508162046,"33","Female","left",0,1,0,0,FALSE,"E_M_Hugh_Grant.png P_M_david_cameron.png"
2034,"E_M_tom_hankes.png","P_M_david_cameron.png","FALSE","pictures/stimuli/E","pictures/stimuli/P","M","M","4","571b3de05d40840013c49f3a","05/04/2022, 10:14:16",-0.129053166837569,"33","Female","left",0,1,0,0,FALSE,"E_M_tom_hankes.png P_M_david_cameron.png"
3282,"E_M_Hugh_Grant.png","E_M_michael_caine.png","TRUE","pictures/stimuli/E","pictures/stimuli/E","M","M","2","571b3de05d40840013c49f3a","05/04/2022, 10:14:16",-1.94535699640335,"33","Female","left",0,0,0,0,FALSE,"E_M_Hugh_Grant.png E_M_michael_caine.png"
2216,"E_F_Judi_Dench.png","E_M_nicolas_cage.png","TRUE","pictures/stimuli/E","pictures/stimuli/E","F","M","3","571b3de05d40840013c49f3a","05/04/2022, 10:14:16",-1.03720508162046,"33","Female","left",0,0,0,0,FALSE,"E_F_Judi_Dench.png E_M_nicolas_cage.png"
1969,"E_F_jennifer_aniston.png","P_M_bill_clinton.png","FALSE","pictures/stimuli/E","pictures/stimuli/P","F","M","4","571b3de05d40840013c49f3a","05/04/2022, 10:14:16",-0.129053166837569,"33","Female","left",0,0,0,0,FALSE,"E_F_jennifer_aniston.png P_M_bill_clinton.png"
2697,"E_M_robert_de_niro.png","P_M_Tony_Blair.png","FALSE","pictures/stimuli/E","pictures/stimuli/P","M","M","4","571b3de05d40840013c49f3a","05/04/2022, 10:14:16",-0.129053166837569,"33","Female","left",0,1,0,0,FALSE,"E_M_robert_de_niro.png P_M_Tony_Blair.png"
3433,"E_F_jennifer_aniston.png","E_M_nicolas_cage.png","TRUE","pictures/stimuli/E","pictures/stimuli/E","F","M","3","571b3de05d40840013c49f3a","05/04/2022, 10:14:16",-1.03720508162046,"33","Female","left",0,0,0,0,FALSE,"E_F_jennifer_aniston.png E_M_nicolas_cage.png"
4132,"E_F_Kate_Winslet.png","E_F_keira_knightley.png","TRUE","pictures/stimuli/E","pictures/stimuli/E","F","F","1","571b3de05d40840013c49f3a","05/04/2022, 10:14:16",-2.85350891118624,"33","Female","left",0,0,0,0,FALSE,"E_F_Kate_Winslet.png E_F_keira_knightley.png"
2782,"E_F_angelina_jolie.png","P_M_Tony_Blair.png","FALSE","pictures/stimuli/E","pictures/stimuli/P","F","M","4","571b3de05d40840013c49f3a","05/04/2022, 10:14:16",-0.129053166837569,"33","Female","left",0,1,0,0,FALSE,"E_F_angelina_jolie.png P_M_Tony_Blair.png"
2082,"E_F_angelina_jolie.png","E_M_robert_de_niro.png","TRUE","pictures/stimuli/E","pictures/stimuli/E","F","M","5","571b3de05d40840013c49f3a","05/04/2022, 10:14:16",0.779098747945323,"33","Female","left",0,0,0,0,FALSE,"E_F_angelina_jolie.png E_M_robert_de_niro.png"
1816,"E_M_robert_de_niro.png","P_F_tehresy_may.png","FALSE","pictures/stimuli/E","pictures/stimuli/P","M","F","5","571b3de05d40840013c49f3a","05/04/2022, 10:14:16",0.779098747945323,"33","Female","left",0,1,0,0,FALSE,"E_M_robert_de_niro.png P_F_tehresy_may.png"
1998,"P_M_david_cameron.png","P_M_george_Wbush.png","TRUE","pictures/stimuli/P","pictures/stimuli/P","M","M","4","571b3de05d40840013c49f3a","05/04/2022, 10:14:16",-0.129053166837569,"33","Female","left",1,0,0,0,FALSE,"P_M_david_cameron.png P_M_george_Wbush.png"
3435,"E_F_keira_knightley.png","E_M_tom_hankes.png","TRUE","pictures/stimuli/E","pictures/stimuli/E","F","M","5","571b3de05d40840013c49f3a","05/04/2022, 10:14:16",0.779098747945323,"33","Female","left",0,0,0,0,FALSE,"E_F_keira_knightley.png E_M_tom_hankes.png"
4398,"E_M_nicolas_cage.png","P_M_donald_trump.png","FALSE","pictures/stimuli/E","pictures/stimuli/P","M","M","5","571b3de05d40840013c49f3a","05/04/2022, 10:14:16",0.779098747945323,"33","Female","left",0,1,0,0,FALSE,"E_M_nicolas_cage.png P_M_donald_trump.png"
2649,"E_F_Judi_Dench.png","E_M_robert_de_niro.png","TRUE","pictures/stimuli/E","pictures/stimuli/E","F","M","4","571b3de05d40840013c49f3a","05/04/2022, 10:14:16",-0.129053166837569,"33","Female","left",0,0,0,0,FALSE,"E_F_Judi_Dench.png E_M_robert_de_niro.png"
2696,"E_M_michael_caine.png","P_F_nicola_sturgeon.png","FALSE","pictures/stimuli/E","pictures/stimuli/P","M","F","3","571b3de05d40840013c49f3a","05/04/2022, 10:14:16",-1.03720508162046,"33","Female","left",0,0,0,0,FALSE,"E_M_michael_caine.png P_F_nicola_sturgeon.png"
1750,"E_F_Kate_Winslet.png","P_M_bill_clinton.png","FALSE","pictures/stimuli/E","pictures/stimuli/P","F","M","4","571b3de05d40840013c49f3a","05/04/2022, 10:14:16",-0.129053166837569,"33","Female","left",0,0,0,0,FALSE,"E_F_Kate_Winslet.png P_M_bill_clinton.png"
1732,"P_F_hillary_clinton.png","P_F_tehresy_may.png","TRUE","pictures/stimuli/P","pictures/stimuli/P","F","F","4","571b3de05d40840013c49f3a","05/04/2022, 10:14:16",-0.129053166837569,"33","Female","left",0,1,0,0,FALSE,"P_F_hillary_clinton.png P_F_tehresy_may.png"
2149,"E_F_angelina_jolie.png","P_F_tehresy_may.png","FALSE","pictures/stimuli/E","pictures/stimuli/P","F","F","3","571b3de05d40840013c49f3a","05/04/2022, 10:14:16",-1.03720508162046,"33","Female","left",0,1,0,0,FALSE,"E_F_angelina_jolie.png P_F_tehresy_may.png"
2783,"E_F_Kate_Winslet.png","E_F_sandra_bullock.png","TRUE","pictures/stimuli/E","pictures/stimuli/E","F","F","4","571b3de05d40840013c49f3a","05/04/2022, 10:14:16",-0.129053166837569,"33","Female","left",0,0,0,0,FALSE,"E_F_Kate_Winslet.png E_F_sandra_bullock.png"
3224,"E_F_angelina_jolie.png","P_M_boris_johnson.png","FALSE","pictures/stimuli/E","pictures/stimuli/P","F","M","5","571b3de05d40840013c49f3a","05/04/2022, 10:14:16",0.779098747945323,"33","Female","left",0,1,0,0,FALSE,"E_F_angelina_jolie.png P_M_boris_johnson.png"
2524,"P_M_boris_johnson.png","P_M_donald_trump.png","TRUE","pictures/stimuli/P","pictures/stimuli/P","M","M","5","571b3de05d40840013c49f3a","05/04/2022, 10:14:16",0.779098747945323,"33","Female","left",1,1,0,0,FALSE,"P_M_boris_johnson.png P_M_donald_trump.png"
2598,"E_M_robert_de_niro.png","P_M_donald_trump.png","FALSE","pictures/stimuli/E","pictures/stimuli/P","M","M","5","571b3de05d40840013c49f3a","05/04/2022, 10:14:16",0.779098747945323,"33","Female","left",0,1,0,0,FALSE,"E_M_robert_de_niro.png P_M_donald_trump.png"
2182,"E_F_Kate_Winslet.png","P_M_george_Wbush.png","FALSE","pictures/stimuli/E","pictures/stimuli/P","F","M","5","571b3de05d40840013c49f3a","05/04/2022, 10:14:16",0.779098747945323,"33","Female","left",0,0,0,0,FALSE,"E_F_Kate_Winslet.png P_M_george_Wbush.png"
2067,"E_F_keira_knightley.png","P_M_bill_clinton.png","FALSE","pictures/stimuli/E","pictures/stimuli/P","F","M","5","571b3de05d40840013c49f3a","05/04/2022, 10:14:16",0.779098747945323,"33","Female","left",0,0,0,0,FALSE,"E_F_keira_knightley.png P_M_bill_clinton.png"
3515,"E_F_Kate_Winslet.png","P_M_boris_johnson.png","FALSE","pictures/stimuli/E","pictures/stimuli/P","F","M","3","571b3de05d40840013c49f3a","05/04/2022, 10:14:16",-1.03720508162046,"33","Female","left",0,1,0,0,FALSE,"E_F_Kate_Winslet.png P_M_boris_johnson.png"
1700,"E_F_sandra_bullock.png","P_M_Tony_Blair.png","FALSE","pictures/stimuli/E","pictures/stimuli/P","F","M","5","571b3de05d40840013c49f3a","05/04/2022, 10:14:16",0.779098747945323,"33","Female","left",0,1,0,0,FALSE,"E_F_sandra_bullock.png P_M_Tony_Blair.png"
1750,"P_M_boris_johnson.png","P_M_Tony_Blair.png","TRUE","pictures/stimuli/P","pictures/stimuli/P","M","M","4","571b3de05d40840013c49f3a","05/04/2022, 10:14:16",-0.129053166837569,"33","Female","left",1,1,0,0,FALSE,"P_M_boris_johnson.png P_M_Tony_Blair.png"
2480,"E_F_sandra_bullock.png","E_M_robert_de_niro.png","TRUE","pictures/stimuli/E","pictures/stimuli/E","F","M","5","571b3de05d40840013c49f3a","05/04/2022, 10:14:16",0.779098747945323,"33","Female","left",0,0,0,0,FALSE,"E_F_sandra_bullock.png E_M_robert_de_niro.png"
2700,"E_M_nicolas_cage.png","P_M_bill_clinton.png","FALSE","pictures/stimuli/E","pictures/stimuli/P","M","M","3","571b3de05d40840013c49f3a","05/04/2022, 10:14:16",-1.03720508162046,"33","Female","left",0,0,0,0,FALSE,"E_M_nicolas_cage.png P_M_bill_clinton.png"
2299,"E_M_nicolas_cage.png","P_F_hillary_clinton.png","FALSE","pictures/stimuli/E","pictures/stimuli/P","M","F","3","571b3de05d40840013c49f3a","05/04/2022, 10:14:16",-1.03720508162046,"33","Female","left",0,0,0,0,FALSE,"E_M_nicolas_cage.png P_F_hillary_clinton.png"
3017,"E_M_michael_caine.png","E_M_tom_hankes.png","TRUE","pictures/stimuli/E","pictures/stimuli/E","M","M","4","571b3de05d40840013c49f3a","05/04/2022, 10:14:16",-0.129053166837569,"33","Female","left",0,0,0,0,FALSE,"E_M_michael_caine.png E_M_tom_hankes.png"
2131,"E_M_tom_hankes.png","P_F_tehresy_may.png","FALSE","pictures/stimuli/E","pictures/stimuli/P","M","F","5","571b3de05d40840013c49f3a","05/04/2022, 10:14:16",0.779098747945323,"33","Female","left",0,1,0,0,FALSE,"E_M_tom_hankes.png P_F_tehresy_may.png"
3351,"E_F_jennifer_aniston.png","P_M_boris_johnson.png","FALSE","pictures/stimuli/E","pictures/stimuli/P","F","M","5","571b3de05d40840013c49f3a","05/04/2022, 10:14:16",0.779098747945323,"33","Female","left",0,1,0,0,FALSE,"E_F_jennifer_aniston.png P_M_boris_johnson.png"
2882,"E_M_Hugh_Grant.png","E_M_nicolas_cage.png","TRUE","pictures/stimuli/E","pictures/stimuli/E","M","M","2","571b3de05d40840013c49f3a","05/04/2022, 10:14:16",-1.94535699640335,"33","Female","left",0,0,0,0,FALSE,"E_M_Hugh_Grant.png E_M_nicolas_cage.png"
1898,"P_F_tehresy_may.png","P_M_Tony_Blair.png","TRUE","pictures/stimuli/P","pictures/stimuli/P","F","M","5","571b3de05d40840013c49f3a","05/04/2022, 10:14:16",0.779098747945323,"33","Female","left",1,1,0,0,FALSE,"P_F_tehresy_may.png P_M_Tony_Blair.png"
1950,"E_F_jennifer_aniston.png","E_F_sandra_bullock.png","TRUE","pictures/stimuli/E","pictures/stimuli/E","F","F","5","571b3de05d40840013c49f3a","05/04/2022, 10:14:16",0.779098747945323,"33","Female","left",0,0,0,0,FALSE,"E_F_jennifer_aniston.png E_F_sandra_bullock.png"
1866,"P_F_nicola_sturgeon.png","P_M_george_Wbush.png","TRUE","pictures/stimuli/P","pictures/stimuli/P","F","M","4","571b3de05d40840013c49f3a","05/04/2022, 10:14:16",-0.129053166837569,"33","Female","left",0,0,0,0,FALSE,"P_F_nicola_sturgeon.png P_M_george_Wbush.png"
2133,"E_M_michael_caine.png","E_M_nicolas_cage.png","TRUE","pictures/stimuli/E","pictures/stimuli/E","M","M","3","571b3de05d40840013c49f3a","05/04/2022, 10:14:16",-1.03720508162046,"33","Female","left",0,0,0,0,FALSE,"E_M_michael_caine.png E_M_nicolas_cage.png"
1703,"E_M_tom_hankes.png","P_F_nicola_sturgeon.png","FALSE","pictures/stimuli/E","pictures/stimuli/P","M","F","5","571b3de05d40840013c49f3a","05/04/2022, 10:14:16",0.779098747945323,"33","Female","left",0,0,0,0,FALSE,"E_M_tom_hankes.png P_F_nicola_sturgeon.png"
1722,"E_F_keira_knightley.png","P_M_donald_trump.png","FALSE","pictures/stimuli/E","pictures/stimuli/P","F","M","6","571b3de05d40840013c49f3a","05/04/2022, 10:14:16",1.68725066272821,"33","Female","left",0,1,0,0,FALSE,"E_F_keira_knightley.png P_M_donald_trump.png"
3332,"E_F_Kate_Winslet.png","P_F_tehresy_may.png","FALSE","pictures/stimuli/E","pictures/stimuli/P","F","F","4","571b3de05d40840013c49f3a","05/04/2022, 10:14:16",-0.129053166837569,"33","Female","left",0,1,0,0,FALSE,"E_F_Kate_Winslet.png P_F_tehresy_may.png"
2233,"E_M_tom_hankes.png","P_F_hillary_clinton.png","FALSE","pictures/stimuli/E","pictures/stimuli/P","M","F","5","571b3de05d40840013c49f3a","05/04/2022, 10:14:16",0.779098747945323,"33","Female","left",0,0,0,0,FALSE,"E_M_tom_hankes.png P_F_hillary_clinton.png"
1883,"E_M_Hugh_Grant.png","P_F_tehresy_may.png","FALSE","pictures/stimuli/E","pictures/stimuli/P","M","F","5","571b3de05d40840013c49f3a","05/04/2022, 10:14:16",0.779098747945323,"33","Female","left",0,1,0,0,FALSE,"E_M_Hugh_Grant.png P_F_tehresy_may.png"
2450,"E_M_Hugh_Grant.png","P_F_nicola_sturgeon.png","FALSE","pictures/stimuli/E","pictures/stimuli/P","M","F","3","571b3de05d40840013c49f3a","05/04/2022, 10:14:16",-1.03720508162046,"33","Female","left",0,0,0,0,FALSE,"E_M_Hugh_Grant.png P_F_nicola_sturgeon.png"
3733,"E_F_jennifer_aniston.png","E_F_Judi_Dench.png","TRUE","pictures/stimuli/E","pictures/stimuli/E","F","F","3","571b3de05d40840013c49f3a","05/04/2022, 10:14:16",-1.03720508162046,"33","Female","left",0,0,0,0,FALSE,"E_F_jennifer_aniston.png E_F_Judi_Dench.png"
3132,"E_M_Hugh_Grant.png","E_M_tom_hankes.png","TRUE","pictures/stimuli/E","pictures/stimuli/E","M","M","4","571b3de05d40840013c49f3a","05/04/2022, 10:14:16",-0.129053166837569,"33","Female","left",0,0,0,0,FALSE,"E_M_Hugh_Grant.png E_M_tom_hankes.png"
2050,"E_F_angelina_jolie.png","P_M_george_Wbush.png","FALSE","pictures/stimuli/E","pictures/stimuli/P","F","M","5","571b3de05d40840013c49f3a","05/04/2022, 10:14:16",0.779098747945323,"33","Female","left",0,0,0,0,FALSE,"E_F_angelina_jolie.png P_M_george_Wbush.png"
1850,"E_M_robert_de_niro.png","P_M_boris_johnson.png","FALSE","pictures/stimuli/E","pictures/stimuli/P","M","M","5","571b3de05d40840013c49f3a","05/04/2022, 10:14:16",0.779098747945323,"33","Female","left",0,1,0,0,FALSE,"E_M_robert_de_niro.png P_M_boris_johnson.png"
1779,"E_F_Judi_Dench.png","P_M_bill_clinton.png","FALSE","pictures/stimuli/E","pictures/stimuli/P","F","M","3","571b3de05d40840013c49f3a","05/04/2022, 10:14:16",-1.03720508162046,"33","Female","left",0,0,0,0,FALSE,"E_F_Judi_Dench.png P_M_bill_clinton.png"
1933,"P_M_donald_trump.png","P_M_Tony_Blair.png","TRUE","pictures/stimuli/P","pictures/stimuli/P","M","M","5","571b3de05d40840013c49f3a","05/04/2022, 10:14:16",0.779098747945323,"33","Female","left",1,1,0,0,FALSE,"P_M_donald_trump.png P_M_Tony_Blair.png"
3033,"E_F_angelina_jolie.png","P_F_hillary_clinton.png","FALSE","pictures/stimuli/E","pictures/stimuli/P","F","F","2","571b3de05d40840013c49f3a","05/04/2022, 10:14:16",-1.94535699640335,"33","Female","left",0,0,0,0,FALSE,"E_F_angelina_jolie.png P_F_hillary_clinton.png"
2298,"E_F_Judi_Dench.png","E_M_Hugh_Grant.png","TRUE","pictures/stimuli/E","pictures/stimuli/E","F","M","5","571b3de05d40840013c49f3a","05/04/2022, 10:14:16",0.779098747945323,"33","Female","left",0,0,0,0,FALSE,"E_F_Judi_Dench.png E_M_Hugh_Grant.png"
1966,"E_F_Judi_Dench.png","P_M_david_cameron.png","FALSE","pictures/stimuli/E","pictures/stimuli/P","F","M","5","571b3de05d40840013c49f3a","05/04/2022, 10:14:16",0.779098747945323,"33","Female","left",0,1,0,0,FALSE,"E_F_Judi_Dench.png P_M_david_cameron.png"
2850,"E_F_jennifer_aniston.png","E_M_michael_caine.png","TRUE","pictures/stimuli/E","pictures/stimuli/E","F","M","5","571b3de05d40840013c49f3a","05/04/2022, 10:14:16",0.779098747945323,"33","Female","left",0,0,0,0,FALSE,"E_F_jennifer_aniston.png E_M_michael_caine.png"
3300,"E_F_angelina_jolie.png","E_F_keira_knightley.png","TRUE","pictures/stimuli/E","pictures/stimuli/E","F","F","2","571b3de05d40840013c49f3a","05/04/2022, 10:14:16",-1.94535699640335,"33","Female","left",0,0,0,0,FALSE,"E_F_angelina_jolie.png E_F_keira_knightley.png"
1783,"P_F_hillary_clinton.png","P_M_david_cameron.png","TRUE","pictures/stimuli/P","pictures/stimuli/P","F","M","5","571b3de05d40840013c49f3a","05/04/2022, 10:14:16",0.779098747945323,"33","Female","left",0,1,0,0,FALSE,"P_F_hillary_clinton.png P_M_david_cameron.png"
1898,"E_M_Hugh_Grant.png","P_M_george_Wbush.png","FALSE","pictures/stimuli/E","pictures/stimuli/P","M","M","5","571b3de05d40840013c49f3a","05/04/2022, 10:14:16",0.779098747945323,"33","Female","left",0,0,0,0,FALSE,"E_M_Hugh_Grant.png P_M_george_Wbush.png"
2149,"E_F_jennifer_aniston.png","P_M_donald_trump.png","FALSE","pictures/stimuli/E","pictures/stimuli/P","F","M","5","571b3de05d40840013c49f3a","05/04/2022, 10:14:16",0.779098747945323,"33","Female","left",0,1,0,0,FALSE,"E_F_jennifer_aniston.png P_M_donald_trump.png"
2583,"P_F_tehresy_may.png","P_M_boris_johnson.png","TRUE","pictures/stimuli/P","pictures/stimuli/P","F","M","4","571b3de05d40840013c49f3a","05/04/2022, 10:14:16",-0.129053166837569,"33","Female","left",1,1,0,0,FALSE,"P_F_tehresy_may.png P_M_boris_johnson.png"
1780,"P_M_bill_clinton.png","P_M_donald_trump.png","TRUE","pictures/stimuli/P","pictures/stimuli/P","M","M","5","571b3de05d40840013c49f3a","05/04/2022, 10:14:16",0.779098747945323,"33","Female","left",0,1,0,0,FALSE,"P_M_bill_clinton.png P_M_donald_trump.png"
2733,"E_F_Kate_Winslet.png","E_M_robert_de_niro.png","TRUE","pictures/stimuli/E","pictures/stimuli/E","F","M","5","571b3de05d40840013c49f3a","05/04/2022, 10:14:16",0.779098747945323,"33","Female","left",0,0,0,0,FALSE,"E_F_Kate_Winslet.png E_M_robert_de_niro.png"
2065,"E_M_Hugh_Grant.png","E_M_robert_de_niro.png","TRUE","pictures/stimuli/E","pictures/stimuli/E","M","M","5","571b3de05d40840013c49f3a","05/04/2022, 10:14:16",0.779098747945323,"33","Female","left",0,0,0,0,FALSE,"E_M_Hugh_Grant.png E_M_robert_de_niro.png"
2017,"E_F_angelina_jolie.png","E_M_Hugh_Grant.png","TRUE","pictures/stimuli/E","pictures/stimuli/E","F","M","5","571b3de05d40840013c49f3a","05/04/2022, 10:14:16",0.779098747945323,"33","Female","left",0,0,0,0,FALSE,"E_F_angelina_jolie.png E_M_Hugh_Grant.png"
3213,"E_F_jennifer_aniston.png","E_M_Hugh_Grant.png","TRUE","pictures/stimuli/E","pictures/stimuli/E","F","M","2","571b3de05d40840013c49f3a","05/04/2022, 10:14:16",-1.94535699640335,"33","Female","left",0,0,0,0,FALSE,"E_F_jennifer_aniston.png E_M_Hugh_Grant.png"
2916,"E_M_Hugh_Grant.png","P_M_boris_johnson.png","FALSE","pictures/stimuli/E","pictures/stimuli/P","M","M","5","571b3de05d40840013c49f3a","05/04/2022, 10:14:16",0.779098747945323,"33","Female","left",0,1,0,0,FALSE,"E_M_Hugh_Grant.png P_M_boris_johnson.png"
3232,"E_F_angelina_jolie.png","E_M_tom_hankes.png","TRUE","pictures/stimuli/E","pictures/stimuli/E","F","M","5","571b3de05d40840013c49f3a","05/04/2022, 10:14:16",0.779098747945323,"33","Female","left",0,0,0,0,FALSE,"E_F_angelina_jolie.png E_M_tom_hankes.png"
3549,"E_M_michael_caine.png","P_M_george_Wbush.png","FALSE","pictures/stimuli/E","pictures/stimuli/P","M","M","5","571b3de05d40840013c49f3a","05/04/2022, 10:14:16",0.779098747945323,"33","Female","left",0,0,0,0,FALSE,"E_M_michael_caine.png P_M_george_Wbush.png"
2983,"E_F_Kate_Winslet.png","P_F_hillary_clinton.png","FALSE","pictures/stimuli/E","pictures/stimuli/P","F","F","2","571b3de05d40840013c49f3a","05/04/2022, 10:14:16",-1.94535699640335,"33","Female","left",0,0,0,0,FALSE,"E_F_Kate_Winslet.png P_F_hillary_clinton.png"
2452,"E_F_angelina_jolie.png","P_M_bill_clinton.png","FALSE","pictures/stimuli/E","pictures/stimuli/P","F","M","5","571b3de05d40840013c49f3a","05/04/2022, 10:14:16",0.779098747945323,"33","Female","left",0,0,0,0,FALSE,"E_F_angelina_jolie.png P_M_bill_clinton.png"
4596,"E_M_tom_hankes.png","P_M_george_Wbush.png","FALSE","pictures/stimuli/E","pictures/stimuli/P","M","M","2","571b3de05d40840013c49f3a","05/04/2022, 10:14:16",-1.94535699640335,"33","Female","left",0,0,0,0,FALSE,"E_M_tom_hankes.png P_M_george_Wbush.png"
3383,"E_M_tom_hankes.png","P_M_Tony_Blair.png","FALSE","pictures/stimuli/E","pictures/stimuli/P","M","M","3","571b3de05d40840013c49f3a","05/04/2022, 10:14:16",-1.03720508162046,"33","Female","left",0,1,0,0,FALSE,"E_M_tom_hankes.png P_M_Tony_Blair.png"
3368,"E_M_tom_hankes.png","P_M_boris_johnson.png","FALSE","pictures/stimuli/E","pictures/stimuli/P","M","M","6","571b3de05d40840013c49f3a","05/04/2022, 10:14:16",1.68725066272821,"33","Female","left",0,1,0,0,FALSE,"E_M_tom_hankes.png P_M_boris_johnson.png"
2413,"E_F_Judi_Dench.png","E_M_tom_hankes.png","TRUE","pictures/stimuli/E","pictures/stimuli/E","F","M","2","571b3de05d40840013c49f3a","05/04/2022, 10:14:16",-1.94535699640335,"33","Female","left",0,0,0,0,FALSE,"E_F_Judi_Dench.png E_M_tom_hankes.png"
2449,"E_M_michael_caine.png","P_M_bill_clinton.png","FALSE","pictures/stimuli/E","pictures/stimuli/P","M","M","2","571b3de05d40840013c49f3a","05/04/2022, 10:14:16",-1.94535699640335,"33","Female","left",0,0,0,0,FALSE,"E_M_michael_caine.png P_M_bill_clinton.png"
3251,"E_F_Judi_Dench.png","E_M_michael_caine.png","TRUE","pictures/stimuli/E","pictures/stimuli/E","F","M","3","571b3de05d40840013c49f3a","05/04/2022, 10:14:16",-1.03720508162046,"33","Female","left",0,0,0,0,FALSE,"E_F_Judi_Dench.png E_M_michael_caine.png"
6898,"E_F_sandra_bullock.png","P_M_donald_trump.png","FALSE","pictures/stimuli/E","pictures/stimuli/P","F","M","6","571b3de05d40840013c49f3a","05/04/2022, 10:14:16",1.68725066272821,"33","Female","left",0,1,0,0,FALSE,"E_F_sandra_bullock.png P_M_donald_trump.png"
3367,"E_F_Kate_Winslet.png","E_M_Hugh_Grant.png","TRUE","pictures/stimuli/E","pictures/stimuli/E","F","M","4","571b3de05d40840013c49f3a","05/04/2022, 10:14:16",-0.129053166837569,"33","Female","left",0,0,0,0,FALSE,"E_F_Kate_Winslet.png E_M_Hugh_Grant.png"
2765,"E_F_keira_knightley.png","E_M_nicolas_cage.png","TRUE","pictures/stimuli/E","pictures/stimuli/E","F","M","3","571b3de05d40840013c49f3a","05/04/2022, 10:14:16",-1.03720508162046,"33","Female","left",0,0,0,0,FALSE,"E_F_keira_knightley.png E_M_nicolas_cage.png"
4199,"E_F_Kate_Winslet.png","E_M_tom_hankes.png","TRUE","pictures/stimuli/E","pictures/stimuli/E","F","M","4","571b3de05d40840013c49f3a","05/04/2022, 10:14:16",-0.129053166837569,"33","Female","left",0,0,0,0,FALSE,"E_F_Kate_Winslet.png E_M_tom_hankes.png"
4932,"E_F_keira_knightley.png","P_F_tehresy_may.png","FALSE","pictures/stimuli/E","pictures/stimuli/P","F","F","3","571b3de05d40840013c49f3a","05/04/2022, 10:14:16",-1.03720508162046,"33","Female","left",0,1,0,0,FALSE,"E_F_keira_knightley.png P_F_tehresy_may.png"
2149,"E_M_michael_caine.png","P_M_boris_johnson.png","FALSE","pictures/stimuli/E","pictures/stimuli/P","M","M","4","571b3de05d40840013c49f3a","05/04/2022, 10:14:16",-0.129053166837569,"33","Female","left",0,1,0,0,FALSE,"E_M_michael_caine.png P_M_boris_johnson.png"
2550,"P_F_nicola_sturgeon.png","P_F_tehresy_may.png","TRUE","pictures/stimuli/P","pictures/stimuli/P","F","F","5","571b3de05d40840013c49f3a","05/04/2022, 10:14:16",0.779098747945323,"33","Female","left",0,1,0,0,FALSE,"P_F_nicola_sturgeon.png P_F_tehresy_may.png"
2665,"E_M_michael_caine.png","P_F_hillary_clinton.png","FALSE","pictures/stimuli/E","pictures/stimuli/P","M","F","3","571b3de05d40840013c49f3a","05/04/2022, 10:14:16",-1.03720508162046,"33","Female","left",0,0,0,0,FALSE,"E_M_michael_caine.png P_F_hillary_clinton.png"
3132,"P_F_tehresy_may.png","P_M_george_Wbush.png","TRUE","pictures/stimuli/P","pictures/stimuli/P","F","M","5","571b3de05d40840013c49f3a","05/04/2022, 10:14:16",0.779098747945323,"33","Female","left",1,0,0,0,FALSE,"P_F_tehresy_may.png P_M_george_Wbush.png"
2750,"E_M_robert_de_niro.png","P_F_nicola_sturgeon.png","FALSE","pictures/stimuli/E","pictures/stimuli/P","M","F","5","571b3de05d40840013c49f3a","05/04/2022, 10:14:16",0.779098747945323,"33","Female","left",0,0,0,0,FALSE,"E_M_robert_de_niro.png P_F_nicola_sturgeon.png"
2498,"E_M_Hugh_Grant.png","P_M_Tony_Blair.png","FALSE","pictures/stimuli/E","pictures/stimuli/P","M","M","2","571b3de05d40840013c49f3a","05/04/2022, 10:14:16",-1.94535699640335,"33","Female","left",0,1,0,0,FALSE,"E_M_Hugh_Grant.png P_M_Tony_Blair.png"
3333,"P_M_donald_trump.png","P_M_george_Wbush.png","TRUE","pictures/stimuli/P","pictures/stimuli/P","M","M","4","571b3de05d40840013c49f3a","05/04/2022, 10:14:16",-0.129053166837569,"33","Female","left",1,0,0,0,FALSE,"P_M_donald_trump.png P_M_george_Wbush.png"
3683,"E_F_jennifer_aniston.png","P_F_tehresy_may.png","FALSE","pictures/stimuli/E","pictures/stimuli/P","F","F","5","571b3de05d40840013c49f3a","05/04/2022, 10:14:16",0.779098747945323,"33","Female","left",0,1,0,0,FALSE,"E_F_jennifer_aniston.png P_F_tehresy_may.png"
2449,"E_F_angelina_jolie.png","E_F_jennifer_aniston.png","TRUE","pictures/stimuli/E","pictures/stimuli/E","F","F","4","571b3de05d40840013c49f3a","05/04/2022, 10:14:16",-0.129053166837569,"33","Female","left",0,0,0,0,FALSE,"E_F_angelina_jolie.png E_F_jennifer_aniston.png"
2000,"E_M_michael_caine.png","P_M_donald_trump.png","FALSE","pictures/stimuli/E","pictures/stimuli/P","M","M","6","571b3de05d40840013c49f3a","05/04/2022, 10:14:16",1.68725066272821,"33","Female","left",0,1,0,0,FALSE,"E_M_michael_caine.png P_M_donald_trump.png"
2581,"E_F_keira_knightley.png","E_F_sandra_bullock.png","TRUE","pictures/stimuli/E","pictures/stimuli/E","F","F","1","571b3de05d40840013c49f3a","05/04/2022, 10:14:16",-2.85350891118624,"33","Female","left",0,0,0,0,FALSE,"E_F_keira_knightley.png E_F_sandra_bullock.png"
1949,"P_F_tehresy_may.png","P_M_donald_trump.png","TRUE","pictures/stimuli/P","pictures/stimuli/P","F","M","5","571b3de05d40840013c49f3a","05/04/2022, 10:14:16",0.779098747945323,"33","Female","left",1,1,0,0,FALSE,"P_F_tehresy_may.png P_M_donald_trump.png"
3333,"E_F_keira_knightley.png","P_M_boris_johnson.png","FALSE","pictures/stimuli/E","pictures/stimuli/P","F","M","5","571b3de05d40840013c49f3a","05/04/2022, 10:14:16",0.779098747945323,"33","Female","left",0,1,0,0,FALSE,"E_F_keira_knightley.png P_M_boris_johnson.png"
3597,"E_F_angelina_jolie.png","E_M_michael_caine.png","TRUE","pictures/stimuli/E","pictures/stimuli/E","F","M","4","571b3de05d40840013c49f3a","05/04/2022, 10:14:16",-0.129053166837569,"33","Female","left",0,0,0,0,FALSE,"E_F_angelina_jolie.png E_M_michael_caine.png"
2167,"E_F_keira_knightley.png","E_M_Hugh_Grant.png","TRUE","pictures/stimuli/E","pictures/stimuli/E","F","M","5","571b3de05d40840013c49f3a","05/04/2022, 10:14:16",0.779098747945323,"33","Female","left",0,0,0,0,FALSE,"E_F_keira_knightley.png E_M_Hugh_Grant.png"
2498,"P_F_nicola_sturgeon.png","P_M_bill_clinton.png","TRUE","pictures/stimuli/P","pictures/stimuli/P","F","M","4","571b3de05d40840013c49f3a","05/04/2022, 10:14:16",-0.129053166837569,"33","Female","left",0,0,0,0,FALSE,"P_F_nicola_sturgeon.png P_M_bill_clinton.png"
2134,"E_F_jennifer_aniston.png","P_M_david_cameron.png","FALSE","pictures/stimuli/E","pictures/stimuli/P","F","M","5","571b3de05d40840013c49f3a","05/04/2022, 10:14:16",0.779098747945323,"33","Female","left",0,1,0,0,FALSE,"E_F_jennifer_aniston.png P_M_david_cameron.png"
3901,"E_M_michael_caine.png","P_M_Tony_Blair.png","FALSE","pictures/stimuli/E","pictures/stimuli/P","M","M","4","571b3de05d40840013c49f3a","05/04/2022, 10:14:16",-0.129053166837569,"33","Female","left",0,1,0,0,FALSE,"E_M_michael_caine.png P_M_Tony_Blair.png"
4779,"E_F_sandra_bullock.png","P_M_bill_clinton.png","FALSE","pictures/stimuli/E","pictures/stimuli/P","F","M","3","571b3de05d40840013c49f3a","05/04/2022, 10:14:16",-1.03720508162046,"33","Female","left",0,0,0,0,FALSE,"E_F_sandra_bullock.png P_M_bill_clinton.png"
1936,"P_M_david_cameron.png","P_M_Tony_Blair.png","TRUE","pictures/stimuli/P","pictures/stimuli/P","M","M","5","571b3de05d40840013c49f3a","05/04/2022, 10:14:16",0.779098747945323,"33","Female","left",1,1,0,0,FALSE,"P_M_david_cameron.png P_M_Tony_Blair.png"
2379,"P_M_boris_johnson.png","P_M_david_cameron.png","TRUE","pictures/stimuli/P","pictures/stimuli/P","M","M","2","571b3de05d40840013c49f3a","05/04/2022, 10:14:16",-1.94535699640335,"33","Female","left",1,1,0,0,FALSE,"P_M_boris_johnson.png P_M_david_cameron.png"
2283,"E_F_sandra_bullock.png","P_F_tehresy_may.png","FALSE","pictures/stimuli/E","pictures/stimuli/P","F","F","5","571b3de05d40840013c49f3a","05/04/2022, 10:14:16",0.779098747945323,"33","Female","left",0,1,0,0,FALSE,"E_F_sandra_bullock.png P_F_tehresy_may.png"
1899,"E_F_sandra_bullock.png","P_F_hillary_clinton.png","FALSE","pictures/stimuli/E","pictures/stimuli/P","F","F","4","571b3de05d40840013c49f3a","05/04/2022, 10:14:16",-0.129053166837569,"33","Female","left",0,0,0,0,FALSE,"E_F_sandra_bullock.png P_F_hillary_clinton.png"
1867,"E_F_sandra_bullock.png","E_M_tom_hankes.png","TRUE","pictures/stimuli/E","pictures/stimuli/E","F","M","4","571b3de05d40840013c49f3a","05/04/2022, 10:14:16",-0.129053166837569,"33","Female","left",0,0,0,0,FALSE,"E_F_sandra_bullock.png E_M_tom_hankes.png"
2548,"P_M_bill_clinton.png","P_M_george_Wbush.png","TRUE","pictures/stimuli/P","pictures/stimuli/P","M","M","4","571b3de05d40840013c49f3a","05/04/2022, 10:14:16",-0.129053166837569,"33","Female","left",0,0,0,0,FALSE,"P_M_bill_clinton.png P_M_george_Wbush.png"
2632,"P_M_bill_clinton.png","P_M_Tony_Blair.png","TRUE","pictures/stimuli/P","pictures/stimuli/P","M","M","5","571b3de05d40840013c49f3a","05/04/2022, 10:14:16",0.779098747945323,"33","Female","left",0,1,0,0,FALSE,"P_M_bill_clinton.png P_M_Tony_Blair.png"
2152,"E_F_jennifer_aniston.png","P_M_Tony_Blair.png","FALSE","pictures/stimuli/E","pictures/stimuli/P","F","M","4","571b3de05d40840013c49f3a","05/04/2022, 10:14:16",-0.129053166837569,"33","Female","left",0,1,0,0,FALSE,"E_F_jennifer_aniston.png P_M_Tony_Blair.png"
3095,"E_F_jennifer_aniston.png","E_F_Kate_Winslet.png","TRUE","pictures/stimuli/E","pictures/stimuli/E","F","F","4","571b3de05d40840013c49f3a","05/04/2022, 10:14:16",-0.129053166837569,"33","Female","left",0,0,0,0,FALSE,"E_F_jennifer_aniston.png E_F_Kate_Winslet.png"
3466,"E_F_Judi_Dench.png","P_F_hillary_clinton.png","FALSE","pictures/stimuli/E","pictures/stimuli/P","F","F","3","571b3de05d40840013c49f3a","05/04/2022, 10:14:16",-1.03720508162046,"33","Female","left",0,0,0,0,FALSE,"E_F_Judi_Dench.png P_F_hillary_clinton.png"
3082,"E_M_tom_hankes.png","P_M_bill_clinton.png","FALSE","pictures/stimuli/E","pictures/stimuli/P","M","M","4","571b3de05d40840013c49f3a","05/04/2022, 10:14:16",-0.129053166837569,"33","Female","left",0,0,0,0,FALSE,"E_M_tom_hankes.png P_M_bill_clinton.png"
2282,"E_F_angelina_jolie.png","E_M_nicolas_cage.png","TRUE","pictures/stimuli/E","pictures/stimuli/E","F","M","3","571b3de05d40840013c49f3a","05/04/2022, 10:14:16",-1.03720508162046,"33","Female","left",0,0,0,0,FALSE,"E_F_angelina_jolie.png E_M_nicolas_cage.png"
2566,"E_F_jennifer_aniston.png","P_F_hillary_clinton.png","FALSE","pictures/stimuli/E","pictures/stimuli/P","F","F","2","571b3de05d40840013c49f3a","05/04/2022, 10:14:16",-1.94535699640335,"33","Female","left",0,0,0,0,FALSE,"E_F_jennifer_aniston.png P_F_hillary_clinton.png"
2699,"E_M_nicolas_cage.png","P_F_nicola_sturgeon.png","FALSE","pictures/stimuli/E","pictures/stimuli/P","M","F","5","571b3de05d40840013c49f3a","05/04/2022, 10:14:16",0.779098747945323,"33","Female","left",0,0,0,0,FALSE,"E_M_nicolas_cage.png P_F_nicola_sturgeon.png"
1966,"E_M_robert_de_niro.png","P_M_bill_clinton.png","FALSE","pictures/stimuli/E","pictures/stimuli/P","M","M","4","571b3de05d40840013c49f3a","05/04/2022, 10:14:16",-0.129053166837569,"33","Female","left",0,0,0,0,FALSE,"E_M_robert_de_niro.png P_M_bill_clinton.png"
1716,"E_F_angelina_jolie.png","P_F_nicola_sturgeon.png","FALSE","pictures/stimuli/E","pictures/stimuli/P","F","F","5","571b3de05d40840013c49f3a","05/04/2022, 10:14:16",0.779098747945323,"33","Female","left",0,0,0,0,FALSE,"E_F_angelina_jolie.png P_F_nicola_sturgeon.png"
3731,"E_F_Judi_Dench.png","E_F_sandra_bullock.png","TRUE","pictures/stimuli/E","pictures/stimuli/E","F","F","4","571b3de05d40840013c49f3a","05/04/2022, 10:14:16",-0.129053166837569,"33","Female","left",0,0,0,0,FALSE,"E_F_Judi_Dench.png E_F_sandra_bullock.png"
1884,"E_M_nicolas_cage.png","E_M_tom_hankes.png","TRUE","pictures/stimuli/E","pictures/stimuli/E","M","M","5","571b3de05d40840013c49f3a","05/04/2022, 10:14:16",0.779098747945323,"33","Female","left",0,0,0,0,FALSE,"E_M_nicolas_cage.png E_M_tom_hankes.png"
3483,"E_F_sandra_bullock.png","E_M_michael_caine.png","TRUE","pictures/stimuli/E","pictures/stimuli/E","F","M","5","571b3de05d40840013c49f3a","05/04/2022, 10:14:16",0.779098747945323,"33","Female","left",0,0,0,0,FALSE,"E_F_sandra_bullock.png E_M_michael_caine.png"
3816,"E_M_Hugh_Grant.png","P_F_hillary_clinton.png","FALSE","pictures/stimuli/E","pictures/stimuli/P","M","F","3","571b3de05d40840013c49f3a","05/04/2022, 10:14:16",-1.03720508162046,"33","Female","left",0,0,0,0,FALSE,"E_M_Hugh_Grant.png P_F_hillary_clinton.png"
2200,"E_M_nicolas_cage.png","P_M_george_Wbush.png","FALSE","pictures/stimuli/E","pictures/stimuli/P","M","M","5","571b3de05d40840013c49f3a","05/04/2022, 10:14:16",0.779098747945323,"33","Female","left",0,0,0,0,FALSE,"E_M_nicolas_cage.png P_M_george_Wbush.png"
4131,"E_F_angelina_jolie.png","E_F_Judi_Dench.png","TRUE","pictures/stimuli/E","pictures/stimuli/E","F","F","3","571b3de05d40840013c49f3a","05/04/2022, 10:14:16",-1.03720508162046,"33","Female","left",0,0,0,0,FALSE,"E_F_angelina_jolie.png E_F_Judi_Dench.png"
3183,"P_F_nicola_sturgeon.png","P_M_boris_johnson.png","TRUE","pictures/stimuli/P","pictures/stimuli/P","F","M","3","571b3de05d40840013c49f3a","05/04/2022, 10:14:16",-1.03720508162046,"33","Female","left",0,1,0,0,FALSE,"P_F_nicola_sturgeon.png P_M_boris_johnson.png"
3016,"E_F_Kate_Winslet.png","E_M_nicolas_cage.png","TRUE","pictures/stimuli/E","pictures/stimuli/E","F","M","3","571b3de05d40840013c49f3a","05/04/2022, 10:14:16",-1.03720508162046,"33","Female","left",0,0,0,0,FALSE,"E_F_Kate_Winslet.png E_M_nicolas_cage.png"
2449,"E_F_Judi_Dench.png","P_M_Tony_Blair.png","FALSE","pictures/stimuli/E","pictures/stimuli/P","F","M","4","571b3de05d40840013c49f3a","05/04/2022, 10:14:16",-0.129053166837569,"33","Female","left",0,1,0,0,FALSE,"E_F_Judi_Dench.png P_M_Tony_Blair.png"
3448,"E_F_keira_knightley.png","E_M_robert_de_niro.png","TRUE","pictures/stimuli/E","pictures/stimuli/E","F","M","5","571b3de05d40840013c49f3a","05/04/2022, 10:14:16",0.779098747945323,"33","Female","left",0,0,0,0,FALSE,"E_F_keira_knightley.png E_M_robert_de_niro.png"
3249,"E_F_Kate_Winslet.png","E_M_michael_caine.png","TRUE","pictures/stimuli/E","pictures/stimuli/E","F","M","2","571b3de05d40840013c49f3a","05/04/2022, 10:14:16",-1.94535699640335,"33","Female","left",0,0,0,0,FALSE,"E_F_Kate_Winslet.png E_M_michael_caine.png"
2501,"E_F_angelina_jolie.png","E_F_sandra_bullock.png","TRUE","pictures/stimuli/E","pictures/stimuli/E","F","F","4","571b3de05d40840013c49f3a","05/04/2022, 10:14:16",-0.129053166837569,"33","Female","left",0,0,0,0,FALSE,"E_F_angelina_jolie.png E_F_sandra_bullock.png"
3000,"P_F_hillary_clinton.png","P_M_boris_johnson.png","TRUE","pictures/stimuli/P","pictures/stimuli/P","F","M","5","571b3de05d40840013c49f3a","05/04/2022, 10:14:16",0.779098747945323,"33","Female","left",0,1,0,0,FALSE,"P_F_hillary_clinton.png P_M_boris_johnson.png"
1846,"E_M_Hugh_Grant.png","P_M_bill_clinton.png","FALSE","pictures/stimuli/E","pictures/stimuli/P","M","M","5","571b3de05d40840013c49f3a","05/04/2022, 10:14:16",0.779098747945323,"33","Female","left",0,0,0,0,FALSE,"E_M_Hugh_Grant.png P_M_bill_clinton.png"
2218,"E_F_sandra_bullock.png","P_M_david_cameron.png","FALSE","pictures/stimuli/E","pictures/stimuli/P","F","M","6","571b3de05d40840013c49f3a","05/04/2022, 10:14:16",1.68725066272821,"33","Female","left",0,1,0,0,FALSE,"E_F_sandra_bullock.png P_M_david_cameron.png"
2332,"P_M_bill_clinton.png","P_M_boris_johnson.png","TRUE","pictures/stimuli/P","pictures/stimuli/P","M","M","3","571b3de05d40840013c49f3a","05/04/2022, 10:14:16",-1.03720508162046,"33","Female","left",0,1,0,0,FALSE,"P_M_bill_clinton.png P_M_boris_johnson.png"
3383,"E_F_jennifer_aniston.png","E_F_keira_knightley.png","TRUE","pictures/stimuli/E","pictures/stimuli/E","F","F","4","571b3de05d40840013c49f3a","05/04/2022, 10:14:16",-0.129053166837569,"33","Female","left",0,0,0,0,FALSE,"E_F_jennifer_aniston.png E_F_keira_knightley.png"
2065,"E_F_Kate_Winslet.png","P_M_donald_trump.png","FALSE","pictures/stimuli/E","pictures/stimuli/P","F","M","5","571b3de05d40840013c49f3a","05/04/2022, 10:14:16",0.779098747945323,"33","Female","left",0,1,0,0,FALSE,"E_F_Kate_Winslet.png P_M_donald_trump.png"
1651,"E_M_Hugh_Grant.png","P_M_donald_trump.png","FALSE","pictures/stimuli/E","pictures/stimuli/P","M","M","5","571b3de05d40840013c49f3a","05/04/2022, 10:14:16",0.779098747945323,"33","Female","left",0,1,0,0,FALSE,"E_M_Hugh_Grant.png P_M_donald_trump.png"
2381,"E_M_tom_hankes.png","P_M_donald_trump.png","FALSE","pictures/stimuli/E","pictures/stimuli/P","M","M","6","571b3de05d40840013c49f3a","05/04/2022, 10:14:16",1.68725066272821,"33","Female","left",0,1,0,0,FALSE,"E_M_tom_hankes.png P_M_donald_trump.png"
2690,"E_F_angelina_jolie.png","P_M_donald_trump.png","FALSE","pictures/stimuli/E","pictures/stimuli/P","F","M","5","571b3de05d40840013c49f3a","05/04/2022, 10:14:16",0.779098747945323,"33","Female","left",0,1,0,0,FALSE,"E_F_angelina_jolie.png P_M_donald_trump.png"
2090,"E_F_Judi_Dench.png","E_F_Kate_Winslet.png","TRUE","pictures/stimuli/E","pictures/stimuli/E","F","F","4","571b3de05d40840013c49f3a","05/04/2022, 10:14:16",-0.129053166837569,"33","Female","left",0,0,0,0,FALSE,"E_F_Judi_Dench.png E_F_Kate_Winslet.png"
1817,"E_F_jennifer_aniston.png","E_M_robert_de_niro.png","TRUE","pictures/stimuli/E","pictures/stimuli/E","F","M","5","571b3de05d40840013c49f3a","05/04/2022, 10:14:16",0.779098747945323,"33","Female","left",0,0,0,0,FALSE,"E_F_jennifer_aniston.png E_M_robert_de_niro.png"
2684,"E_F_angelina_jolie.png","E_F_Kate_Winslet.png","TRUE","pictures/stimuli/E","pictures/stimuli/E","F","F","3","571b3de05d40840013c49f3a","05/04/2022, 10:14:16",-1.03720508162046,"33","Female","left",0,0,0,0,FALSE,"E_F_angelina_jolie.png E_F_Kate_Winslet.png"
1914,"E_F_Kate_Winslet.png","P_F_nicola_sturgeon.png","FALSE","pictures/stimuli/E","pictures/stimuli/P","F","F","4","571b3de05d40840013c49f3a","05/04/2022, 10:14:16",-0.129053166837569,"33","Female","left",0,0,0,0,FALSE,"E_F_Kate_Winslet.png P_F_nicola_sturgeon.png"
2367,"P_F_nicola_sturgeon.png","P_M_david_cameron.png","TRUE","pictures/stimuli/P","pictures/stimuli/P","F","M","5","571b3de05d40840013c49f3a","05/04/2022, 10:14:16",0.779098747945323,"33","Female","left",0,1,0,0,FALSE,"P_F_nicola_sturgeon.png P_M_david_cameron.png"
3214,"P_F_nicola_sturgeon.png","P_M_Tony_Blair.png","TRUE","pictures/stimuli/P","pictures/stimuli/P","F","M","5","571b3de05d40840013c49f3a","05/04/2022, 10:14:16",0.779098747945323,"33","Female","left",0,1,0,0,FALSE,"P_F_nicola_sturgeon.png P_M_Tony_Blair.png"
2118,"P_F_hillary_clinton.png","P_M_Tony_Blair.png","TRUE","pictures/stimuli/P","pictures/stimuli/P","F","M","5","571b3de05d40840013c49f3a","05/04/2022, 10:14:16",0.779098747945323,"33","Female","left",0,1,0,0,FALSE,"P_F_hillary_clinton.png P_M_Tony_Blair.png"
1765,"E_F_jennifer_aniston.png","E_M_tom_hankes.png","TRUE","pictures/stimuli/E","pictures/stimuli/E","F","M","5","571b3de05d40840013c49f3a","05/04/2022, 10:14:16",0.779098747945323,"33","Female","left",0,0,0,0,FALSE,"E_F_jennifer_aniston.png E_M_tom_hankes.png"
2349,"P_F_nicola_sturgeon.png","P_M_donald_trump.png","TRUE","pictures/stimuli/P","pictures/stimuli/P","F","M","4","571b3de05d40840013c49f3a","05/04/2022, 10:14:16",-0.129053166837569,"33","Female","left",0,1,0,0,FALSE,"P_F_nicola_sturgeon.png P_M_donald_trump.png"
1965,"E_F_Kate_Winslet.png","P_M_Tony_Blair.png","FALSE","pictures/stimuli/E","pictures/stimuli/P","F","M","5","571b3de05d40840013c49f3a","05/04/2022, 10:14:16",0.779098747945323,"33","Female","left",0,1,0,0,FALSE,"E_F_Kate_Winslet.png P_M_Tony_Blair.png"
1616,"P_M_david_cameron.png","P_M_donald_trump.png","TRUE","pictures/stimuli/P","pictures/stimuli/P","M","M","5","571b3de05d40840013c49f3a","05/04/2022, 10:14:16",0.779098747945323,"33","Female","left",1,1,0,0,FALSE,"P_M_david_cameron.png P_M_donald_trump.png"
2567,"E_M_robert_de_niro.png","E_M_tom_hankes.png","TRUE","pictures/stimuli/E","pictures/stimuli/E","M","M","2","571b3de05d40840013c49f3a","05/04/2022, 10:14:16",-1.94535699640335,"33","Female","left",0,0,0,0,FALSE,"E_M_robert_de_niro.png E_M_tom_hankes.png"
2582,"E_F_Judi_Dench.png","P_M_boris_johnson.png","FALSE","pictures/stimuli/E","pictures/stimuli/P","F","M","3","571b3de05d40840013c49f3a","05/04/2022, 10:14:16",-1.03720508162046,"33","Female","left",0,1,0,0,FALSE,"E_F_Judi_Dench.png P_M_boris_johnson.png"
1866,"E_F_sandra_bullock.png","P_M_boris_johnson.png","FALSE","pictures/stimuli/E","pictures/stimuli/P","F","M","5","571b3de05d40840013c49f3a","05/04/2022, 10:14:16",0.779098747945323,"33","Female","left",0,1,0,0,FALSE,"E_F_sandra_bullock.png P_M_boris_johnson.png"
1734,"P_F_tehresy_may.png","P_M_bill_clinton.png","TRUE","pictures/stimuli/P","pictures/stimuli/P","F","M","4","571b3de05d40840013c49f3a","05/04/2022, 10:14:16",-0.129053166837569,"33","Female","left",1,0,0,0,FALSE,"P_F_tehresy_may.png P_M_bill_clinton.png"
2315,"E_M_nicolas_cage.png","P_F_tehresy_may.png","FALSE","pictures/stimuli/E","pictures/stimuli/P","M","F","5","571b3de05d40840013c49f3a","05/04/2022, 10:14:16",0.779098747945323,"33","Female","left",0,1,0,0,FALSE,"E_M_nicolas_cage.png P_F_tehresy_may.png"
2399,"E_M_michael_caine.png","P_F_tehresy_may.png","FALSE","pictures/stimuli/E","pictures/stimuli/P","M","F","3","571b3de05d40840013c49f3a","05/04/2022, 10:14:16",-1.03720508162046,"33","Female","left",0,1,0,0,FALSE,"E_M_michael_caine.png P_F_tehresy_may.png"
4714,"P_M_george_Wbush.png","P_M_Tony_Blair.png","TRUE","pictures/stimuli/P","pictures/stimuli/P","M","M","5","571b3de05d40840013c49f3a","05/04/2022, 10:14:16",0.779098747945323,"33","Female","left",0,1,0,0,FALSE,"P_M_george_Wbush.png P_M_Tony_Blair.png"
2800,"E_F_keira_knightley.png","P_M_david_cameron.png","FALSE","pictures/stimuli/E","pictures/stimuli/P","F","M","5","571b3de05d40840013c49f3a","05/04/2022, 10:14:16",0.779098747945323,"33","Female","left",0,1,0,0,FALSE,"E_F_keira_knightley.png P_M_david_cameron.png"
1731,"E_M_robert_de_niro.png","P_M_george_Wbush.png","FALSE","pictures/stimuli/E","pictures/stimuli/P","M","M","4","571b3de05d40840013c49f3a","05/04/2022, 10:14:16",-0.129053166837569,"33","Female","left",0,0,0,0,FALSE,"E_M_robert_de_niro.png P_M_george_Wbush.png"
1683,"E_F_sandra_bullock.png","E_M_nicolas_cage.png","TRUE","pictures/stimuli/E","pictures/stimuli/E","F","M","5","571b3de05d40840013c49f3a","05/04/2022, 10:14:16",0.779098747945323,"33","Female","left",0,0,0,0,FALSE,"E_F_sandra_bullock.png E_M_nicolas_cage.png"
1866,"E_F_Judi_Dench.png","P_F_nicola_sturgeon.png","FALSE","pictures/stimuli/E","pictures/stimuli/P","F","F","5","571b3de05d40840013c49f3a","05/04/2022, 10:14:16",0.779098747945323,"33","Female","left",0,0,0,0,FALSE,"E_F_Judi_Dench.png P_F_nicola_sturgeon.png"
1666,"E_F_Judi_Dench.png","P_M_donald_trump.png","FALSE","pictures/stimuli/E","pictures/stimuli/P","F","M","6","571b3de05d40840013c49f3a","05/04/2022, 10:14:16",1.68725066272821,"33","Female","left",0,1,0,0,FALSE,"E_F_Judi_Dench.png P_M_donald_trump.png"
1847,"E_F_Kate_Winslet.png","P_M_david_cameron.png","FALSE","pictures/stimuli/E","pictures/stimuli/P","F","M","5","571b3de05d40840013c49f3a","05/04/2022, 10:14:16",0.779098747945323,"33","Female","left",0,1,0,0,FALSE,"E_F_Kate_Winslet.png P_M_david_cameron.png"
1783,"E_F_keira_knightley.png","P_M_george_Wbush.png","FALSE","pictures/stimuli/E","pictures/stimuli/P","F","M","6","571b3de05d40840013c49f3a","05/04/2022, 10:14:16",1.68725066272821,"33","Female","left",0,0,0,0,FALSE,"E_F_keira_knightley.png P_M_george_Wbush.png"
2667,"E_F_sandra_bullock.png","P_F_nicola_sturgeon.png","FALSE","pictures/stimuli/E","pictures/stimuli/P","F","F","5","571b3de05d40840013c49f3a","05/04/2022, 10:14:16",0.779098747945323,"33","Female","left",0,0,0,0,FALSE,"E_F_sandra_bullock.png P_F_nicola_sturgeon.png"
2148,"P_M_bill_clinton.png","P_M_david_cameron.png","TRUE","pictures/stimuli/P","pictures/stimuli/P","M","M","3","571b3de05d40840013c49f3a","05/04/2022, 10:14:16",-1.03720508162046,"33","Female","left",0,1,0,0,FALSE,"P_M_bill_clinton.png P_M_david_cameron.png"
1649,"E_F_keira_knightley.png","P_F_hillary_clinton.png","FALSE","pictures/stimuli/E","pictures/stimuli/P","F","F","5","571b3de05d40840013c49f3a","05/04/2022, 10:14:16",0.779098747945323,"33","Female","left",0,0,0,0,FALSE,"E_F_keira_knightley.png P_F_hillary_clinton.png"
1715,"E_F_sandra_bullock.png","E_M_Hugh_Grant.png","TRUE","pictures/stimuli/E","pictures/stimuli/E","F","M","5","571b3de05d40840013c49f3a","05/04/2022, 10:14:16",0.779098747945323,"33","Female","left",0,0,0,0,FALSE,"E_F_sandra_bullock.png E_M_Hugh_Grant.png"
2167,"E_F_jennifer_aniston.png","P_F_nicola_sturgeon.png","FALSE","pictures/stimuli/E","pictures/stimuli/P","F","F","3","571b3de05d40840013c49f3a","05/04/2022, 10:14:16",-1.03720508162046,"33","Female","left",0,0,0,0,FALSE,"E_F_jennifer_aniston.png P_F_nicola_sturgeon.png"
2264,"P_M_boris_johnson.png","P_M_george_Wbush.png","TRUE","pictures/stimuli/P","pictures/stimuli/P","M","M","4","571b3de05d40840013c49f3a","05/04/2022, 10:14:16",-0.129053166837569,"33","Female","left",1,0,0,0,FALSE,"P_M_boris_johnson.png P_M_george_Wbush.png"
2282,"E_M_nicolas_cage.png","E_M_robert_de_niro.png","TRUE","pictures/stimuli/E","pictures/stimuli/E","M","M","5","571b3de05d40840013c49f3a","05/04/2022, 10:14:16",0.779098747945323,"33","Female","left",0,0,0,0,FALSE,"E_M_nicolas_cage.png E_M_robert_de_niro.png"
1783,"P_F_hillary_clinton.png","P_M_donald_trump.png","TRUE","pictures/stimuli/P","pictures/stimuli/P","F","M","5","571b3de05d40840013c49f3a","05/04/2022, 10:14:16",0.779098747945323,"33","Female","left",0,1,0,0,FALSE,"P_F_hillary_clinton.png P_M_donald_trump.png"
2599,"E_M_michael_caine.png","P_M_david_cameron.png","FALSE","pictures/stimuli/E","pictures/stimuli/P","M","M","5","571b3de05d40840013c49f3a","05/04/2022, 10:14:16",0.779098747945323,"33","Female","left",0,1,0,0,FALSE,"E_M_michael_caine.png P_M_david_cameron.png"
4050,"E_F_Judi_Dench.png","P_F_tehresy_may.png","FALSE","pictures/stimuli/E","pictures/stimuli/P","F","F","5","571b3de05d40840013c49f3a","05/04/2022, 10:14:16",0.779098747945323,"33","Female","left",0,1,0,0,FALSE,"E_F_Judi_Dench.png P_F_tehresy_may.png"
4728,"E_F_angelina_jolie.png","E_F_Kate_Winslet.png","TRUE","pictures/stimuli/E","pictures/stimuli/E","F","F","3","5950fb26ad2ce90001b87bc4","05/04/2022, 10:40:21",-0.352446911903384,"35","Female","right",0,0,0,0,FALSE,"E_F_angelina_jolie.png E_F_Kate_Winslet.png"
3940,"E_F_Kate_Winslet.png","E_M_nicolas_cage.png","TRUE","pictures/stimuli/E","pictures/stimuli/E","F","M","6","5950fb26ad2ce90001b87bc4","05/04/2022, 10:40:21",1.39446386883513,"35","Female","right",0,1,0,0,FALSE,"E_F_Kate_Winslet.png E_M_nicolas_cage.png"
4080,"E_M_michael_caine.png","P_M_Tony_Blair.png","FALSE","pictures/stimuli/E","pictures/stimuli/P","M","M","2","5950fb26ad2ce90001b87bc4","05/04/2022, 10:40:21",-0.934750505482889,"35","Female","right",0,0,0,0,FALSE,"E_M_michael_caine.png P_M_Tony_Blair.png"
4282,"E_F_jennifer_aniston.png","E_F_Judi_Dench.png","TRUE","pictures/stimuli/E","pictures/stimuli/E","F","F","4","5950fb26ad2ce90001b87bc4","05/04/2022, 10:40:21",0.22985668167612,"35","Female","right",0,1,0,0,FALSE,"E_F_jennifer_aniston.png E_F_Judi_Dench.png"
5047,"E_F_angelina_jolie.png","P_F_tehresy_may.png","FALSE","pictures/stimuli/E","pictures/stimuli/P","F","F","3","5950fb26ad2ce90001b87bc4","05/04/2022, 10:40:21",-0.352446911903384,"35","Female","right",0,0,0,0,FALSE,"E_F_angelina_jolie.png P_F_tehresy_may.png"
4165,"E_F_keira_knightley.png","P_F_tehresy_may.png","FALSE","pictures/stimuli/E","pictures/stimuli/P","F","F","4","5950fb26ad2ce90001b87bc4","05/04/2022, 10:40:21",0.22985668167612,"35","Female","right",0,0,0,0,FALSE,"E_F_keira_knightley.png P_F_tehresy_may.png"
4794,"E_M_nicolas_cage.png","E_M_tom_hankes.png","TRUE","pictures/stimuli/E","pictures/stimuli/E","M","M","1","5950fb26ad2ce90001b87bc4","05/04/2022, 10:40:21",-1.51705409906239,"35","Female","right",1,1,0,0,FALSE,"E_M_nicolas_cage.png E_M_tom_hankes.png"
3422,"P_M_david_cameron.png","P_M_george_Wbush.png","TRUE","pictures/stimuli/P","pictures/stimuli/P","M","M","3","5950fb26ad2ce90001b87bc4","05/04/2022, 10:40:21",-0.352446911903384,"35","Female","right",0,0,0,0,FALSE,"P_M_david_cameron.png P_M_george_Wbush.png"
4752,"E_F_keira_knightley.png","E_M_Hugh_Grant.png","TRUE","pictures/stimuli/E","pictures/stimuli/E","F","M","5","5950fb26ad2ce90001b87bc4","05/04/2022, 10:40:21",0.812160275255625,"35","Female","right",0,0,0,0,FALSE,"E_F_keira_knightley.png E_M_Hugh_Grant.png"
3731,"E_M_Hugh_Grant.png","P_M_george_Wbush.png","FALSE","pictures/stimuli/E","pictures/stimuli/P","M","M","5","5950fb26ad2ce90001b87bc4","05/04/2022, 10:40:21",0.812160275255625,"35","Female","right",0,0,0,0,FALSE,"E_M_Hugh_Grant.png P_M_george_Wbush.png"
3236,"E_F_angelina_jolie.png","E_M_robert_de_niro.png","TRUE","pictures/stimuli/E","pictures/stimuli/E","F","M","6","5950fb26ad2ce90001b87bc4","05/04/2022, 10:40:21",1.39446386883513,"35","Female","right",0,0,0,0,FALSE,"E_F_angelina_jolie.png E_M_robert_de_niro.png"
4002,"E_M_robert_de_niro.png","E_M_tom_hankes.png","TRUE","pictures/stimuli/E","pictures/stimuli/E","M","M","3","5950fb26ad2ce90001b87bc4","05/04/2022, 10:40:21",-0.352446911903384,"35","Female","right",0,1,0,0,FALSE,"E_M_robert_de_niro.png E_M_tom_hankes.png"
4792,"E_M_michael_caine.png","P_M_george_Wbush.png","FALSE","pictures/stimuli/E","pictures/stimuli/P","M","M","6","5950fb26ad2ce90001b87bc4","05/04/2022, 10:40:21",1.39446386883513,"35","Female","right",0,0,0,0,FALSE,"E_M_michael_caine.png P_M_george_Wbush.png"
5370,"E_F_keira_knightley.png","E_F_sandra_bullock.png","TRUE","pictures/stimuli/E","pictures/stimuli/E","F","F","2","5950fb26ad2ce90001b87bc4","05/04/2022, 10:40:21",-0.934750505482889,"35","Female","right",0,0,0,0,FALSE,"E_F_keira_knightley.png E_F_sandra_bullock.png"
7432,"E_F_keira_knightley.png","P_M_Tony_Blair.png","FALSE","pictures/stimuli/E","pictures/stimuli/P","F","M","6","5950fb26ad2ce90001b87bc4","05/04/2022, 10:40:21",1.39446386883513,"35","Female","right",0,0,0,0,FALSE,"E_F_keira_knightley.png P_M_Tony_Blair.png"
4870,"E_F_sandra_bullock.png","P_F_tehresy_may.png","FALSE","pictures/stimuli/E","pictures/stimuli/P","F","F","6","5950fb26ad2ce90001b87bc4","05/04/2022, 10:40:21",1.39446386883513,"35","Female","right",0,0,0,0,FALSE,"E_F_sandra_bullock.png P_F_tehresy_may.png"
3608,"E_M_michael_caine.png","E_M_nicolas_cage.png","TRUE","pictures/stimuli/E","pictures/stimuli/E","M","M","3","5950fb26ad2ce90001b87bc4","05/04/2022, 10:40:21",-0.352446911903384,"35","Female","right",0,1,0,0,FALSE,"E_M_michael_caine.png E_M_nicolas_cage.png"
3903,"P_M_boris_johnson.png","P_M_george_Wbush.png","TRUE","pictures/stimuli/P","pictures/stimuli/P","M","M","4","5950fb26ad2ce90001b87bc4","05/04/2022, 10:40:21",0.22985668167612,"35","Female","right",1,0,0,0,FALSE,"P_M_boris_johnson.png P_M_george_Wbush.png"
3207,"E_M_Hugh_Grant.png","E_M_tom_hankes.png","TRUE","pictures/stimuli/E","pictures/stimuli/E","M","M","4","5950fb26ad2ce90001b87bc4","05/04/2022, 10:40:21",0.22985668167612,"35","Female","right",0,1,0,0,FALSE,"E_M_Hugh_Grant.png E_M_tom_hankes.png"
3405,"E_F_sandra_bullock.png","P_F_hillary_clinton.png","FALSE","pictures/stimuli/E","pictures/stimuli/P","F","F","5","5950fb26ad2ce90001b87bc4","05/04/2022, 10:40:21",0.812160275255625,"35","Female","right",0,0,0,0,FALSE,"E_F_sandra_bullock.png P_F_hillary_clinton.png"
4330,"E_F_Judi_Dench.png","E_F_keira_knightley.png","TRUE","pictures/stimuli/E","pictures/stimuli/E","F","F","4","5950fb26ad2ce90001b87bc4","05/04/2022, 10:40:21",0.22985668167612,"35","Female","right",1,0,0,0,FALSE,"E_F_Judi_Dench.png E_F_keira_knightley.png"
5499,"E_M_tom_hankes.png","P_M_donald_trump.png","FALSE","pictures/stimuli/E","pictures/stimuli/P","M","M","6","5950fb26ad2ce90001b87bc4","05/04/2022, 10:40:21",1.39446386883513,"35","Female","right",1,0,0,0,FALSE,"E_M_tom_hankes.png P_M_donald_trump.png"
3178,"E_F_Judi_Dench.png","P_M_david_cameron.png","FALSE","pictures/stimuli/E","pictures/stimuli/P","F","M","6","5950fb26ad2ce90001b87bc4","05/04/2022, 10:40:21",1.39446386883513,"35","Female","right",1,0,0,0,FALSE,"E_F_Judi_Dench.png P_M_david_cameron.png"
3708,"E_F_Kate_Winslet.png","P_M_george_Wbush.png","FALSE","pictures/stimuli/E","pictures/stimuli/P","F","M","6","5950fb26ad2ce90001b87bc4","05/04/2022, 10:40:21",1.39446386883513,"35","Female","right",0,0,0,0,FALSE,"E_F_Kate_Winslet.png P_M_george_Wbush.png"
3402,"E_F_sandra_bullock.png","P_M_Tony_Blair.png","FALSE","pictures/stimuli/E","pictures/stimuli/P","F","M","4","5950fb26ad2ce90001b87bc4","05/04/2022, 10:40:21",0.22985668167612,"35","Female","right",0,0,0,0,FALSE,"E_F_sandra_bullock.png P_M_Tony_Blair.png"
4020,"E_F_Kate_Winslet.png","P_M_donald_trump.png","FALSE","pictures/stimuli/E","pictures/stimuli/P","F","M","4","5950fb26ad2ce90001b87bc4","05/04/2022, 10:40:21",0.22985668167612,"35","Female","right",0,0,0,0,FALSE,"E_F_Kate_Winslet.png P_M_donald_trump.png"
3001,"P_F_hillary_clinton.png","P_M_george_Wbush.png","TRUE","pictures/stimuli/P","pictures/stimuli/P","F","M","6","5950fb26ad2ce90001b87bc4","05/04/2022, 10:40:21",1.39446386883513,"35","Female","right",0,0,0,0,FALSE,"P_F_hillary_clinton.png P_M_george_Wbush.png"
3003,"E_F_Kate_Winslet.png","E_M_robert_de_niro.png","TRUE","pictures/stimuli/E","pictures/stimuli/E","F","M","4","5950fb26ad2ce90001b87bc4","05/04/2022, 10:40:21",0.22985668167612,"35","Female","right",0,0,0,0,FALSE,"E_F_Kate_Winslet.png E_M_robert_de_niro.png"
5407,"E_F_angelina_jolie.png","P_F_nicola_sturgeon.png","FALSE","pictures/stimuli/E","pictures/stimuli/P","F","F","5","5950fb26ad2ce90001b87bc4","05/04/2022, 10:40:21",0.812160275255625,"35","Female","right",0,0,0,0,FALSE,"E_F_angelina_jolie.png P_F_nicola_sturgeon.png"
6123,"E_F_jennifer_aniston.png","E_F_keira_knightley.png","TRUE","pictures/stimuli/E","pictures/stimuli/E","F","F","5","5950fb26ad2ce90001b87bc4","05/04/2022, 10:40:21",0.812160275255625,"35","Female","right",0,0,0,0,FALSE,"E_F_jennifer_aniston.png E_F_keira_knightley.png"
4792,"E_M_michael_caine.png","P_F_tehresy_may.png","FALSE","pictures/stimuli/E","pictures/stimuli/P","M","F","5","5950fb26ad2ce90001b87bc4","05/04/2022, 10:40:21",0.812160275255625,"35","Female","right",0,0,0,0,FALSE,"E_M_michael_caine.png P_F_tehresy_may.png"
4478,"E_M_michael_caine.png","E_M_robert_de_niro.png","TRUE","pictures/stimuli/E","pictures/stimuli/E","M","M","3","5950fb26ad2ce90001b87bc4","05/04/2022, 10:40:21",-0.352446911903384,"35","Female","right",0,0,0,0,FALSE,"E_M_michael_caine.png E_M_robert_de_niro.png"
3813,"E_F_jennifer_aniston.png","P_M_bill_clinton.png","FALSE","pictures/stimuli/E","pictures/stimuli/P","F","M","4","5950fb26ad2ce90001b87bc4","05/04/2022, 10:40:21",0.22985668167612,"35","Female","right",0,0,0,0,FALSE,"E_F_jennifer_aniston.png P_M_bill_clinton.png"
3981,"P_F_hillary_clinton.png","P_M_boris_johnson.png","TRUE","pictures/stimuli/P","pictures/stimuli/P","F","M","5","5950fb26ad2ce90001b87bc4","05/04/2022, 10:40:21",0.812160275255625,"35","Female","right",0,1,0,0,FALSE,"P_F_hillary_clinton.png P_M_boris_johnson.png"
5464,"E_F_keira_knightley.png","E_M_nicolas_cage.png","TRUE","pictures/stimuli/E","pictures/stimuli/E","F","M","3","5950fb26ad2ce90001b87bc4","05/04/2022, 10:40:21",-0.352446911903384,"35","Female","right",0,1,0,0,FALSE,"E_F_keira_knightley.png E_M_nicolas_cage.png"
4479,"E_F_Judi_Dench.png","P_M_boris_johnson.png","FALSE","pictures/stimuli/E","pictures/stimuli/P","F","M","4","5950fb26ad2ce90001b87bc4","05/04/2022, 10:40:21",0.22985668167612,"35","Female","right",1,1,0,0,FALSE,"E_F_Judi_Dench.png P_M_boris_johnson.png"
4175,"E_F_angelina_jolie.png","P_M_donald_trump.png","FALSE","pictures/stimuli/E","pictures/stimuli/P","F","M","6","5950fb26ad2ce90001b87bc4","05/04/2022, 10:40:21",1.39446386883513,"35","Female","right",0,0,0,0,FALSE,"E_F_angelina_jolie.png P_M_donald_trump.png"
5047,"E_F_jennifer_aniston.png","P_F_nicola_sturgeon.png","FALSE","pictures/stimuli/E","pictures/stimuli/P","F","F","6","5950fb26ad2ce90001b87bc4","05/04/2022, 10:40:21",1.39446386883513,"35","Female","right",0,0,0,0,FALSE,"E_F_jennifer_aniston.png P_F_nicola_sturgeon.png"
3461,"E_F_keira_knightley.png","E_M_robert_de_niro.png","TRUE","pictures/stimuli/E","pictures/stimuli/E","F","M","3","5950fb26ad2ce90001b87bc4","05/04/2022, 10:40:21",-0.352446911903384,"35","Female","right",0,0,0,0,FALSE,"E_F_keira_knightley.png E_M_robert_de_niro.png"
3561,"P_F_nicola_sturgeon.png","P_M_Tony_Blair.png","TRUE","pictures/stimuli/P","pictures/stimuli/P","F","M","6","5950fb26ad2ce90001b87bc4","05/04/2022, 10:40:21",1.39446386883513,"35","Female","right",0,0,0,0,FALSE,"P_F_nicola_sturgeon.png P_M_Tony_Blair.png"
3262,"E_F_sandra_bullock.png","E_M_Hugh_Grant.png","TRUE","pictures/stimuli/E","pictures/stimuli/E","F","M","2","5950fb26ad2ce90001b87bc4","05/04/2022, 10:40:21",-0.934750505482889,"35","Female","right",0,0,0,0,FALSE,"E_F_sandra_bullock.png E_M_Hugh_Grant.png"
2981,"E_M_Hugh_Grant.png","E_M_robert_de_niro.png","TRUE","pictures/stimuli/E","pictures/stimuli/E","M","M","4","5950fb26ad2ce90001b87bc4","05/04/2022, 10:40:21",0.22985668167612,"35","Female","right",0,0,0,0,FALSE,"E_M_Hugh_Grant.png E_M_robert_de_niro.png"
4098,"E_M_michael_caine.png","E_M_tom_hankes.png","TRUE","pictures/stimuli/E","pictures/stimuli/E","M","M","5","5950fb26ad2ce90001b87bc4","05/04/2022, 10:40:21",0.812160275255625,"35","Female","right",0,1,0,0,FALSE,"E_M_michael_caine.png E_M_tom_hankes.png"
4144,"P_F_nicola_sturgeon.png","P_M_donald_trump.png","TRUE","pictures/stimuli/P","pictures/stimuli/P","F","M","4","5950fb26ad2ce90001b87bc4","05/04/2022, 10:40:21",0.22985668167612,"35","Female","right",0,0,0,0,FALSE,"P_F_nicola_sturgeon.png P_M_donald_trump.png"
4177,"E_M_tom_hankes.png","P_M_boris_johnson.png","FALSE","pictures/stimuli/E","pictures/stimuli/P","M","M","5","5950fb26ad2ce90001b87bc4","05/04/2022, 10:40:21",0.812160275255625,"35","Female","right",1,1,0,0,FALSE,"E_M_tom_hankes.png P_M_boris_johnson.png"
4043,"E_M_robert_de_niro.png","P_F_nicola_sturgeon.png","FALSE","pictures/stimuli/E","pictures/stimuli/P","M","F","6","5950fb26ad2ce90001b87bc4","05/04/2022, 10:40:21",1.39446386883513,"35","Female","right",0,0,0,0,FALSE,"E_M_robert_de_niro.png P_F_nicola_sturgeon.png"
3574,"E_M_Hugh_Grant.png","P_F_nicola_sturgeon.png","FALSE","pictures/stimuli/E","pictures/stimuli/P","M","F","3","5950fb26ad2ce90001b87bc4","05/04/2022, 10:40:21",-0.352446911903384,"35","Female","right",0,0,0,0,FALSE,"E_M_Hugh_Grant.png P_F_nicola_sturgeon.png"
3158,"E_F_Kate_Winslet.png","P_M_bill_clinton.png","FALSE","pictures/stimuli/E","pictures/stimuli/P","F","M","4","5950fb26ad2ce90001b87bc4","05/04/2022, 10:40:21",0.22985668167612,"35","Female","right",0,0,0,0,FALSE,"E_F_Kate_Winslet.png P_M_bill_clinton.png"
3014,"E_F_sandra_bullock.png","E_M_nicolas_cage.png","TRUE","pictures/stimuli/E","pictures/stimuli/E","F","M","3","5950fb26ad2ce90001b87bc4","05/04/2022, 10:40:21",-0.352446911903384,"35","Female","right",0,1,0,0,FALSE,"E_F_sandra_bullock.png E_M_nicolas_cage.png"
2962,"E_M_nicolas_cage.png","P_M_george_Wbush.png","FALSE","pictures/stimuli/E","pictures/stimuli/P","M","M","4","5950fb26ad2ce90001b87bc4","05/04/2022, 10:40:21",0.22985668167612,"35","Female","right",1,0,0,0,FALSE,"E_M_nicolas_cage.png P_M_george_Wbush.png"
3560,"E_F_sandra_bullock.png","E_M_michael_caine.png","TRUE","pictures/stimuli/E","pictures/stimuli/E","F","M","5","5950fb26ad2ce90001b87bc4","05/04/2022, 10:40:21",0.812160275255625,"35","Female","right",0,0,0,0,FALSE,"E_F_sandra_bullock.png E_M_michael_caine.png"
3245,"E_M_michael_caine.png","P_F_nicola_sturgeon.png","FALSE","pictures/stimuli/E","pictures/stimuli/P","M","F","5","5950fb26ad2ce90001b87bc4","05/04/2022, 10:40:21",0.812160275255625,"35","Female","right",0,0,0,0,FALSE,"E_M_michael_caine.png P_F_nicola_sturgeon.png"
4138,"E_F_Judi_Dench.png","P_M_bill_clinton.png","FALSE","pictures/stimuli/E","pictures/stimuli/P","F","M","4","5950fb26ad2ce90001b87bc4","05/04/2022, 10:40:21",0.22985668167612,"35","Female","right",1,0,0,0,FALSE,"E_F_Judi_Dench.png P_M_bill_clinton.png"
3467,"E_F_keira_knightley.png","P_M_donald_trump.png","FALSE","pictures/stimuli/E","pictures/stimuli/P","F","M","6","5950fb26ad2ce90001b87bc4","05/04/2022, 10:40:21",1.39446386883513,"35","Female","right",0,0,0,0,FALSE,"E_F_keira_knightley.png P_M_donald_trump.png"
4360,"E_M_robert_de_niro.png","P_M_Tony_Blair.png","FALSE","pictures/stimuli/E","pictures/stimuli/P","M","M","2","5950fb26ad2ce90001b87bc4","05/04/2022, 10:40:21",-0.934750505482889,"35","Female","right",0,0,0,0,FALSE,"E_M_robert_de_niro.png P_M_Tony_Blair.png"
2956,"E_F_sandra_bullock.png","E_M_robert_de_niro.png","TRUE","pictures/stimuli/E","pictures/stimuli/E","F","M","5","5950fb26ad2ce90001b87bc4","05/04/2022, 10:40:21",0.812160275255625,"35","Female","right",0,0,0,0,FALSE,"E_F_sandra_bullock.png E_M_robert_de_niro.png"
4048,"P_F_tehresy_may.png","P_M_david_cameron.png","TRUE","pictures/stimuli/P","pictures/stimuli/P","F","M","1","5950fb26ad2ce90001b87bc4","05/04/2022, 10:40:21",-1.51705409906239,"35","Female","right",0,0,0,0,FALSE,"P_F_tehresy_may.png P_M_david_cameron.png"
4147,"E_M_robert_de_niro.png","P_M_donald_trump.png","FALSE","pictures/stimuli/E","pictures/stimuli/P","M","M","4","5950fb26ad2ce90001b87bc4","05/04/2022, 10:40:21",0.22985668167612,"35","Female","right",0,0,0,0,FALSE,"E_M_robert_de_niro.png P_M_donald_trump.png"
3461,"E_F_angelina_jolie.png","E_F_Judi_Dench.png","TRUE","pictures/stimuli/E","pictures/stimuli/E","F","F","3","5950fb26ad2ce90001b87bc4","05/04/2022, 10:40:21",-0.352446911903384,"35","Female","right",0,1,0,0,FALSE,"E_F_angelina_jolie.png E_F_Judi_Dench.png"
3287,"E_M_nicolas_cage.png","P_M_Tony_Blair.png","FALSE","pictures/stimuli/E","pictures/stimuli/P","M","M","4","5950fb26ad2ce90001b87bc4","05/04/2022, 10:40:21",0.22985668167612,"35","Female","right",1,0,0,0,FALSE,"E_M_nicolas_cage.png P_M_Tony_Blair.png"
3421,"E_F_jennifer_aniston.png","P_F_tehresy_may.png","FALSE","pictures/stimuli/E","pictures/stimuli/P","F","F","4","5950fb26ad2ce90001b87bc4","05/04/2022, 10:40:21",0.22985668167612,"35","Female","right",0,0,0,0,FALSE,"E_F_jennifer_aniston.png P_F_tehresy_may.png"
2807,"E_F_Judi_Dench.png","E_M_tom_hankes.png","TRUE","pictures/stimuli/E","pictures/stimuli/E","F","M","2","5950fb26ad2ce90001b87bc4","05/04/2022, 10:40:21",-0.934750505482889,"35","Female","right",1,1,0,0,FALSE,"E_F_Judi_Dench.png E_M_tom_hankes.png"
3265,"E_F_Judi_Dench.png","E_M_michael_caine.png","TRUE","pictures/stimuli/E","pictures/stimuli/E","F","M","2","5950fb26ad2ce90001b87bc4","05/04/2022, 10:40:21",-0.934750505482889,"35","Female","right",1,0,0,0,FALSE,"E_F_Judi_Dench.png E_M_michael_caine.png"
4617,"E_F_Judi_Dench.png","P_F_tehresy_may.png","FALSE","pictures/stimuli/E","pictures/stimuli/P","F","F","3","5950fb26ad2ce90001b87bc4","05/04/2022, 10:40:21",-0.352446911903384,"35","Female","right",1,0,0,0,FALSE,"E_F_Judi_Dench.png P_F_tehresy_may.png"
6090,"E_F_angelina_jolie.png","P_M_Tony_Blair.png","FALSE","pictures/stimuli/E","pictures/stimuli/P","F","M","3","5950fb26ad2ce90001b87bc4","05/04/2022, 10:40:21",-0.352446911903384,"35","Female","right",0,0,0,0,FALSE,"E_F_angelina_jolie.png P_M_Tony_Blair.png"
5780,"E_F_jennifer_aniston.png","E_M_Hugh_Grant.png","TRUE","pictures/stimuli/E","pictures/stimuli/E","F","M","3","5950fb26ad2ce90001b87bc4","05/04/2022, 10:40:21",-0.352446911903384,"35","Female","right",0,0,0,0,FALSE,"E_F_jennifer_aniston.png E_M_Hugh_Grant.png"
3868,"P_F_hillary_clinton.png","P_F_nicola_sturgeon.png","TRUE","pictures/stimuli/P","pictures/stimuli/P","F","F","6","5950fb26ad2ce90001b87bc4","05/04/2022, 10:40:21",1.39446386883513,"35","Female","right",0,0,0,0,FALSE,"P_F_hillary_clinton.png P_F_nicola_sturgeon.png"
5730,"E_F_jennifer_aniston.png","E_M_robert_de_niro.png","TRUE","pictures/stimuli/E","pictures/stimuli/E","F","M","3","5950fb26ad2ce90001b87bc4","05/04/2022, 10:40:21",-0.352446911903384,"35","Female","right",0,0,0,0,FALSE,"E_F_jennifer_aniston.png E_M_robert_de_niro.png"
5077,"E_F_keira_knightley.png","E_M_michael_caine.png","TRUE","pictures/stimuli/E","pictures/stimuli/E","F","M","3","5950fb26ad2ce90001b87bc4","05/04/2022, 10:40:21",-0.352446911903384,"35","Female","right",0,0,0,0,FALSE,"E_F_keira_knightley.png E_M_michael_caine.png"
3011,"E_F_jennifer_aniston.png","E_M_tom_hankes.png","TRUE","pictures/stimuli/E","pictures/stimuli/E","F","M","2","5950fb26ad2ce90001b87bc4","05/04/2022, 10:40:21",-0.934750505482889,"35","Female","right",0,1,0,0,FALSE,"E_F_jennifer_aniston.png E_M_tom_hankes.png"
3357,"E_F_Kate_Winslet.png","P_M_boris_johnson.png","FALSE","pictures/stimuli/E","pictures/stimuli/P","F","M","2","5950fb26ad2ce90001b87bc4","05/04/2022, 10:40:21",-0.934750505482889,"35","Female","right",0,1,0,0,FALSE,"E_F_Kate_Winslet.png P_M_boris_johnson.png"
4439,"E_F_Judi_Dench.png","P_F_hillary_clinton.png","FALSE","pictures/stimuli/E","pictures/stimuli/P","F","F","3","5950fb26ad2ce90001b87bc4","05/04/2022, 10:40:21",-0.352446911903384,"35","Female","right",1,0,0,0,FALSE,"E_F_Judi_Dench.png P_F_hillary_clinton.png"
3718,"E_M_tom_hankes.png","P_F_hillary_clinton.png","FALSE","pictures/stimuli/E","pictures/stimuli/P","M","F","2","5950fb26ad2ce90001b87bc4","05/04/2022, 10:40:21",-0.934750505482889,"35","Female","right",1,0,0,0,FALSE,"E_M_tom_hankes.png P_F_hillary_clinton.png"
3031,"E_F_angelina_jolie.png","P_M_george_Wbush.png","FALSE","pictures/stimuli/E","pictures/stimuli/P","F","M","4","5950fb26ad2ce90001b87bc4","05/04/2022, 10:40:21",0.22985668167612,"35","Female","right",0,0,0,0,FALSE,"E_F_angelina_jolie.png P_M_george_Wbush.png"
3248,"E_M_Hugh_Grant.png","P_M_boris_johnson.png","FALSE","pictures/stimuli/E","pictures/stimuli/P","M","M","2","5950fb26ad2ce90001b87bc4","05/04/2022, 10:40:21",-0.934750505482889,"35","Female","right",0,1,0,0,FALSE,"E_M_Hugh_Grant.png P_M_boris_johnson.png"
4259,"E_F_jennifer_aniston.png","P_M_george_Wbush.png","FALSE","pictures/stimuli/E","pictures/stimuli/P","F","M","4","5950fb26ad2ce90001b87bc4","05/04/2022, 10:40:21",0.22985668167612,"35","Female","right",0,0,0,0,FALSE,"E_F_jennifer_aniston.png P_M_george_Wbush.png"
3753,"P_F_nicola_sturgeon.png","P_M_bill_clinton.png","TRUE","pictures/stimuli/P","pictures/stimuli/P","F","M","1","5950fb26ad2ce90001b87bc4","05/04/2022, 10:40:21",-1.51705409906239,"35","Female","right",0,0,0,0,FALSE,"P_F_nicola_sturgeon.png P_M_bill_clinton.png"
3042,"E_F_Kate_Winslet.png","E_F_sandra_bullock.png","TRUE","pictures/stimuli/E","pictures/stimuli/E","F","F","3","5950fb26ad2ce90001b87bc4","05/04/2022, 10:40:21",-0.352446911903384,"35","Female","right",0,0,0,0,FALSE,"E_F_Kate_Winslet.png E_F_sandra_bullock.png"
5866,"P_M_bill_clinton.png","P_M_Tony_Blair.png","TRUE","pictures/stimuli/P","pictures/stimuli/P","M","M","1","5950fb26ad2ce90001b87bc4","05/04/2022, 10:40:21",-1.51705409906239,"35","Female","right",0,0,0,0,FALSE,"P_M_bill_clinton.png P_M_Tony_Blair.png"
3083,"E_M_Hugh_Grant.png","P_M_david_cameron.png","FALSE","pictures/stimuli/E","pictures/stimuli/P","M","M","1","5950fb26ad2ce90001b87bc4","05/04/2022, 10:40:21",-1.51705409906239,"35","Female","right",0,0,0,0,FALSE,"E_M_Hugh_Grant.png P_M_david_cameron.png"
5401,"P_F_hillary_clinton.png","P_F_tehresy_may.png","TRUE","pictures/stimuli/P","pictures/stimuli/P","F","F","2","5950fb26ad2ce90001b87bc4","05/04/2022, 10:40:21",-0.934750505482889,"35","Female","right",0,0,0,0,FALSE,"P_F_hillary_clinton.png P_F_tehresy_may.png"
3682,"P_F_hillary_clinton.png","P_M_donald_trump.png","TRUE","pictures/stimuli/P","pictures/stimuli/P","F","M","5","5950fb26ad2ce90001b87bc4","05/04/2022, 10:40:21",0.812160275255625,"35","Female","right",0,0,0,0,FALSE,"P_F_hillary_clinton.png P_M_donald_trump.png"
3305,"P_M_david_cameron.png","P_M_Tony_Blair.png","TRUE","pictures/stimuli/P","pictures/stimuli/P","M","M","6","5950fb26ad2ce90001b87bc4","05/04/2022, 10:40:21",1.39446386883513,"35","Female","right",0,0,0,0,FALSE,"P_M_david_cameron.png P_M_Tony_Blair.png"
3511,"E_F_jennifer_aniston.png","E_M_michael_caine.png","TRUE","pictures/stimuli/E","pictures/stimuli/E","F","M","3","5950fb26ad2ce90001b87bc4","05/04/2022, 10:40:21",-0.352446911903384,"35","Female","right",0,0,0,0,FALSE,"E_F_jennifer_aniston.png E_M_michael_caine.png"
2775,"E_M_nicolas_cage.png","P_F_tehresy_may.png","FALSE","pictures/stimuli/E","pictures/stimuli/P","M","F","1","5950fb26ad2ce90001b87bc4","05/04/2022, 10:40:21",-1.51705409906239,"35","Female","right",1,0,0,0,FALSE,"E_M_nicolas_cage.png P_F_tehresy_may.png"
3393,"E_M_robert_de_niro.png","P_M_george_Wbush.png","FALSE","pictures/stimuli/E","pictures/stimuli/P","M","M","1","5950fb26ad2ce90001b87bc4","05/04/2022, 10:40:21",-1.51705409906239,"35","Female","right",0,0,0,0,FALSE,"E_M_robert_de_niro.png P_M_george_Wbush.png"
5647,"P_M_bill_clinton.png","P_M_donald_trump.png","TRUE","pictures/stimuli/P","pictures/stimuli/P","M","M","4","5950fb26ad2ce90001b87bc4","05/04/2022, 10:40:21",0.22985668167612,"35","Female","right",0,0,0,0,FALSE,"P_M_bill_clinton.png P_M_donald_trump.png"
3040,"E_M_tom_hankes.png","P_F_nicola_sturgeon.png","FALSE","pictures/stimuli/E","pictures/stimuli/P","M","F","1","5950fb26ad2ce90001b87bc4","05/04/2022, 10:40:21",-1.51705409906239,"35","Female","right",1,0,0,0,FALSE,"E_M_tom_hankes.png P_F_nicola_sturgeon.png"
3267,"P_F_tehresy_may.png","P_M_Tony_Blair.png","TRUE","pictures/stimuli/P","pictures/stimuli/P","F","M","1","5950fb26ad2ce90001b87bc4","05/04/2022, 10:40:21",-1.51705409906239,"35","Female","right",0,0,0,0,FALSE,"P_F_tehresy_may.png P_M_Tony_Blair.png"
3099,"E_M_nicolas_cage.png","P_F_hillary_clinton.png","FALSE","pictures/stimuli/E","pictures/stimuli/P","M","F","3","5950fb26ad2ce90001b87bc4","05/04/2022, 10:40:21",-0.352446911903384,"35","Female","right",1,0,0,0,FALSE,"E_M_nicolas_cage.png P_F_hillary_clinton.png"
3678,"E_F_sandra_bullock.png","P_M_donald_trump.png","FALSE","pictures/stimuli/E","pictures/stimuli/P","F","M","5","5950fb26ad2ce90001b87bc4","05/04/2022, 10:40:21",0.812160275255625,"35","Female","right",0,0,0,0,FALSE,"E_F_sandra_bullock.png P_M_donald_trump.png"
5132,"E_F_sandra_bullock.png","P_M_david_cameron.png","FALSE","pictures/stimuli/E","pictures/stimuli/P","F","M","4","5950fb26ad2ce90001b87bc4","05/04/2022, 10:40:21",0.22985668167612,"35","Female","right",0,0,0,0,FALSE,"E_F_sandra_bullock.png P_M_david_cameron.png"
4049,"E_F_Judi_Dench.png","E_M_robert_de_niro.png","TRUE","pictures/stimuli/E","pictures/stimuli/E","F","M","1","5950fb26ad2ce90001b87bc4","05/04/2022, 10:40:21",-1.51705409906239,"35","Female","right",1,0,0,0,FALSE,"E_F_Judi_Dench.png E_M_robert_de_niro.png"
3431,"E_F_jennifer_aniston.png","P_M_boris_johnson.png","FALSE","pictures/stimuli/E","pictures/stimuli/P","F","M","2","5950fb26ad2ce90001b87bc4","05/04/2022, 10:40:21",-0.934750505482889,"35","Female","right",0,1,0,0,FALSE,"E_F_jennifer_aniston.png P_M_boris_johnson.png"
4343,"P_M_george_Wbush.png","P_M_Tony_Blair.png","TRUE","pictures/stimuli/P","pictures/stimuli/P","M","M","1","5950fb26ad2ce90001b87bc4","05/04/2022, 10:40:21",-1.51705409906239,"35","Female","right",0,0,0,0,FALSE,"P_M_george_Wbush.png P_M_Tony_Blair.png"
3520,"E_M_michael_caine.png","P_M_boris_johnson.png","FALSE","pictures/stimuli/E","pictures/stimuli/P","M","M","1","5950fb26ad2ce90001b87bc4","05/04/2022, 10:40:21",-1.51705409906239,"35","Female","right",0,1,0,0,FALSE,"E_M_michael_caine.png P_M_boris_johnson.png"
7404,"P_F_hillary_clinton.png","P_M_bill_clinton.png","TRUE","pictures/stimuli/P","pictures/stimuli/P","F","M","4","5950fb26ad2ce90001b87bc4","05/04/2022, 10:40:21",0.22985668167612,"35","Female","right",0,0,0,0,FALSE,"P_F_hillary_clinton.png P_M_bill_clinton.png"
2805,"E_M_Hugh_Grant.png","P_M_Tony_Blair.png","FALSE","pictures/stimuli/E","pictures/stimuli/P","M","M","1","5950fb26ad2ce90001b87bc4","05/04/2022, 10:40:21",-1.51705409906239,"35","Female","right",0,0,0,0,FALSE,"E_M_Hugh_Grant.png P_M_Tony_Blair.png"
3209,"E_F_Kate_Winslet.png","P_F_nicola_sturgeon.png","FALSE","pictures/stimuli/E","pictures/stimuli/P","F","F","4","5950fb26ad2ce90001b87bc4","05/04/2022, 10:40:21",0.22985668167612,"35","Female","right",0,0,0,0,FALSE,"E_F_Kate_Winslet.png P_F_nicola_sturgeon.png"
3929,"P_M_bill_clinton.png","P_M_george_Wbush.png","TRUE","pictures/stimuli/P","pictures/stimuli/P","M","M","4","5950fb26ad2ce90001b87bc4","05/04/2022, 10:40:21",0.22985668167612,"35","Female","right",0,0,0,0,FALSE,"P_M_bill_clinton.png P_M_george_Wbush.png"
6249,"E_M_michael_caine.png","P_M_donald_trump.png","FALSE","pictures/stimuli/E","pictures/stimuli/P","M","M","5","5950fb26ad2ce90001b87bc4","05/04/2022, 10:40:21",0.812160275255625,"35","Female","right",0,0,0,0,FALSE,"E_M_michael_caine.png P_M_donald_trump.png"
9864,"E_F_Judi_Dench.png","P_M_donald_trump.png","FALSE","pictures/stimuli/E","pictures/stimuli/P","F","M","6","5950fb26ad2ce90001b87bc4","05/04/2022, 10:40:21",1.39446386883513,"35","Female","right",1,0,0,0,FALSE,"E_F_Judi_Dench.png P_M_donald_trump.png"
4635,"P_F_tehresy_may.png","P_M_george_Wbush.png","TRUE","pictures/stimuli/P","pictures/stimuli/P","F","M","2","5950fb26ad2ce90001b87bc4","05/04/2022, 10:40:21",-0.934750505482889,"35","Female","right",0,0,0,0,FALSE,"P_F_tehresy_may.png P_M_george_Wbush.png"
15932,"E_M_Hugh_Grant.png","E_M_nicolas_cage.png","TRUE","pictures/stimuli/E","pictures/stimuli/E","M","M","2","5950fb26ad2ce90001b87bc4","05/04/2022, 10:40:21",-0.934750505482889,"35","Female","right",0,1,0,0,FALSE,"E_M_Hugh_Grant.png E_M_nicolas_cage.png"
7363,"E_F_keira_knightley.png","P_M_boris_johnson.png","FALSE","pictures/stimuli/E","pictures/stimuli/P","F","M","4","5950fb26ad2ce90001b87bc4","05/04/2022, 10:40:21",0.22985668167612,"35","Female","right",0,1,0,0,FALSE,"E_F_keira_knightley.png P_M_boris_johnson.png"
3460,"E_F_angelina_jolie.png","E_F_sandra_bullock.png","TRUE","pictures/stimuli/E","pictures/stimuli/E","F","F","2","5950fb26ad2ce90001b87bc4","05/04/2022, 10:40:21",-0.934750505482889,"35","Female","right",0,0,0,0,FALSE,"E_F_angelina_jolie.png E_F_sandra_bullock.png"
3443,"E_F_keira_knightley.png","P_F_hillary_clinton.png","FALSE","pictures/stimuli/E","pictures/stimuli/P","F","F","1","5950fb26ad2ce90001b87bc4","05/04/2022, 10:40:21",-1.51705409906239,"35","Female","right",0,0,0,0,FALSE,"E_F_keira_knightley.png P_F_hillary_clinton.png"
14464,"E_F_keira_knightley.png","P_F_nicola_sturgeon.png","FALSE","pictures/stimuli/E","pictures/stimuli/P","F","F","6","5950fb26ad2ce90001b87bc4","05/04/2022, 10:40:21",1.39446386883513,"35","Female","right",0,0,0,0,FALSE,"E_F_keira_knightley.png P_F_nicola_sturgeon.png"
3403,"E_M_robert_de_niro.png","P_M_bill_clinton.png","FALSE","pictures/stimuli/E","pictures/stimuli/P","M","M","4","5950fb26ad2ce90001b87bc4","05/04/2022, 10:40:21",0.22985668167612,"35","Female","right",0,0,0,0,FALSE,"E_M_robert_de_niro.png P_M_bill_clinton.png"
9862,"E_M_nicolas_cage.png","P_M_bill_clinton.png","FALSE","pictures/stimuli/E","pictures/stimuli/P","M","M","3","5950fb26ad2ce90001b87bc4","05/04/2022, 10:40:21",-0.352446911903384,"35","Female","right",1,0,0,0,FALSE,"E_M_nicolas_cage.png P_M_bill_clinton.png"
3033,"E_F_jennifer_aniston.png","P_M_david_cameron.png","FALSE","pictures/stimuli/E","pictures/stimuli/P","F","M","2","5950fb26ad2ce90001b87bc4","05/04/2022, 10:40:21",-0.934750505482889,"35","Female","right",0,0,0,0,FALSE,"E_F_jennifer_aniston.png P_M_david_cameron.png"
5834,"P_F_nicola_sturgeon.png","P_F_tehresy_may.png","TRUE","pictures/stimuli/P","pictures/stimuli/P","F","F","1","5950fb26ad2ce90001b87bc4","05/04/2022, 10:40:21",-1.51705409906239,"35","Female","right",0,0,0,0,FALSE,"P_F_nicola_sturgeon.png P_F_tehresy_may.png"
3256,"E_M_Hugh_Grant.png","P_F_hillary_clinton.png","FALSE","pictures/stimuli/E","pictures/stimuli/P","M","F","1","5950fb26ad2ce90001b87bc4","05/04/2022, 10:40:21",-1.51705409906239,"35","Female","right",0,0,0,0,FALSE,"E_M_Hugh_Grant.png P_F_hillary_clinton.png"
3733,"E_M_michael_caine.png","P_M_bill_clinton.png","FALSE","pictures/stimuli/E","pictures/stimuli/P","M","M","3","5950fb26ad2ce90001b87bc4","05/04/2022, 10:40:21",-0.352446911903384,"35","Female","right",0,0,0,0,FALSE,"E_M_michael_caine.png P_M_bill_clinton.png"
5465,"E_F_Kate_Winslet.png","P_F_tehresy_may.png","FALSE","pictures/stimuli/E","pictures/stimuli/P","F","F","4","5950fb26ad2ce90001b87bc4","05/04/2022, 10:40:21",0.22985668167612,"35","Female","right",0,0,0,0,FALSE,"E_F_Kate_Winslet.png P_F_tehresy_may.png"
3392,"E_F_angelina_jolie.png","P_F_hillary_clinton.png","FALSE","pictures/stimuli/E","pictures/stimuli/P","F","F","2","5950fb26ad2ce90001b87bc4","05/04/2022, 10:40:21",-0.934750505482889,"35","Female","right",0,0,0,0,FALSE,"E_F_angelina_jolie.png P_F_hillary_clinton.png"
2963,"E_M_robert_de_niro.png","P_M_david_cameron.png","FALSE","pictures/stimuli/E","pictures/stimuli/P","M","M","4","5950fb26ad2ce90001b87bc4","05/04/2022, 10:40:21",0.22985668167612,"35","Female","right",0,0,0,0,FALSE,"E_M_robert_de_niro.png P_M_david_cameron.png"
3422,"E_M_Hugh_Grant.png","P_M_bill_clinton.png","FALSE","pictures/stimuli/E","pictures/stimuli/P","M","M","1","5950fb26ad2ce90001b87bc4","05/04/2022, 10:40:21",-1.51705409906239,"35","Female","right",0,0,0,0,FALSE,"E_M_Hugh_Grant.png P_M_bill_clinton.png"
2897,"P_M_boris_johnson.png","P_M_donald_trump.png","TRUE","pictures/stimuli/P","pictures/stimuli/P","M","M","1","5950fb26ad2ce90001b87bc4","05/04/2022, 10:40:21",-1.51705409906239,"35","Female","right",1,0,0,0,FALSE,"P_M_boris_johnson.png P_M_donald_trump.png"
2463,"E_M_michael_caine.png","P_F_hillary_clinton.png","FALSE","pictures/stimuli/E","pictures/stimuli/P","M","F","1","5950fb26ad2ce90001b87bc4","05/04/2022, 10:40:21",-1.51705409906239,"35","Female","right",0,0,0,0,FALSE,"E_M_michael_caine.png P_F_hillary_clinton.png"
3219,"E_F_keira_knightley.png","E_M_tom_hankes.png","TRUE","pictures/stimuli/E","pictures/stimuli/E","F","M","3","5950fb26ad2ce90001b87bc4","05/04/2022, 10:40:21",-0.352446911903384,"35","Female","right",0,1,0,0,FALSE,"E_F_keira_knightley.png E_M_tom_hankes.png"
3891,"E_F_Kate_Winslet.png","E_F_keira_knightley.png","TRUE","pictures/stimuli/E","pictures/stimuli/E","F","F","1","5950fb26ad2ce90001b87bc4","05/04/2022, 10:40:21",-1.51705409906239,"35","Female","right",0,0,0,0,FALSE,"E_F_Kate_Winslet.png E_F_keira_knightley.png"
3335,"P_F_nicola_sturgeon.png","P_M_david_cameron.png","TRUE","pictures/stimuli/P","pictures/stimuli/P","F","M","1","5950fb26ad2ce90001b87bc4","05/04/2022, 10:40:21",-1.51705409906239,"35","Female","right",0,0,0,0,FALSE,"P_F_nicola_sturgeon.png P_M_david_cameron.png"
3637,"E_M_Hugh_Grant.png","E_M_michael_caine.png","TRUE","pictures/stimuli/E","pictures/stimuli/E","M","M","2","5950fb26ad2ce90001b87bc4","05/04/2022, 10:40:21",-0.934750505482889,"35","Female","right",0,0,0,0,FALSE,"E_M_Hugh_Grant.png E_M_michael_caine.png"
3639,"E_M_robert_de_niro.png","P_F_hillary_clinton.png","FALSE","pictures/stimuli/E","pictures/stimuli/P","M","F","2","5950fb26ad2ce90001b87bc4","05/04/2022, 10:40:21",-0.934750505482889,"35","Female","right",0,0,0,0,FALSE,"E_M_robert_de_niro.png P_F_hillary_clinton.png"
3431,"E_M_robert_de_niro.png","P_F_tehresy_may.png","FALSE","pictures/stimuli/E","pictures/stimuli/P","M","F","4","5950fb26ad2ce90001b87bc4","05/04/2022, 10:40:21",0.22985668167612,"35","Female","right",0,0,0,0,FALSE,"E_M_robert_de_niro.png P_F_tehresy_may.png"
3432,"E_F_jennifer_aniston.png","E_F_sandra_bullock.png","TRUE","pictures/stimuli/E","pictures/stimuli/E","F","F","3","5950fb26ad2ce90001b87bc4","05/04/2022, 10:40:21",-0.352446911903384,"35","Female","right",0,0,0,0,FALSE,"E_F_jennifer_aniston.png E_F_sandra_bullock.png"
3604,"E_F_Kate_Winslet.png","P_M_Tony_Blair.png","FALSE","pictures/stimuli/E","pictures/stimuli/P","F","M","3","5950fb26ad2ce90001b87bc4","05/04/2022, 10:40:21",-0.352446911903384,"35","Female","right",0,0,0,0,FALSE,"E_F_Kate_Winslet.png P_M_Tony_Blair.png"
3040,"P_F_tehresy_may.png","P_M_boris_johnson.png","TRUE","pictures/stimuli/P","pictures/stimuli/P","F","M","2","5950fb26ad2ce90001b87bc4","05/04/2022, 10:40:21",-0.934750505482889,"35","Female","right",0,1,0,0,FALSE,"P_F_tehresy_may.png P_M_boris_johnson.png"
2974,"E_F_Judi_Dench.png","P_F_nicola_sturgeon.png","FALSE","pictures/stimuli/E","pictures/stimuli/P","F","F","1","5950fb26ad2ce90001b87bc4","05/04/2022, 10:40:21",-1.51705409906239,"35","Female","right",1,0,0,0,FALSE,"E_F_Judi_Dench.png P_F_nicola_sturgeon.png"
2716,"E_M_Hugh_Grant.png","P_F_tehresy_may.png","FALSE","pictures/stimuli/E","pictures/stimuli/P","M","F","1","5950fb26ad2ce90001b87bc4","05/04/2022, 10:40:21",-1.51705409906239,"35","Female","right",0,0,0,0,FALSE,"E_M_Hugh_Grant.png P_F_tehresy_may.png"
4030,"E_M_tom_hankes.png","P_M_Tony_Blair.png","FALSE","pictures/stimuli/E","pictures/stimuli/P","M","M","6","5950fb26ad2ce90001b87bc4","05/04/2022, 10:40:21",1.39446386883513,"35","Female","right",1,0,0,0,FALSE,"E_M_tom_hankes.png P_M_Tony_Blair.png"
3388,"E_F_Judi_Dench.png","E_F_Kate_Winslet.png","TRUE","pictures/stimuli/E","pictures/stimuli/E","F","F","3","5950fb26ad2ce90001b87bc4","05/04/2022, 10:40:21",-0.352446911903384,"35","Female","right",1,0,0,0,FALSE,"E_F_Judi_Dench.png E_F_Kate_Winslet.png"
3246,"E_F_Kate_Winslet.png","E_M_michael_caine.png","TRUE","pictures/stimuli/E","pictures/stimuli/E","F","M","6","5950fb26ad2ce90001b87bc4","05/04/2022, 10:40:21",1.39446386883513,"35","Female","right",0,0,0,0,FALSE,"E_F_Kate_Winslet.png E_M_michael_caine.png"
3961,"E_F_jennifer_aniston.png","P_M_Tony_Blair.png","FALSE","pictures/stimuli/E","pictures/stimuli/P","F","M","4","5950fb26ad2ce90001b87bc4","05/04/2022, 10:40:21",0.22985668167612,"35","Female","right",0,0,0,0,FALSE,"E_F_jennifer_aniston.png P_M_Tony_Blair.png"
2844,"E_F_sandra_bullock.png","P_M_boris_johnson.png","FALSE","pictures/stimuli/E","pictures/stimuli/P","F","M","6","5950fb26ad2ce90001b87bc4","05/04/2022, 10:40:21",1.39446386883513,"35","Female","right",0,1,0,0,FALSE,"E_F_sandra_bullock.png P_M_boris_johnson.png"
3071,"P_F_nicola_sturgeon.png","P_M_boris_johnson.png","TRUE","pictures/stimuli/P","pictures/stimuli/P","F","M","1","5950fb26ad2ce90001b87bc4","05/04/2022, 10:40:21",-1.51705409906239,"35","Female","right",0,1,0,0,FALSE,"P_F_nicola_sturgeon.png P_M_boris_johnson.png"
4082,"E_F_keira_knightley.png","P_M_george_Wbush.png","FALSE","pictures/stimuli/E","pictures/stimuli/P","F","M","6","5950fb26ad2ce90001b87bc4","05/04/2022, 10:40:21",1.39446386883513,"35","Female","right",0,0,0,0,FALSE,"E_F_keira_knightley.png P_M_george_Wbush.png"
4907,"E_F_Judi_Dench.png","E_F_sandra_bullock.png","TRUE","pictures/stimuli/E","pictures/stimuli/E","F","F","5","5950fb26ad2ce90001b87bc4","05/04/2022, 10:40:21",0.812160275255625,"35","Female","right",1,0,0,0,FALSE,"E_F_Judi_Dench.png E_F_sandra_bullock.png"
4236,"P_F_tehresy_may.png","P_M_bill_clinton.png","TRUE","pictures/stimuli/P","pictures/stimuli/P","F","M","3","5950fb26ad2ce90001b87bc4","05/04/2022, 10:40:21",-0.352446911903384,"35","Female","right",0,0,0,0,FALSE,"P_F_tehresy_may.png P_M_bill_clinton.png"
3315,"P_M_boris_johnson.png","P_M_Tony_Blair.png","TRUE","pictures/stimuli/P","pictures/stimuli/P","M","M","6","5950fb26ad2ce90001b87bc4","05/04/2022, 10:40:21",1.39446386883513,"35","Female","right",1,0,0,0,FALSE,"P_M_boris_johnson.png P_M_Tony_Blair.png"
5017,"E_F_sandra_bullock.png","P_M_bill_clinton.png","FALSE","pictures/stimuli/E","pictures/stimuli/P","F","M","5","5950fb26ad2ce90001b87bc4","05/04/2022, 10:40:21",0.812160275255625,"35","Female","right",0,0,0,0,FALSE,"E_F_sandra_bullock.png P_M_bill_clinton.png"
4785,"E_F_angelina_jolie.png","P_M_bill_clinton.png","FALSE","pictures/stimuli/E","pictures/stimuli/P","F","M","5","5950fb26ad2ce90001b87bc4","05/04/2022, 10:40:21",0.812160275255625,"35","Female","right",0,0,0,0,FALSE,"E_F_angelina_jolie.png P_M_bill_clinton.png"
4095,"E_M_robert_de_niro.png","P_M_boris_johnson.png","FALSE","pictures/stimuli/E","pictures/stimuli/P","M","M","6","5950fb26ad2ce90001b87bc4","05/04/2022, 10:40:21",1.39446386883513,"35","Female","right",0,1,0,0,FALSE,"E_M_robert_de_niro.png P_M_boris_johnson.png"
3766,"E_F_angelina_jolie.png","E_M_tom_hankes.png","TRUE","pictures/stimuli/E","pictures/stimuli/E","F","M","3","5950fb26ad2ce90001b87bc4","05/04/2022, 10:40:21",-0.352446911903384,"35","Female","right",0,1,0,0,FALSE,"E_F_angelina_jolie.png E_M_tom_hankes.png"
2679,"E_M_nicolas_cage.png","P_M_david_cameron.png","FALSE","pictures/stimuli/E","pictures/stimuli/P","M","M","6","5950fb26ad2ce90001b87bc4","05/04/2022, 10:40:21",1.39446386883513,"35","Female","right",1,0,0,0,FALSE,"E_M_nicolas_cage.png P_M_david_cameron.png"
3044,"E_F_Kate_Winslet.png","P_F_hillary_clinton.png","FALSE","pictures/stimuli/E","pictures/stimuli/P","F","F","1","5950fb26ad2ce90001b87bc4","05/04/2022, 10:40:21",-1.51705409906239,"35","Female","right",0,0,0,0,FALSE,"E_F_Kate_Winslet.png P_F_hillary_clinton.png"
3536,"E_M_nicolas_cage.png","P_M_donald_trump.png","FALSE","pictures/stimuli/E","pictures/stimuli/P","M","M","6","5950fb26ad2ce90001b87bc4","05/04/2022, 10:40:21",1.39446386883513,"35","Female","right",1,0,0,0,FALSE,"E_M_nicolas_cage.png P_M_donald_trump.png"
4595,"E_F_angelina_jolie.png","E_F_jennifer_aniston.png","TRUE","pictures/stimuli/E","pictures/stimuli/E","F","F","6","5950fb26ad2ce90001b87bc4","05/04/2022, 10:40:21",1.39446386883513,"35","Female","right",0,0,0,0,FALSE,"E_F_angelina_jolie.png E_F_jennifer_aniston.png"
3376,"E_F_Judi_Dench.png","P_M_Tony_Blair.png","FALSE","pictures/stimuli/E","pictures/stimuli/P","F","M","2","5950fb26ad2ce90001b87bc4","05/04/2022, 10:40:21",-0.934750505482889,"35","Female","right",1,0,0,0,FALSE,"E_F_Judi_Dench.png P_M_Tony_Blair.png"
11983,"E_M_michael_caine.png","P_M_david_cameron.png","FALSE","pictures/stimuli/E","pictures/stimuli/P","M","M","5","5950fb26ad2ce90001b87bc4","05/04/2022, 10:40:21",0.812160275255625,"35","Female","right",0,0,0,0,FALSE,"E_M_michael_caine.png P_M_david_cameron.png"
5085,"E_M_tom_hankes.png","P_M_david_cameron.png","FALSE","pictures/stimuli/E","pictures/stimuli/P","M","M","5","5950fb26ad2ce90001b87bc4","05/04/2022, 10:40:21",0.812160275255625,"35","Female","right",1,0,0,0,FALSE,"E_M_tom_hankes.png P_M_david_cameron.png"
5652,"E_F_sandra_bullock.png","E_M_tom_hankes.png","TRUE","pictures/stimuli/E","pictures/stimuli/E","F","M","5","5950fb26ad2ce90001b87bc4","05/04/2022, 10:40:21",0.812160275255625,"35","Female","right",0,1,0,0,FALSE,"E_F_sandra_bullock.png E_M_tom_hankes.png"
4835,"E_F_Kate_Winslet.png","P_M_david_cameron.png","FALSE","pictures/stimuli/E","pictures/stimuli/P","F","M","5","5950fb26ad2ce90001b87bc4","05/04/2022, 10:40:21",0.812160275255625,"35","Female","right",0,0,0,0,FALSE,"E_F_Kate_Winslet.png P_M_david_cameron.png"
3713,"P_M_bill_clinton.png","P_M_boris_johnson.png","TRUE","pictures/stimuli/P","pictures/stimuli/P","M","M","4","5950fb26ad2ce90001b87bc4","05/04/2022, 10:40:21",0.22985668167612,"35","Female","right",0,1,0,0,FALSE,"P_M_bill_clinton.png P_M_boris_johnson.png"
2743,"P_F_hillary_clinton.png","P_M_Tony_Blair.png","TRUE","pictures/stimuli/P","pictures/stimuli/P","F","M","6","5950fb26ad2ce90001b87bc4","05/04/2022, 10:40:21",1.39446386883513,"35","Female","right",0,0,0,0,FALSE,"P_F_hillary_clinton.png P_M_Tony_Blair.png"
2268,"E_M_Hugh_Grant.png","P_M_donald_trump.png","FALSE","pictures/stimuli/E","pictures/stimuli/P","M","M","6","5950fb26ad2ce90001b87bc4","05/04/2022, 10:40:21",1.39446386883513,"35","Female","right",0,0,0,0,FALSE,"E_M_Hugh_Grant.png P_M_donald_trump.png"
2984,"E_F_keira_knightley.png","P_M_david_cameron.png","FALSE","pictures/stimuli/E","pictures/stimuli/P","F","M","6","5950fb26ad2ce90001b87bc4","05/04/2022, 10:40:21",1.39446386883513,"35","Female","right",0,0,0,0,FALSE,"E_F_keira_knightley.png P_M_david_cameron.png"
3000,"E_F_angelina_jolie.png","E_M_Hugh_Grant.png","TRUE","pictures/stimuli/E","pictures/stimuli/E","F","M","4","5950fb26ad2ce90001b87bc4","05/04/2022, 10:40:21",0.22985668167612,"35","Female","right",0,0,0,0,FALSE,"E_F_angelina_jolie.png E_M_Hugh_Grant.png"
3219,"P_F_hillary_clinton.png","P_M_david_cameron.png","TRUE","pictures/stimuli/P","pictures/stimuli/P","F","M","5","5950fb26ad2ce90001b87bc4","05/04/2022, 10:40:21",0.812160275255625,"35","Female","right",0,0,0,0,FALSE,"P_F_hillary_clinton.png P_M_david_cameron.png"
5022,"E_M_tom_hankes.png","P_M_george_Wbush.png","FALSE","pictures/stimuli/E","pictures/stimuli/P","M","M","4","5950fb26ad2ce90001b87bc4","05/04/2022, 10:40:21",0.22985668167612,"35","Female","right",1,0,0,0,FALSE,"E_M_tom_hankes.png P_M_george_Wbush.png"
4410,"E_M_nicolas_cage.png","P_F_nicola_sturgeon.png","FALSE","pictures/stimuli/E","pictures/stimuli/P","M","F","5","5950fb26ad2ce90001b87bc4","05/04/2022, 10:40:21",0.812160275255625,"35","Female","right",1,0,0,0,FALSE,"E_M_nicolas_cage.png P_F_nicola_sturgeon.png"
3238,"P_M_boris_johnson.png","P_M_david_cameron.png","TRUE","pictures/stimuli/P","pictures/stimuli/P","M","M","2","5950fb26ad2ce90001b87bc4","05/04/2022, 10:40:21",-0.934750505482889,"35","Female","right",1,0,0,0,FALSE,"P_M_boris_johnson.png P_M_david_cameron.png"
3423,"E_F_jennifer_aniston.png","E_F_Kate_Winslet.png","TRUE","pictures/stimuli/E","pictures/stimuli/E","F","F","4","5950fb26ad2ce90001b87bc4","05/04/2022, 10:40:21",0.22985668167612,"35","Female","right",0,0,0,0,FALSE,"E_F_jennifer_aniston.png E_F_Kate_Winslet.png"
6201,"P_F_tehresy_may.png","P_M_donald_trump.png","TRUE","pictures/stimuli/P","pictures/stimuli/P","F","M","6","5950fb26ad2ce90001b87bc4","05/04/2022, 10:40:21",1.39446386883513,"35","Female","right",0,0,0,0,FALSE,"P_F_tehresy_may.png P_M_donald_trump.png"
3370,"P_M_bill_clinton.png","P_M_david_cameron.png","TRUE","pictures/stimuli/P","pictures/stimuli/P","M","M","3","5950fb26ad2ce90001b87bc4","05/04/2022, 10:40:21",-0.352446911903384,"35","Female","right",0,0,0,0,FALSE,"P_M_bill_clinton.png P_M_david_cameron.png"
3050,"E_F_Judi_Dench.png","E_M_nicolas_cage.png","TRUE","pictures/stimuli/E","pictures/stimuli/E","F","M","2","5950fb26ad2ce90001b87bc4","05/04/2022, 10:40:21",-0.934750505482889,"35","Female","right",1,1,0,0,FALSE,"E_F_Judi_Dench.png E_M_nicolas_cage.png"
3834,"E_F_angelina_jolie.png","P_M_boris_johnson.png","FALSE","pictures/stimuli/E","pictures/stimuli/P","F","M","6","5950fb26ad2ce90001b87bc4","05/04/2022, 10:40:21",1.39446386883513,"35","Female","right",0,1,0,0,FALSE,"E_F_angelina_jolie.png P_M_boris_johnson.png"
2738,"E_F_jennifer_aniston.png","P_M_donald_trump.png","FALSE","pictures/stimuli/E","pictures/stimuli/P","F","M","6","5950fb26ad2ce90001b87bc4","05/04/2022, 10:40:21",1.39446386883513,"35","Female","right",0,0,0,0,FALSE,"E_F_jennifer_aniston.png P_M_donald_trump.png"
3757,"E_F_jennifer_aniston.png","E_M_nicolas_cage.png","TRUE","pictures/stimuli/E","pictures/stimuli/E","F","M","4","5950fb26ad2ce90001b87bc4","05/04/2022, 10:40:21",0.22985668167612,"35","Female","right",0,1,0,0,FALSE,"E_F_jennifer_aniston.png E_M_nicolas_cage.png"
3246,"E_F_Kate_Winslet.png","E_M_Hugh_Grant.png","TRUE","pictures/stimuli/E","pictures/stimuli/E","F","M","3","5950fb26ad2ce90001b87bc4","05/04/2022, 10:40:21",-0.352446911903384,"35","Female","right",0,0,0,0,FALSE,"E_F_Kate_Winslet.png E_M_Hugh_Grant.png"
3478,"E_M_nicolas_cage.png","P_M_boris_johnson.png","FALSE","pictures/stimuli/E","pictures/stimuli/P","M","M","6","5950fb26ad2ce90001b87bc4","05/04/2022, 10:40:21",1.39446386883513,"35","Female","right",1,1,0,0,FALSE,"E_M_nicolas_cage.png P_M_boris_johnson.png"
2868,"E_F_angelina_jolie.png","P_M_david_cameron.png","FALSE","pictures/stimuli/E","pictures/stimuli/P","F","M","6","5950fb26ad2ce90001b87bc4","05/04/2022, 10:40:21",1.39446386883513,"35","Female","right",0,0,0,0,FALSE,"E_F_angelina_jolie.png P_M_david_cameron.png"
3281,"E_M_tom_hankes.png","P_M_bill_clinton.png","FALSE","pictures/stimuli/E","pictures/stimuli/P","M","M","1","5950fb26ad2ce90001b87bc4","05/04/2022, 10:40:21",-1.51705409906239,"35","Female","right",1,0,0,0,FALSE,"E_M_tom_hankes.png P_M_bill_clinton.png"
3099,"E_F_angelina_jolie.png","E_M_nicolas_cage.png","TRUE","pictures/stimuli/E","pictures/stimuli/E","F","M","2","5950fb26ad2ce90001b87bc4","05/04/2022, 10:40:21",-0.934750505482889,"35","Female","right",0,1,0,0,FALSE,"E_F_angelina_jolie.png E_M_nicolas_cage.png"
3336,"E_F_angelina_jolie.png","E_M_michael_caine.png","TRUE","pictures/stimuli/E","pictures/stimuli/E","F","M","2","5950fb26ad2ce90001b87bc4","05/04/2022, 10:40:21",-0.934750505482889,"35","Female","right",0,0,0,0,FALSE,"E_F_angelina_jolie.png E_M_michael_caine.png"
3832,"E_F_Judi_Dench.png","E_M_Hugh_Grant.png","TRUE","pictures/stimuli/E","pictures/stimuli/E","F","M","2","5950fb26ad2ce90001b87bc4","05/04/2022, 10:40:21",-0.934750505482889,"35","Female","right",1,0,0,0,FALSE,"E_F_Judi_Dench.png E_M_Hugh_Grant.png"
4960,"P_F_nicola_sturgeon.png","P_M_george_Wbush.png","TRUE","pictures/stimuli/P","pictures/stimuli/P","F","M","2","5950fb26ad2ce90001b87bc4","05/04/2022, 10:40:21",-0.934750505482889,"35","Female","right",0,0,0,0,FALSE,"P_F_nicola_sturgeon.png P_M_george_Wbush.png"
3319,"E_F_jennifer_aniston.png","P_F_hillary_clinton.png","FALSE","pictures/stimuli/E","pictures/stimuli/P","F","F","1","5950fb26ad2ce90001b87bc4","05/04/2022, 10:40:21",-1.51705409906239,"35","Female","right",0,0,0,0,FALSE,"E_F_jennifer_aniston.png P_F_hillary_clinton.png"
3291,"E_M_nicolas_cage.png","E_M_robert_de_niro.png","TRUE","pictures/stimuli/E","pictures/stimuli/E","M","M","2","5950fb26ad2ce90001b87bc4","05/04/2022, 10:40:21",-0.934750505482889,"35","Female","right",1,0,0,0,FALSE,"E_M_nicolas_cage.png E_M_robert_de_niro.png"
4370,"E_F_angelina_jolie.png","E_F_keira_knightley.png","TRUE","pictures/stimuli/E","pictures/stimuli/E","F","F","1","5950fb26ad2ce90001b87bc4","05/04/2022, 10:40:21",-1.51705409906239,"35","Female","right",0,0,0,0,FALSE,"E_F_angelina_jolie.png E_F_keira_knightley.png"
3023,"E_F_keira_knightley.png","P_M_bill_clinton.png","FALSE","pictures/stimuli/E","pictures/stimuli/P","F","M","2","5950fb26ad2ce90001b87bc4","05/04/2022, 10:40:21",-0.934750505482889,"35","Female","right",0,0,0,0,FALSE,"E_F_keira_knightley.png P_M_bill_clinton.png"
4088,"E_F_Judi_Dench.png","P_M_george_Wbush.png","FALSE","pictures/stimuli/E","pictures/stimuli/P","F","M","5","5950fb26ad2ce90001b87bc4","05/04/2022, 10:40:21",0.812160275255625,"35","Female","right",1,0,0,0,FALSE,"E_F_Judi_Dench.png P_M_george_Wbush.png"
3346,"E_F_Kate_Winslet.png","E_M_tom_hankes.png","TRUE","pictures/stimuli/E","pictures/stimuli/E","F","M","3","5950fb26ad2ce90001b87bc4","05/04/2022, 10:40:21",-0.352446911903384,"35","Female","right",0,1,0,0,FALSE,"E_F_Kate_Winslet.png E_M_tom_hankes.png"
3764,"P_M_donald_trump.png","P_M_Tony_Blair.png","TRUE","pictures/stimuli/P","pictures/stimuli/P","M","M","3","5950fb26ad2ce90001b87bc4","05/04/2022, 10:40:21",-0.352446911903384,"35","Female","right",0,0,0,0,FALSE,"P_M_donald_trump.png P_M_Tony_Blair.png"
4178,"E_F_sandra_bullock.png","P_M_george_Wbush.png","FALSE","pictures/stimuli/E","pictures/stimuli/P","F","M","5","5950fb26ad2ce90001b87bc4","05/04/2022, 10:40:21",0.812160275255625,"35","Female","right",0,0,0,0,FALSE,"E_F_sandra_bullock.png P_M_george_Wbush.png"
2728,"E_F_sandra_bullock.png","P_F_nicola_sturgeon.png","FALSE","pictures/stimuli/E","pictures/stimuli/P","F","F","6","5950fb26ad2ce90001b87bc4","05/04/2022, 10:40:21",1.39446386883513,"35","Female","right",0,0,0,0,FALSE,"E_F_sandra_bullock.png P_F_nicola_sturgeon.png"
3551,"P_M_donald_trump.png","P_M_george_Wbush.png","TRUE","pictures/stimuli/P","pictures/stimuli/P","M","M","1","5950fb26ad2ce90001b87bc4","05/04/2022, 10:40:21",-1.51705409906239,"35","Female","right",0,0,0,0,FALSE,"P_M_donald_trump.png P_M_george_Wbush.png"
4094,"P_M_david_cameron.png","P_M_donald_trump.png","TRUE","pictures/stimuli/P","pictures/stimuli/P","M","M","6","5950fb26ad2ce90001b87bc4","05/04/2022, 10:40:21",1.39446386883513,"35","Female","right",0,0,0,0,FALSE,"P_M_david_cameron.png P_M_donald_trump.png"
