"RT","img_1","img_2","isSameProffesion","img1proffesion","img2proffesion","img1Gender","img2Gender","keyPressed","participant","time","pair","normlised_keyPress","age","gender","handedness","isFamiliar_img1","isFamiliar_img2","reject_trial","condition"
32077,"E_M_nicolas_cage.jpg","E_M_tom_hankes.jpg","TRUE","pictures/stimuli/E","pictures/stimuli/E","M","M","4","1","12345","E_M_nicolas_cage.jpg E_M_tom_hankes.jpg",-1.78622559405316,"33","Female","right",1,1,TRUE,"international/./visual_perception"
3417,"P_F_hillary_clinton.jpg","P_F_tehresy_may.jpg","TRUE","pictures/stimuli/P","pictures/stimuli/P","F","F","3","1","12345","P_F_hillary_clinton.jpg P_F_tehresy_may.jpg",-2.92892883604003,"33","Female","right",1,1,FALSE,"international/./visual_perception"
6223,"P_F_nicola_sturgeon.jpg","P_M_boris_johnson.jpg","TRUE","pictures/stimuli/P","pictures/stimuli/P","F","M","6","1","12345","P_F_nicola_sturgeon.jpg P_M_boris_johnson.jpg",0.499180889920579,"33","Female","right",1,1,FALSE,"international/./visual_perception"
3462,"E_M_michael_caine.jpg","P_F_hillary_clinton.jpg","FALSE","pictures/stimuli/E","pictures/stimuli/P","M","F","5","1","12345","E_M_michael_caine.jpg P_F_hillary_clinton.jpg",-0.643522352066289,"33","Female","right",1,1,FALSE,"international/./visual_perception"
4079,"P_F_tehresy_may.jpg","P_M_bill_clinton.jpg","TRUE","pictures/stimuli/P","pictures/stimuli/P","F","M","3","1","12345","P_F_tehresy_may.jpg P_M_bill_clinton.jpg",-2.92892883604003,"33","Female","right",1,1,FALSE,"international/./visual_perception"
2606,"E_F_Judi_Dench.jpg","E_F_sandra_bullock.jpg","TRUE","pictures/stimuli/E","pictures/stimuli/E","F","F","6","1","12345","E_F_Judi_Dench.jpg E_F_sandra_bullock.jpg",0.499180889920579,"33","Female","right",1,1,FALSE,"international/./visual_perception"
18791,"E_F_keira_knightley.jpg","E_M_tom_hankes.jpg","TRUE","pictures/stimuli/E","pictures/stimuli/E","F","M","6","1","12345","E_F_keira_knightley.jpg E_M_tom_hankes.jpg",0.499180889920579,"33","Female","right",1,1,FALSE,"international/./visual_perception"
3119,"P_F_tehresy_may.jpg","P_M_george_Wbush.jpg","TRUE","pictures/stimuli/P","pictures/stimuli/P","F","M","3","1","12345","P_F_tehresy_may.jpg P_M_george_Wbush.jpg",-2.92892883604003,"33","Female","right",1,1,FALSE,"international/./visual_perception"
5242,"E_M_michael_caine.jpg","P_M_boris_johnson.jpg","FALSE","pictures/stimuli/E","pictures/stimuli/P","M","M","5","1","12345","E_M_michael_caine.jpg P_M_boris_johnson.jpg",-0.643522352066289,"33","Female","right",1,1,FALSE,"international/./visual_perception"
1762,"E_F_keira_knightley.jpg","P_F_tehresy_may.jpg","FALSE","pictures/stimuli/E","pictures/stimuli/P","F","F","6","1","12345","E_F_keira_knightley.jpg P_F_tehresy_may.jpg",0.499180889920579,"33","Female","right",1,1,FALSE,"international/./visual_perception"
2305,"E_F_jennifer_aniston.jpg","P_M_Tony_Blair.jpg","FALSE","pictures/stimuli/E","pictures/stimuli/P","F","M","6","1","12345","E_F_jennifer_aniston.jpg P_M_Tony_Blair.jpg",0.499180889920579,"33","Female","right",1,1,FALSE,"international/./visual_perception"
6137,"E_M_michael_caine.jpg","P_M_george_Wbush.jpg","FALSE","pictures/stimuli/E","pictures/stimuli/P","M","M","4","1","12345","E_M_michael_caine.jpg P_M_george_Wbush.jpg",-1.78622559405316,"33","Female","right",1,1,FALSE,"international/./visual_perception"
2368,"E_F_angelina_jolie.jpg","E_F_Judi_Dench.jpg","TRUE","pictures/stimuli/E","pictures/stimuli/E","F","F","6","1","12345","E_F_angelina_jolie.jpg E_F_Judi_Dench.jpg",0.499180889920579,"33","Female","right",1,1,FALSE,"international/./visual_perception"
2991,"E_M_tom_hankes.jpg","P_M_george_Wbush.jpg","FALSE","pictures/stimuli/E","pictures/stimuli/P","M","M","3","1","12345","E_M_tom_hankes.jpg P_M_george_Wbush.jpg",-2.92892883604003,"33","Female","right",1,1,FALSE,"international/./visual_perception"
2031,"P_F_tehresy_may.jpg","P_M_david_cameron.jpg","TRUE","pictures/stimuli/P","pictures/stimuli/P","F","M","5","1","12345","P_F_tehresy_may.jpg P_M_david_cameron.jpg",-0.643522352066289,"33","Female","right",1,1,FALSE,"international/./visual_perception"
4159,"E_F_angelina_jolie.jpg","E_M_nicolas_cage.jpg","TRUE","pictures/stimuli/E","pictures/stimuli/E","F","M","6","1","12345","E_F_angelina_jolie.jpg E_M_nicolas_cage.jpg",0.499180889920579,"33","Female","right",1,1,FALSE,"international/./visual_perception"
3111,"E_M_Hugh_Grant.jpg","E_M_nicolas_cage.jpg","TRUE","pictures/stimuli/E","pictures/stimuli/E","M","M","5","1","12345","E_M_Hugh_Grant.jpg E_M_nicolas_cage.jpg",-0.643522352066289,"33","Female","right",1,1,FALSE,"international/./visual_perception"
8247,"E_F_sandra_bullock.jpg","P_F_tehresy_may.jpg","FALSE","pictures/stimuli/E","pictures/stimuli/P","F","F","6","1","12345","E_F_sandra_bullock.jpg P_F_tehresy_may.jpg",0.499180889920579,"33","Female","right",1,1,FALSE,"international/./visual_perception"
5126,"P_F_hillary_clinton.jpg","P_M_donald_trump.jpg","TRUE","pictures/stimuli/P","pictures/stimuli/P","F","M","6","1","12345","P_F_hillary_clinton.jpg P_M_donald_trump.jpg",0.499180889920579,"33","Female","right",1,1,FALSE,"international/./visual_perception"
1649,"E_F_keira_knightley.jpg","E_M_michael_caine.jpg","TRUE","pictures/stimuli/E","pictures/stimuli/E","F","M","6","1","12345","E_F_keira_knightley.jpg E_M_michael_caine.jpg",0.499180889920579,"33","Female","right",1,1,FALSE,"international/./visual_perception"
2431,"E_F_keira_knightley.jpg","P_F_nicola_sturgeon.jpg","FALSE","pictures/stimuli/E","pictures/stimuli/P","F","F","3","1","12345","E_F_keira_knightley.jpg P_F_nicola_sturgeon.jpg",-2.92892883604003,"33","Female","right",1,1,FALSE,"international/./visual_perception"
2247,"E_F_sandra_bullock.jpg","E_M_Hugh_Grant.jpg","TRUE","pictures/stimuli/E","pictures/stimuli/E","F","M","6","1","12345","E_F_sandra_bullock.jpg E_M_Hugh_Grant.jpg",0.499180889920579,"33","Female","right",1,1,FALSE,"international/./visual_perception"
2903,"E_F_keira_knightley.jpg","P_M_david_cameron.jpg","FALSE","pictures/stimuli/E","pictures/stimuli/P","F","M","6","1","12345","E_F_keira_knightley.jpg P_M_david_cameron.jpg",0.499180889920579,"33","Female","right",1,1,FALSE,"international/./visual_perception"
1652,"E_F_Kate_Winslet.jpg","E_M_robert_de_niro.jpg","TRUE","pictures/stimuli/E","pictures/stimuli/E","F","M","6","1","12345","E_F_Kate_Winslet.jpg E_M_robert_de_niro.jpg",0.499180889920579,"33","Female","right",1,1,FALSE,"international/./visual_perception"
13008,"P_F_tehresy_may.jpg","P_M_donald_trump.jpg","TRUE","pictures/stimuli/P","pictures/stimuli/P","F","M","4","1","12345","P_F_tehresy_may.jpg P_M_donald_trump.jpg",-1.78622559405316,"33","Female","right",1,1,FALSE,"international/./visual_perception"
1565,"E_M_robert_de_niro.jpg","P_M_donald_trump.jpg","FALSE","pictures/stimuli/E","pictures/stimuli/P","M","M","6","1","12345","E_M_robert_de_niro.jpg P_M_donald_trump.jpg",0.499180889920579,"33","Female","right",1,1,FALSE,"international/./visual_perception"
12376,"E_F_Kate_Winslet.jpg","E_M_nicolas_cage.jpg","TRUE","pictures/stimuli/E","pictures/stimuli/E","F","M","5","1","12345","E_F_Kate_Winslet.jpg E_M_nicolas_cage.jpg",-0.643522352066289,"33","Female","right",1,1,FALSE,"international/./visual_perception"
3190,"E_M_robert_de_niro.jpg","P_M_bill_clinton.jpg","FALSE","pictures/stimuli/E","pictures/stimuli/P","M","M","6","1","12345","E_M_robert_de_niro.jpg P_M_bill_clinton.jpg",0.499180889920579,"33","Female","right",1,1,FALSE,"international/./visual_perception"
5928,"P_M_boris_johnson.jpg","P_M_david_cameron.jpg","TRUE","pictures/stimuli/P","pictures/stimuli/P","M","M","6","1","12345","P_M_boris_johnson.jpg P_M_david_cameron.jpg",0.499180889920579,"33","Female","right",1,1,FALSE,"international/./visual_perception"
14578,"E_F_keira_knightley.jpg","P_M_boris_johnson.jpg","FALSE","pictures/stimuli/E","pictures/stimuli/P","F","M","6","1","12345","E_F_keira_knightley.jpg P_M_boris_johnson.jpg",0.499180889920579,"33","Female","right",1,1,FALSE,"international/./visual_perception"
5049,"E_F_Kate_Winslet.jpg","P_F_nicola_sturgeon.jpg","FALSE","pictures/stimuli/E","pictures/stimuli/P","F","F","5","1","12345","E_F_Kate_Winslet.jpg P_F_nicola_sturgeon.jpg",-0.643522352066289,"33","Female","right",1,1,FALSE,"international/./visual_perception"
16047,"P_M_boris_johnson.jpg","P_M_donald_trump.jpg","TRUE","pictures/stimuli/P","pictures/stimuli/P","M","M","4","1","12345","P_M_boris_johnson.jpg P_M_donald_trump.jpg",-1.78622559405316,"33","Female","right",1,1,FALSE,"international/./visual_perception"
1999,"E_F_keira_knightley.jpg","P_M_donald_trump.jpg","FALSE","pictures/stimuli/E","pictures/stimuli/P","F","M","6","1","12345","E_F_keira_knightley.jpg P_M_donald_trump.jpg",0.499180889920579,"33","Female","right",1,1,FALSE,"international/./visual_perception"
3966,"E_M_robert_de_niro.jpg","P_M_Tony_Blair.jpg","FALSE","pictures/stimuli/E","pictures/stimuli/P","M","M","6","1","12345","E_M_robert_de_niro.jpg P_M_Tony_Blair.jpg",0.499180889920579,"33","Female","right",1,1,FALSE,"international/./visual_perception"
3561,"E_F_Judi_Dench.jpg","P_M_donald_trump.jpg","FALSE","pictures/stimuli/E","pictures/stimuli/P","F","M","6","1","12345","E_F_Judi_Dench.jpg P_M_donald_trump.jpg",0.499180889920579,"33","Female","right",1,1,FALSE,"international/./visual_perception"
4077,"E_F_angelina_jolie.jpg","P_M_bill_clinton.jpg","FALSE","pictures/stimuli/E","pictures/stimuli/P","F","M","6","1","12345","E_F_angelina_jolie.jpg P_M_bill_clinton.jpg",0.499180889920579,"33","Female","right",1,1,FALSE,"international/./visual_perception"
2422,"E_M_robert_de_niro.jpg","P_M_david_cameron.jpg","FALSE","pictures/stimuli/E","pictures/stimuli/P","M","M","6","1","12345","E_M_robert_de_niro.jpg P_M_david_cameron.jpg",0.499180889920579,"33","Female","right",1,1,FALSE,"international/./visual_perception"
2247,"P_F_nicola_sturgeon.jpg","P_F_tehresy_may.jpg","TRUE","pictures/stimuli/P","pictures/stimuli/P","F","F","6","1","12345","P_F_nicola_sturgeon.jpg P_F_tehresy_may.jpg",0.499180889920579,"33","Female","right",1,1,FALSE,"international/./visual_perception"
2143,"E_M_tom_hankes.jpg","P_F_nicola_sturgeon.jpg","FALSE","pictures/stimuli/E","pictures/stimuli/P","M","F","6","1","12345","E_M_tom_hankes.jpg P_F_nicola_sturgeon.jpg",0.499180889920579,"33","Female","right",1,1,FALSE,"international/./visual_perception"
2559,"E_M_nicolas_cage.jpg","P_F_hillary_clinton.jpg","FALSE","pictures/stimuli/E","pictures/stimuli/P","M","F","6","1","12345","E_M_nicolas_cage.jpg P_F_hillary_clinton.jpg",0.499180889920579,"33","Female","right",1,1,FALSE,"international/./visual_perception"
3541,"P_F_hillary_clinton.jpg","P_M_Tony_Blair.jpg","TRUE","pictures/stimuli/P","pictures/stimuli/P","F","M","6","1","12345","P_F_hillary_clinton.jpg P_M_Tony_Blair.jpg",0.499180889920579,"33","Female","right",1,1,FALSE,"international/./visual_perception"
3167,"E_F_angelina_jolie.jpg","P_M_boris_johnson.jpg","FALSE","pictures/stimuli/E","pictures/stimuli/P","F","M","6","1","12345","E_F_angelina_jolie.jpg P_M_boris_johnson.jpg",0.499180889920579,"33","Female","right",1,1,FALSE,"international/./visual_perception"
3327,"P_M_donald_trump.jpg","P_M_Tony_Blair.jpg","TRUE","pictures/stimuli/P","pictures/stimuli/P","M","M","6","1","12345","P_M_donald_trump.jpg P_M_Tony_Blair.jpg",0.499180889920579,"33","Female","right",1,1,FALSE,"international/./visual_perception"
1551,"E_F_Kate_Winslet.jpg","P_M_donald_trump.jpg","FALSE","pictures/stimuli/E","pictures/stimuli/P","F","M","6","1","12345","E_F_Kate_Winslet.jpg P_M_donald_trump.jpg",0.499180889920579,"33","Female","right",1,1,FALSE,"international/./visual_perception"
3187,"E_M_robert_de_niro.jpg","E_M_tom_hankes.jpg","TRUE","pictures/stimuli/E","pictures/stimuli/E","M","M","6","1","12345","E_M_robert_de_niro.jpg E_M_tom_hankes.jpg",0.499180889920579,"33","Female","right",1,1,FALSE,"international/./visual_perception"
2031,"E_M_michael_caine.jpg","E_M_nicolas_cage.jpg","TRUE","pictures/stimuli/E","pictures/stimuli/E","M","M","6","1","12345","E_M_michael_caine.jpg E_M_nicolas_cage.jpg",0.499180889920579,"33","Female","right",1,1,FALSE,"international/./visual_perception"
4671,"P_M_bill_clinton.jpg","P_M_donald_trump.jpg","TRUE","pictures/stimuli/P","pictures/stimuli/P","M","M","6","1","12345","P_M_bill_clinton.jpg P_M_donald_trump.jpg",0.499180889920579,"33","Female","right",1,1,FALSE,"international/./visual_perception"
2679,"E_M_michael_caine.jpg","P_M_donald_trump.jpg","FALSE","pictures/stimuli/E","pictures/stimuli/P","M","M","4","1","12345","E_M_michael_caine.jpg P_M_donald_trump.jpg",-1.78622559405316,"33","Female","right",1,1,FALSE,"international/./visual_perception"
1655,"P_F_nicola_sturgeon.jpg","P_M_david_cameron.jpg","TRUE","pictures/stimuli/P","pictures/stimuli/P","F","M","6","1","12345","P_F_nicola_sturgeon.jpg P_M_david_cameron.jpg",0.499180889920579,"33","Female","right",1,1,FALSE,"international/./visual_perception"
1671,"E_F_Judi_Dench.jpg","P_F_nicola_sturgeon.jpg","FALSE","pictures/stimuli/E","pictures/stimuli/P","F","F","6","1","12345","E_F_Judi_Dench.jpg P_F_nicola_sturgeon.jpg",0.499180889920579,"33","Female","right",1,1,FALSE,"international/./visual_perception"
1482,"E_F_Judi_Dench.jpg","E_M_robert_de_niro.jpg","TRUE","pictures/stimuli/E","pictures/stimuli/E","F","M","6","1","12345","E_F_Judi_Dench.jpg E_M_robert_de_niro.jpg",0.499180889920579,"33","Female","right",1,1,FALSE,"international/./visual_perception"
3489,"E_M_robert_de_niro.jpg","P_F_nicola_sturgeon.jpg","FALSE","pictures/stimuli/E","pictures/stimuli/P","M","F","3","1","12345","E_M_robert_de_niro.jpg P_F_nicola_sturgeon.jpg",-2.92892883604003,"33","Female","right",1,1,FALSE,"international/./visual_perception"
1901,"E_F_sandra_bullock.jpg","P_M_boris_johnson.jpg","FALSE","pictures/stimuli/E","pictures/stimuli/P","F","M","6","1","12345","E_F_sandra_bullock.jpg P_M_boris_johnson.jpg",0.499180889920579,"33","Female","right",1,1,FALSE,"international/./visual_perception"
1726,"E_F_Judi_Dench.jpg","P_M_boris_johnson.jpg","FALSE","pictures/stimuli/E","pictures/stimuli/P","F","M","6","1","12345","E_F_Judi_Dench.jpg P_M_boris_johnson.jpg",0.499180889920579,"33","Female","right",1,1,FALSE,"international/./visual_perception"
1790,"E_F_jennifer_aniston.jpg","E_M_robert_de_niro.jpg","TRUE","pictures/stimuli/E","pictures/stimuli/E","F","M","6","1","12345","E_F_jennifer_aniston.jpg E_M_robert_de_niro.jpg",0.499180889920579,"33","Female","right",1,1,FALSE,"international/./visual_perception"
1864,"E_F_Kate_Winslet.jpg","E_F_sandra_bullock.jpg","TRUE","pictures/stimuli/E","pictures/stimuli/E","F","F","6","1","12345","E_F_Kate_Winslet.jpg E_F_sandra_bullock.jpg",0.499180889920579,"33","Female","right",1,1,FALSE,"international/./visual_perception"
1519,"E_F_sandra_bullock.jpg","P_M_Tony_Blair.jpg","FALSE","pictures/stimuli/E","pictures/stimuli/P","F","M","6","1","12345","E_F_sandra_bullock.jpg P_M_Tony_Blair.jpg",0.499180889920579,"33","Female","right",1,1,FALSE,"international/./visual_perception"
2311,"E_F_keira_knightley.jpg","E_M_nicolas_cage.jpg","TRUE","pictures/stimuli/E","pictures/stimuli/E","F","M","6","1","12345","E_F_keira_knightley.jpg E_M_nicolas_cage.jpg",0.499180889920579,"33","Female","right",1,1,FALSE,"international/./visual_perception"
1526,"E_F_sandra_bullock.jpg","P_F_hillary_clinton.jpg","FALSE","pictures/stimuli/E","pictures/stimuli/P","F","F","6","1","12345","E_F_sandra_bullock.jpg P_F_hillary_clinton.jpg",0.499180889920579,"33","Female","right",1,1,FALSE,"international/./visual_perception"
1407,"E_F_jennifer_aniston.jpg","P_M_donald_trump.jpg","FALSE","pictures/stimuli/E","pictures/stimuli/P","F","M","6","1","12345","E_F_jennifer_aniston.jpg P_M_donald_trump.jpg",0.499180889920579,"33","Female","right",1,1,FALSE,"international/./visual_perception"
1336,"P_M_david_cameron.jpg","P_M_Tony_Blair.jpg","TRUE","pictures/stimuli/P","pictures/stimuli/P","M","M","6","1","12345","P_M_david_cameron.jpg P_M_Tony_Blair.jpg",0.499180889920579,"33","Female","right",1,1,FALSE,"international/./visual_perception"
3142,"E_M_tom_hankes.jpg","P_M_bill_clinton.jpg","FALSE","pictures/stimuli/E","pictures/stimuli/P","M","M","5","1","12345","E_M_tom_hankes.jpg P_M_bill_clinton.jpg",-0.643522352066289,"33","Female","right",1,1,FALSE,"international/./visual_perception"
2335,"E_M_michael_caine.jpg","P_M_bill_clinton.jpg","FALSE","pictures/stimuli/E","pictures/stimuli/P","M","M","5","1","12345","E_M_michael_caine.jpg P_M_bill_clinton.jpg",-0.643522352066289,"33","Female","right",1,1,FALSE,"international/./visual_perception"
2527,"E_F_jennifer_aniston.jpg","E_M_michael_caine.jpg","TRUE","pictures/stimuli/E","pictures/stimuli/E","F","M","6","1","12345","E_F_jennifer_aniston.jpg E_M_michael_caine.jpg",0.499180889920579,"33","Female","right",1,1,FALSE,"international/./visual_perception"
3191,"P_F_hillary_clinton.jpg","P_M_boris_johnson.jpg","TRUE","pictures/stimuli/P","pictures/stimuli/P","F","M","5","1","12345","P_F_hillary_clinton.jpg P_M_boris_johnson.jpg",-0.643522352066289,"33","Female","right",1,1,FALSE,"international/./visual_perception"
3855,"E_M_nicolas_cage.jpg","P_M_bill_clinton.jpg","FALSE","pictures/stimuli/E","pictures/stimuli/P","M","M","6","1","12345","E_M_nicolas_cage.jpg P_M_bill_clinton.jpg",0.499180889920579,"33","Female","right",1,1,FALSE,"international/./visual_perception"
4374,"E_F_Kate_Winslet.jpg","P_M_david_cameron.jpg","FALSE","pictures/stimuli/E","pictures/stimuli/P","F","M","5","1","12345","E_F_Kate_Winslet.jpg P_M_david_cameron.jpg",-0.643522352066289,"33","Female","right",1,1,FALSE,"international/./visual_perception"
1647,"E_F_Kate_Winslet.jpg","E_M_michael_caine.jpg","TRUE","pictures/stimuli/E","pictures/stimuli/E","F","M","6","1","12345","E_F_Kate_Winslet.jpg E_M_michael_caine.jpg",0.499180889920579,"33","Female","right",1,1,FALSE,"international/./visual_perception"
2319,"E_F_jennifer_aniston.jpg","E_F_keira_knightley.jpg","TRUE","pictures/stimuli/E","pictures/stimuli/E","F","F","6","1","12345","E_F_jennifer_aniston.jpg E_F_keira_knightley.jpg",0.499180889920579,"33","Female","right",1,1,FALSE,"international/./visual_perception"
2623,"E_M_tom_hankes.jpg","P_M_donald_trump.jpg","FALSE","pictures/stimuli/E","pictures/stimuli/P","M","M","4","1","12345","E_M_tom_hankes.jpg P_M_donald_trump.jpg",-1.78622559405316,"33","Female","right",1,1,FALSE,"international/./visual_perception"
2174,"E_F_keira_knightley.jpg","P_M_bill_clinton.jpg","FALSE","pictures/stimuli/E","pictures/stimuli/P","F","M","6","1","12345","E_F_keira_knightley.jpg P_M_bill_clinton.jpg",0.499180889920579,"33","Female","right",1,1,FALSE,"international/./visual_perception"
4796,"E_F_sandra_bullock.jpg","E_M_tom_hankes.jpg","TRUE","pictures/stimuli/E","pictures/stimuli/E","F","M","6","1","12345","E_F_sandra_bullock.jpg E_M_tom_hankes.jpg",0.499180889920579,"33","Female","right",1,1,FALSE,"international/./visual_perception"
3065,"E_F_sandra_bullock.jpg","P_F_nicola_sturgeon.jpg","FALSE","pictures/stimuli/E","pictures/stimuli/P","F","F","3","1","12345","E_F_sandra_bullock.jpg P_F_nicola_sturgeon.jpg",-2.92892883604003,"33","Female","right",1,1,FALSE,"international/./visual_perception"
2073,"E_F_jennifer_aniston.jpg","P_M_david_cameron.jpg","FALSE","pictures/stimuli/E","pictures/stimuli/P","F","M","5","1","12345","E_F_jennifer_aniston.jpg P_M_david_cameron.jpg",-0.643522352066289,"33","Female","right",1,1,FALSE,"international/./visual_perception"
2308,"E_F_jennifer_aniston.jpg","E_M_nicolas_cage.jpg","TRUE","pictures/stimuli/E","pictures/stimuli/E","F","M","6","1","12345","E_F_jennifer_aniston.jpg E_M_nicolas_cage.jpg",0.499180889920579,"33","Female","right",1,1,FALSE,"international/./visual_perception"
2311,"E_M_tom_hankes.jpg","P_M_david_cameron.jpg","FALSE","pictures/stimuli/E","pictures/stimuli/P","M","M","4","1","12345","E_M_tom_hankes.jpg P_M_david_cameron.jpg",-1.78622559405316,"33","Female","right",1,1,FALSE,"international/./visual_perception"
1689,"E_F_sandra_bullock.jpg","P_M_david_cameron.jpg","FALSE","pictures/stimuli/E","pictures/stimuli/P","F","M","6","1","12345","E_F_sandra_bullock.jpg P_M_david_cameron.jpg",0.499180889920579,"33","Female","right",1,1,FALSE,"international/./visual_perception"
2389,"E_F_angelina_jolie.jpg","P_F_hillary_clinton.jpg","FALSE","pictures/stimuli/E","pictures/stimuli/P","F","F","6","1","12345","E_F_angelina_jolie.jpg P_F_hillary_clinton.jpg",0.499180889920579,"33","Female","right",1,1,FALSE,"international/./visual_perception"
1479,"E_M_Hugh_Grant.jpg","P_M_donald_trump.jpg","FALSE","pictures/stimuli/E","pictures/stimuli/P","M","M","6","1","12345","E_M_Hugh_Grant.jpg P_M_donald_trump.jpg",0.499180889920579,"33","Female","right",1,1,FALSE,"international/./visual_perception"
2503,"E_F_jennifer_aniston.jpg","E_F_Judi_Dench.jpg","TRUE","pictures/stimuli/E","pictures/stimuli/E","F","F","6","1","12345","E_F_jennifer_aniston.jpg E_F_Judi_Dench.jpg",0.499180889920579,"33","Female","right",1,1,FALSE,"international/./visual_perception"
2887,"P_F_hillary_clinton.jpg","P_M_bill_clinton.jpg","TRUE","pictures/stimuli/P","pictures/stimuli/P","F","M","4","1","12345","P_F_hillary_clinton.jpg P_M_bill_clinton.jpg",-1.78622559405316,"33","Female","right",1,1,FALSE,"international/./visual_perception"
5126,"P_F_nicola_sturgeon.jpg","P_M_george_Wbush.jpg","TRUE","pictures/stimuli/P","pictures/stimuli/P","F","M","5","1","12345","P_F_nicola_sturgeon.jpg P_M_george_Wbush.jpg",-0.643522352066289,"33","Female","right",1,1,FALSE,"international/./visual_perception"
1544,"E_M_nicolas_cage.jpg","P_F_nicola_sturgeon.jpg","FALSE","pictures/stimuli/E","pictures/stimuli/P","M","F","6","1","12345","E_M_nicolas_cage.jpg P_F_nicola_sturgeon.jpg",0.499180889920579,"33","Female","right",1,1,FALSE,"international/./visual_perception"
1714,"E_M_Hugh_Grant.jpg","P_M_george_Wbush.jpg","FALSE","pictures/stimuli/E","pictures/stimuli/P","M","M","6","1","12345","E_M_Hugh_Grant.jpg P_M_george_Wbush.jpg",0.499180889920579,"33","Female","right",1,1,FALSE,"international/./visual_perception"
1512,"E_F_jennifer_aniston.jpg","P_M_bill_clinton.jpg","FALSE","pictures/stimuli/E","pictures/stimuli/P","F","M","6","1","12345","E_F_jennifer_aniston.jpg P_M_bill_clinton.jpg",0.499180889920579,"33","Female","right",1,1,FALSE,"international/./visual_perception"
1474,"P_M_david_cameron.jpg","P_M_donald_trump.jpg","TRUE","pictures/stimuli/P","pictures/stimuli/P","M","M","6","1","12345","P_M_david_cameron.jpg P_M_donald_trump.jpg",0.499180889920579,"33","Female","right",1,1,FALSE,"international/./visual_perception"
1359,"E_F_angelina_jolie.jpg","P_M_donald_trump.jpg","FALSE","pictures/stimuli/E","pictures/stimuli/P","F","M","6","1","12345","E_F_angelina_jolie.jpg P_M_donald_trump.jpg",0.499180889920579,"33","Female","right",1,1,FALSE,"international/./visual_perception"
3647,"E_F_angelina_jolie.jpg","E_F_Kate_Winslet.jpg","TRUE","pictures/stimuli/E","pictures/stimuli/E","F","F","5","1","12345","E_F_angelina_jolie.jpg E_F_Kate_Winslet.jpg",-0.643522352066289,"33","Female","right",1,1,FALSE,"international/./visual_perception"
3447,"E_F_Judi_Dench.jpg","P_M_george_Wbush.jpg","FALSE","pictures/stimuli/E","pictures/stimuli/P","F","M","6","1","12345","E_F_Judi_Dench.jpg P_M_george_Wbush.jpg",0.499180889920579,"33","Female","right",1,1,FALSE,"international/./visual_perception"
1551,"E_F_angelina_jolie.jpg","E_M_michael_caine.jpg","TRUE","pictures/stimuli/E","pictures/stimuli/E","F","M","6","1","12345","E_F_angelina_jolie.jpg E_M_michael_caine.jpg",0.499180889920579,"33","Female","right",1,1,FALSE,"international/./visual_perception"
1831,"P_F_nicola_sturgeon.jpg","P_M_donald_trump.jpg","TRUE","pictures/stimuli/P","pictures/stimuli/P","F","M","6","1","12345","P_F_nicola_sturgeon.jpg P_M_donald_trump.jpg",0.499180889920579,"33","Female","right",1,1,FALSE,"international/./visual_perception"
2063,"E_F_Judi_Dench.jpg","P_M_Tony_Blair.jpg","FALSE","pictures/stimuli/E","pictures/stimuli/P","F","M","4","1","12345","E_F_Judi_Dench.jpg P_M_Tony_Blair.jpg",-1.78622559405316,"33","Female","right",1,1,FALSE,"international/./visual_perception"
1807,"E_F_angelina_jolie.jpg","P_F_nicola_sturgeon.jpg","FALSE","pictures/stimuli/E","pictures/stimuli/P","F","F","6","1","12345","E_F_angelina_jolie.jpg P_F_nicola_sturgeon.jpg",0.499180889920579,"33","Female","right",1,1,FALSE,"international/./visual_perception"
2278,"E_M_Hugh_Grant.jpg","P_M_david_cameron.jpg","FALSE","pictures/stimuli/E","pictures/stimuli/P","M","M","6","1","12345","E_M_Hugh_Grant.jpg P_M_david_cameron.jpg",0.499180889920579,"33","Female","right",1,1,FALSE,"international/./visual_perception"
2498,"E_F_keira_knightley.jpg","P_F_hillary_clinton.jpg","FALSE","pictures/stimuli/E","pictures/stimuli/P","F","F","6","1","12345","E_F_keira_knightley.jpg P_F_hillary_clinton.jpg",0.499180889920579,"33","Female","right",1,1,FALSE,"international/./visual_perception"
2382,"E_F_Judi_Dench.jpg","E_F_keira_knightley.jpg","TRUE","pictures/stimuli/E","pictures/stimuli/E","F","F","6","1","12345","E_F_Judi_Dench.jpg E_F_keira_knightley.jpg",0.499180889920579,"33","Female","right",1,1,FALSE,"international/./visual_perception"
1768,"E_F_angelina_jolie.jpg","E_M_tom_hankes.jpg","TRUE","pictures/stimuli/E","pictures/stimuli/E","F","M","6","1","12345","E_F_angelina_jolie.jpg E_M_tom_hankes.jpg",0.499180889920579,"33","Female","right",1,1,FALSE,"international/./visual_perception"
1559,"E_F_jennifer_aniston.jpg","P_M_boris_johnson.jpg","FALSE","pictures/stimuli/E","pictures/stimuli/P","F","M","6","1","12345","E_F_jennifer_aniston.jpg P_M_boris_johnson.jpg",0.499180889920579,"33","Female","right",1,1,FALSE,"international/./visual_perception"
2032,"E_M_tom_hankes.jpg","P_M_boris_johnson.jpg","FALSE","pictures/stimuli/E","pictures/stimuli/P","M","M","6","1","12345","E_M_tom_hankes.jpg P_M_boris_johnson.jpg",0.499180889920579,"33","Female","right",1,1,FALSE,"international/./visual_perception"
2789,"E_M_michael_caine.jpg","P_M_david_cameron.jpg","FALSE","pictures/stimuli/E","pictures/stimuli/P","M","M","6","1","12345","E_M_michael_caine.jpg P_M_david_cameron.jpg",0.499180889920579,"33","Female","right",1,1,FALSE,"international/./visual_perception"
2535,"E_M_Hugh_Grant.jpg","E_M_michael_caine.jpg","TRUE","pictures/stimuli/E","pictures/stimuli/E","M","M","6","1","12345","E_M_Hugh_Grant.jpg E_M_michael_caine.jpg",0.499180889920579,"33","Female","right",1,1,FALSE,"international/./visual_perception"
2919,"E_F_Judi_Dench.jpg","E_M_michael_caine.jpg","TRUE","pictures/stimuli/E","pictures/stimuli/E","F","M","6","1","12345","E_F_Judi_Dench.jpg E_M_michael_caine.jpg",0.499180889920579,"33","Female","right",1,1,FALSE,"international/./visual_perception"
2819,"P_M_david_cameron.jpg","P_M_george_Wbush.jpg","TRUE","pictures/stimuli/P","pictures/stimuli/P","M","M","5","1","12345","P_M_david_cameron.jpg P_M_george_Wbush.jpg",-0.643522352066289,"33","Female","right",1,1,FALSE,"international/./visual_perception"
1831,"P_F_nicola_sturgeon.jpg","P_M_Tony_Blair.jpg","TRUE","pictures/stimuli/P","pictures/stimuli/P","F","M","6","1","12345","P_F_nicola_sturgeon.jpg P_M_Tony_Blair.jpg",0.499180889920579,"33","Female","right",1,1,FALSE,"international/./visual_perception"
6215,"E_M_nicolas_cage.jpg","E_M_robert_de_niro.jpg","TRUE","pictures/stimuli/E","pictures/stimuli/E","M","M","4","1","12345","E_M_nicolas_cage.jpg E_M_robert_de_niro.jpg",-1.78622559405316,"33","Female","right",1,1,FALSE,"international/./visual_perception"
1958,"E_F_sandra_bullock.jpg","E_M_nicolas_cage.jpg","TRUE","pictures/stimuli/E","pictures/stimuli/E","F","M","6","1","12345","E_F_sandra_bullock.jpg E_M_nicolas_cage.jpg",0.499180889920579,"33","Female","right",1,1,FALSE,"international/./visual_perception"
3263,"P_M_bill_clinton.jpg","P_M_Tony_Blair.jpg","TRUE","pictures/stimuli/P","pictures/stimuli/P","M","M","5","1","12345","P_M_bill_clinton.jpg P_M_Tony_Blair.jpg",-0.643522352066289,"33","Female","right",1,1,FALSE,"international/./visual_perception"
1815,"E_F_Kate_Winslet.jpg","P_M_george_Wbush.jpg","FALSE","pictures/stimuli/E","pictures/stimuli/P","F","M","6","1","12345","E_F_Kate_Winslet.jpg P_M_george_Wbush.jpg",0.499180889920579,"33","Female","right",1,1,FALSE,"international/./visual_perception"
1471,"E_F_angelina_jolie.jpg","E_F_keira_knightley.jpg","TRUE","pictures/stimuli/E","pictures/stimuli/E","F","F","6","1","12345","E_F_angelina_jolie.jpg E_F_keira_knightley.jpg",0.499180889920579,"33","Female","right",1,1,FALSE,"international/./visual_perception"
2271,"E_F_jennifer_aniston.jpg","P_M_george_Wbush.jpg","FALSE","pictures/stimuli/E","pictures/stimuli/P","F","M","6","1","12345","E_F_jennifer_aniston.jpg P_M_george_Wbush.jpg",0.499180889920579,"33","Female","right",1,1,FALSE,"international/./visual_perception"
2606,"P_F_hillary_clinton.jpg","P_M_george_Wbush.jpg","TRUE","pictures/stimuli/P","pictures/stimuli/P","F","M","6","1","12345","P_F_hillary_clinton.jpg P_M_george_Wbush.jpg",0.499180889920579,"33","Female","right",1,1,FALSE,"international/./visual_perception"
1318,"E_F_keira_knightley.jpg","E_M_Hugh_Grant.jpg","TRUE","pictures/stimuli/E","pictures/stimuli/E","F","M","6","1","12345","E_F_keira_knightley.jpg E_M_Hugh_Grant.jpg",0.499180889920579,"33","Female","right",1,1,FALSE,"international/./visual_perception"
2567,"E_M_robert_de_niro.jpg","P_M_george_Wbush.jpg","FALSE","pictures/stimuli/E","pictures/stimuli/P","M","M","5","1","12345","E_M_robert_de_niro.jpg P_M_george_Wbush.jpg",-0.643522352066289,"33","Female","right",1,1,FALSE,"international/./visual_perception"
1381,"P_M_boris_johnson.jpg","P_M_george_Wbush.jpg","TRUE","pictures/stimuli/P","pictures/stimuli/P","M","M","6","1","12345","P_M_boris_johnson.jpg P_M_george_Wbush.jpg",0.499180889920579,"33","Female","right",1,1,FALSE,"international/./visual_perception"
1407,"E_F_angelina_jolie.jpg","P_M_george_Wbush.jpg","FALSE","pictures/stimuli/E","pictures/stimuli/P","F","M","6","1","12345","E_F_angelina_jolie.jpg P_M_george_Wbush.jpg",0.499180889920579,"33","Female","right",1,1,FALSE,"international/./visual_perception"
1847,"E_F_angelina_jolie.jpg","E_F_sandra_bullock.jpg","TRUE","pictures/stimuli/E","pictures/stimuli/E","F","F","6","1","12345","E_F_angelina_jolie.jpg E_F_sandra_bullock.jpg",0.499180889920579,"33","Female","right",1,1,FALSE,"international/./visual_perception"
1480,"E_M_nicolas_cage.jpg","P_M_donald_trump.jpg","FALSE","pictures/stimuli/E","pictures/stimuli/P","M","M","6","1","12345","E_M_nicolas_cage.jpg P_M_donald_trump.jpg",0.499180889920579,"33","Female","right",1,1,FALSE,"international/./visual_perception"
3831,"E_M_michael_caine.jpg","E_M_tom_hankes.jpg","TRUE","pictures/stimuli/E","pictures/stimuli/E","M","M","5","1","12345","E_M_michael_caine.jpg E_M_tom_hankes.jpg",-0.643522352066289,"33","Female","right",1,1,FALSE,"international/./visual_perception"
2166,"P_F_nicola_sturgeon.jpg","P_M_bill_clinton.jpg","TRUE","pictures/stimuli/P","pictures/stimuli/P","F","M","6","1","12345","P_F_nicola_sturgeon.jpg P_M_bill_clinton.jpg",0.499180889920579,"33","Female","right",1,1,FALSE,"international/./visual_perception"
2726,"E_M_tom_hankes.jpg","P_F_tehresy_may.jpg","FALSE","pictures/stimuli/E","pictures/stimuli/P","M","F","6","1","12345","E_M_tom_hankes.jpg P_F_tehresy_may.jpg",0.499180889920579,"33","Female","right",1,1,FALSE,"international/./visual_perception"
1511,"E_F_keira_knightley.jpg","P_M_Tony_Blair.jpg","FALSE","pictures/stimuli/E","pictures/stimuli/P","F","M","6","1","12345","E_F_keira_knightley.jpg P_M_Tony_Blair.jpg",0.499180889920579,"33","Female","right",1,1,FALSE,"international/./visual_perception"
1983,"E_F_Judi_Dench.jpg","P_M_david_cameron.jpg","FALSE","pictures/stimuli/E","pictures/stimuli/P","F","M","6","1","12345","E_F_Judi_Dench.jpg P_M_david_cameron.jpg",0.499180889920579,"33","Female","right",1,1,FALSE,"international/./visual_perception"
1892,"E_F_angelina_jolie.jpg","E_M_robert_de_niro.jpg","TRUE","pictures/stimuli/E","pictures/stimuli/E","F","M","6","1","12345","E_F_angelina_jolie.jpg E_M_robert_de_niro.jpg",0.499180889920579,"33","Female","right",1,1,FALSE,"international/./visual_perception"
2511,"E_M_michael_caine.jpg","P_F_tehresy_may.jpg","FALSE","pictures/stimuli/E","pictures/stimuli/P","M","F","6","1","12345","E_M_michael_caine.jpg P_F_tehresy_may.jpg",0.499180889920579,"33","Female","right",1,1,FALSE,"international/./visual_perception"
3383,"E_F_Kate_Winslet.jpg","E_M_tom_hankes.jpg","TRUE","pictures/stimuli/E","pictures/stimuli/E","F","M","6","1","12345","E_F_Kate_Winslet.jpg E_M_tom_hankes.jpg",0.499180889920579,"33","Female","right",1,1,FALSE,"international/./visual_perception"
2853,"E_F_angelina_jolie.jpg","E_F_jennifer_aniston.jpg","TRUE","pictures/stimuli/E","pictures/stimuli/E","F","F","6","1","12345","E_F_angelina_jolie.jpg E_F_jennifer_aniston.jpg",0.499180889920579,"33","Female","right",1,1,FALSE,"international/./visual_perception"
1421,"E_M_Hugh_Grant.jpg","P_M_bill_clinton.jpg","FALSE","pictures/stimuli/E","pictures/stimuli/P","M","M","6","1","12345","E_M_Hugh_Grant.jpg P_M_bill_clinton.jpg",0.499180889920579,"33","Female","right",1,1,FALSE,"international/./visual_perception"
3606,"E_F_Kate_Winslet.jpg","P_F_hillary_clinton.jpg","FALSE","pictures/stimuli/E","pictures/stimuli/P","F","F","4","1","12345","E_F_Kate_Winslet.jpg P_F_hillary_clinton.jpg",-1.78622559405316,"33","Female","right",1,1,FALSE,"international/./visual_perception"
2623,"E_M_tom_hankes.jpg","P_F_hillary_clinton.jpg","FALSE","pictures/stimuli/E","pictures/stimuli/P","M","F","5","1","12345","E_M_tom_hankes.jpg P_F_hillary_clinton.jpg",-0.643522352066289,"33","Female","right",1,1,FALSE,"international/./visual_perception"
1607,"P_M_boris_johnson.jpg","P_M_Tony_Blair.jpg","TRUE","pictures/stimuli/P","pictures/stimuli/P","M","M","6","1","12345","P_M_boris_johnson.jpg P_M_Tony_Blair.jpg",0.499180889920579,"33","Female","right",1,1,FALSE,"international/./visual_perception"
1335,"E_F_Kate_Winslet.jpg","P_F_tehresy_may.jpg","FALSE","pictures/stimuli/E","pictures/stimuli/P","F","F","6","1","12345","E_F_Kate_Winslet.jpg P_F_tehresy_may.jpg",0.499180889920579,"33","Female","right",1,1,FALSE,"international/./visual_perception"
1551,"E_F_jennifer_aniston.jpg","E_M_Hugh_Grant.jpg","TRUE","pictures/stimuli/E","pictures/stimuli/E","F","M","6","1","12345","E_F_jennifer_aniston.jpg E_M_Hugh_Grant.jpg",0.499180889920579,"33","Female","right",1,1,FALSE,"international/./visual_perception"
3135,"E_F_Kate_Winslet.jpg","P_M_bill_clinton.jpg","FALSE","pictures/stimuli/E","pictures/stimuli/P","F","M","6","1","12345","E_F_Kate_Winslet.jpg P_M_bill_clinton.jpg",0.499180889920579,"33","Female","right",1,1,FALSE,"international/./visual_perception"
2584,"E_F_Judi_Dench.jpg","P_F_tehresy_may.jpg","FALSE","pictures/stimuli/E","pictures/stimuli/P","F","F","3","1","12345","E_F_Judi_Dench.jpg P_F_tehresy_may.jpg",-2.92892883604003,"33","Female","right",1,1,FALSE,"international/./visual_perception"
1943,"E_M_nicolas_cage.jpg","P_M_Tony_Blair.jpg","FALSE","pictures/stimuli/E","pictures/stimuli/P","M","M","6","1","12345","E_M_nicolas_cage.jpg P_M_Tony_Blair.jpg",0.499180889920579,"33","Female","right",1,1,FALSE,"international/./visual_perception"
1262,"P_F_tehresy_may.jpg","P_M_boris_johnson.jpg","TRUE","pictures/stimuli/P","pictures/stimuli/P","F","M","6","1","12345","P_F_tehresy_may.jpg P_M_boris_johnson.jpg",0.499180889920579,"33","Female","right",1,1,FALSE,"international/./visual_perception"
1423,"E_F_angelina_jolie.jpg","E_M_Hugh_Grant.jpg","TRUE","pictures/stimuli/E","pictures/stimuli/E","F","M","6","1","12345","E_F_angelina_jolie.jpg E_M_Hugh_Grant.jpg",0.499180889920579,"33","Female","right",1,1,FALSE,"international/./visual_perception"
1184,"E_F_angelina_jolie.jpg","P_M_Tony_Blair.jpg","FALSE","pictures/stimuli/E","pictures/stimuli/P","F","M","6","1","12345","E_F_angelina_jolie.jpg P_M_Tony_Blair.jpg",0.499180889920579,"33","Female","right",1,1,FALSE,"international/./visual_perception"
1396,"E_M_robert_de_niro.jpg","P_F_tehresy_may.jpg","FALSE","pictures/stimuli/E","pictures/stimuli/P","M","F","6","1","12345","E_M_robert_de_niro.jpg P_F_tehresy_may.jpg",0.499180889920579,"33","Female","right",1,1,FALSE,"international/./visual_perception"
4367,"E_F_Judi_Dench.jpg","P_M_bill_clinton.jpg","FALSE","pictures/stimuli/E","pictures/stimuli/P","F","M","5","1","12345","E_F_Judi_Dench.jpg P_M_bill_clinton.jpg",-0.643522352066289,"33","Female","right",1,1,FALSE,"international/./visual_perception"
1375,"E_F_jennifer_aniston.jpg","E_F_sandra_bullock.jpg","TRUE","pictures/stimuli/E","pictures/stimuli/E","F","F","6","1","12345","E_F_jennifer_aniston.jpg E_F_sandra_bullock.jpg",0.499180889920579,"33","Female","right",1,1,FALSE,"international/./visual_perception"
2569,"E_M_Hugh_Grant.jpg","P_F_nicola_sturgeon.jpg","FALSE","pictures/stimuli/E","pictures/stimuli/P","M","F","6","1","12345","E_M_Hugh_Grant.jpg P_F_nicola_sturgeon.jpg",0.499180889920579,"33","Female","right",1,1,FALSE,"international/./visual_perception"
1531,"E_M_Hugh_Grant.jpg","E_M_tom_hankes.jpg","TRUE","pictures/stimuli/E","pictures/stimuli/E","M","M","6","1","12345","E_M_Hugh_Grant.jpg E_M_tom_hankes.jpg",0.499180889920579,"33","Female","right",1,1,FALSE,"international/./visual_perception"
3308,"E_M_tom_hankes.jpg","P_M_Tony_Blair.jpg","FALSE","pictures/stimuli/E","pictures/stimuli/P","M","M","5","1","12345","E_M_tom_hankes.jpg P_M_Tony_Blair.jpg",-0.643522352066289,"33","Female","right",1,1,FALSE,"international/./visual_perception"
3247,"P_M_bill_clinton.jpg","P_M_david_cameron.jpg","TRUE","pictures/stimuli/P","pictures/stimuli/P","M","M","6","1","12345","P_M_bill_clinton.jpg P_M_david_cameron.jpg",0.499180889920579,"33","Female","right",1,1,FALSE,"international/./visual_perception"
4962,"E_F_jennifer_aniston.jpg","P_F_nicola_sturgeon.jpg","FALSE","pictures/stimuli/E","pictures/stimuli/P","F","F","6","1","12345","E_F_jennifer_aniston.jpg P_F_nicola_sturgeon.jpg",0.499180889920579,"33","Female","right",1,1,FALSE,"international/./visual_perception"
3513,"E_F_Judi_Dench.jpg","E_M_Hugh_Grant.jpg","TRUE","pictures/stimuli/E","pictures/stimuli/E","F","M","6","1","12345","E_F_Judi_Dench.jpg E_M_Hugh_Grant.jpg",0.499180889920579,"33","Female","right",1,1,FALSE,"international/./visual_perception"
1495,"P_M_bill_clinton.jpg","P_M_boris_johnson.jpg","TRUE","pictures/stimuli/P","pictures/stimuli/P","M","M","6","1","12345","P_M_bill_clinton.jpg P_M_boris_johnson.jpg",0.499180889920579,"33","Female","right",1,1,FALSE,"international/./visual_perception"
1312,"E_M_Hugh_Grant.jpg","P_M_boris_johnson.jpg","FALSE","pictures/stimuli/E","pictures/stimuli/P","M","M","6","1","12345","E_M_Hugh_Grant.jpg P_M_boris_johnson.jpg",0.499180889920579,"33","Female","right",1,1,FALSE,"international/./visual_perception"
3022,"E_F_sandra_bullock.jpg","P_M_bill_clinton.jpg","FALSE","pictures/stimuli/E","pictures/stimuli/P","F","M","6","1","12345","E_F_sandra_bullock.jpg P_M_bill_clinton.jpg",0.499180889920579,"33","Female","right",1,1,FALSE,"international/./visual_perception"
2699,"E_F_sandra_bullock.jpg","E_M_robert_de_niro.jpg","TRUE","pictures/stimuli/E","pictures/stimuli/E","F","M","6","1","12345","E_F_sandra_bullock.jpg E_M_robert_de_niro.jpg",0.499180889920579,"33","Female","right",1,1,FALSE,"international/./visual_perception"
5895,"E_F_Judi_Dench.jpg","E_M_nicolas_cage.jpg","TRUE","pictures/stimuli/E","pictures/stimuli/E","F","M","6","1","12345","E_F_Judi_Dench.jpg E_M_nicolas_cage.jpg",0.499180889920579,"33","Female","right",1,1,FALSE,"international/./visual_perception"
1766,"P_F_hillary_clinton.jpg","P_F_nicola_sturgeon.jpg","TRUE","pictures/stimuli/P","pictures/stimuli/P","F","F","6","1","12345","P_F_hillary_clinton.jpg P_F_nicola_sturgeon.jpg",0.499180889920579,"33","Female","right",1,1,FALSE,"international/./visual_perception"
3032,"E_M_Hugh_Grant.jpg","P_F_tehresy_may.jpg","FALSE","pictures/stimuli/E","pictures/stimuli/P","M","F","6","1","12345","E_M_Hugh_Grant.jpg P_F_tehresy_may.jpg",0.499180889920579,"33","Female","right",1,1,FALSE,"international/./visual_perception"
1319,"E_M_robert_de_niro.jpg","P_F_hillary_clinton.jpg","FALSE","pictures/stimuli/E","pictures/stimuli/P","M","F","6","1","12345","E_M_robert_de_niro.jpg P_F_hillary_clinton.jpg",0.499180889920579,"33","Female","right",1,1,FALSE,"international/./visual_perception"
2299,"E_F_keira_knightley.jpg","E_M_robert_de_niro.jpg","TRUE","pictures/stimuli/E","pictures/stimuli/E","F","M","5","1","12345","E_F_keira_knightley.jpg E_M_robert_de_niro.jpg",-0.643522352066289,"33","Female","right",1,1,FALSE,"international/./visual_perception"
2143,"E_F_sandra_bullock.jpg","P_M_donald_trump.jpg","FALSE","pictures/stimuli/E","pictures/stimuli/P","F","M","6","1","12345","E_F_sandra_bullock.jpg P_M_donald_trump.jpg",0.499180889920579,"33","Female","right",1,1,FALSE,"international/./visual_perception"
2740,"E_M_Hugh_Grant.jpg","P_F_hillary_clinton.jpg","FALSE","pictures/stimuli/E","pictures/stimuli/P","M","F","6","1","12345","E_M_Hugh_Grant.jpg P_F_hillary_clinton.jpg",0.499180889920579,"33","Female","right",1,1,FALSE,"international/./visual_perception"
2607,"E_F_sandra_bullock.jpg","P_M_george_Wbush.jpg","FALSE","pictures/stimuli/E","pictures/stimuli/P","F","M","6","1","12345","E_F_sandra_bullock.jpg P_M_george_Wbush.jpg",0.499180889920579,"33","Female","right",1,1,FALSE,"international/./visual_perception"
6108,"E_M_nicolas_cage.jpg","P_M_david_cameron.jpg","FALSE","pictures/stimuli/E","pictures/stimuli/P","M","M","4","1","12345","E_M_nicolas_cage.jpg P_M_david_cameron.jpg",-1.78622559405316,"33","Female","right",1,1,FALSE,"international/./visual_perception"
2855,"E_F_jennifer_aniston.jpg","E_M_tom_hankes.jpg","TRUE","pictures/stimuli/E","pictures/stimuli/E","F","M","5","1","12345","E_F_jennifer_aniston.jpg E_M_tom_hankes.jpg",-0.643522352066289,"33","Female","right",1,1,FALSE,"international/./visual_perception"
2008,"E_M_nicolas_cage.jpg","P_M_boris_johnson.jpg","FALSE","pictures/stimuli/E","pictures/stimuli/P","M","M","6","1","12345","E_M_nicolas_cage.jpg P_M_boris_johnson.jpg",0.499180889920579,"33","Female","right",1,1,FALSE,"international/./visual_perception"
2112,"P_F_tehresy_may.jpg","P_M_Tony_Blair.jpg","TRUE","pictures/stimuli/P","pictures/stimuli/P","F","M","4","1","12345","P_F_tehresy_may.jpg P_M_Tony_Blair.jpg",-1.78622559405316,"33","Female","right",1,1,FALSE,"international/./visual_perception"
2483,"E_M_Hugh_Grant.jpg","P_M_Tony_Blair.jpg","FALSE","pictures/stimuli/E","pictures/stimuli/P","M","M","6","1","12345","E_M_Hugh_Grant.jpg P_M_Tony_Blair.jpg",0.499180889920579,"33","Female","right",1,1,FALSE,"international/./visual_perception"
1135,"E_F_Kate_Winslet.jpg","P_M_Tony_Blair.jpg","FALSE","pictures/stimuli/E","pictures/stimuli/P","F","M","6","1","12345","E_F_Kate_Winslet.jpg P_M_Tony_Blair.jpg",0.499180889920579,"33","Female","right",1,1,FALSE,"international/./visual_perception"
1825,"E_F_Kate_Winslet.jpg","E_M_Hugh_Grant.jpg","TRUE","pictures/stimuli/E","pictures/stimuli/E","F","M","6","1","12345","E_F_Kate_Winslet.jpg E_M_Hugh_Grant.jpg",0.499180889920579,"33","Female","right",1,1,FALSE,"international/./visual_perception"
2414,"E_M_michael_caine.jpg","P_M_Tony_Blair.jpg","FALSE","pictures/stimuli/E","pictures/stimuli/P","M","M","6","1","12345","E_M_michael_caine.jpg P_M_Tony_Blair.jpg",0.499180889920579,"33","Female","right",1,1,FALSE,"international/./visual_perception"
1975,"P_M_george_Wbush.jpg","P_M_Tony_Blair.jpg","TRUE","pictures/stimuli/P","pictures/stimuli/P","M","M","4","1","12345","P_M_george_Wbush.jpg P_M_Tony_Blair.jpg",-1.78622559405316,"33","Female","right",1,1,FALSE,"international/./visual_perception"
3711,"E_F_angelina_jolie.jpg","P_F_tehresy_may.jpg","FALSE","pictures/stimuli/E","pictures/stimuli/P","F","F","6","1","12345","E_F_angelina_jolie.jpg P_F_tehresy_may.jpg",0.499180889920579,"33","Female","right",1,1,FALSE,"international/./visual_perception"
13062,"E_F_sandra_bullock.jpg","E_M_michael_caine.jpg","TRUE","pictures/stimuli/E","pictures/stimuli/E","F","M","6","1","12345","E_F_sandra_bullock.jpg E_M_michael_caine.jpg",0.499180889920579,"33","Female","right",1,1,FALSE,"international/./visual_perception"
3199,"E_F_Kate_Winslet.jpg","P_M_boris_johnson.jpg","FALSE","pictures/stimuli/E","pictures/stimuli/P","F","M","6","1","12345","E_F_Kate_Winslet.jpg P_M_boris_johnson.jpg",0.499180889920579,"33","Female","right",1,1,FALSE,"international/./visual_perception"
4539,"P_F_hillary_clinton.jpg","P_M_david_cameron.jpg","TRUE","pictures/stimuli/P","pictures/stimuli/P","F","M","5","1","12345","P_F_hillary_clinton.jpg P_M_david_cameron.jpg",-0.643522352066289,"33","Female","right",1,1,FALSE,"international/./visual_perception"
3550,"E_M_nicolas_cage.jpg","P_F_tehresy_may.jpg","FALSE","pictures/stimuli/E","pictures/stimuli/P","M","F","6","1","12345","E_M_nicolas_cage.jpg P_F_tehresy_may.jpg",0.499180889920579,"33","Female","right",1,1,FALSE,"international/./visual_perception"
2284,"E_F_Judi_Dench.jpg","E_M_tom_hankes.jpg","TRUE","pictures/stimuli/E","pictures/stimuli/E","F","M","6","1","12345","E_F_Judi_Dench.jpg E_M_tom_hankes.jpg",0.499180889920579,"33","Female","right",1,1,FALSE,"international/./visual_perception"
2886,"E_F_Judi_Dench.jpg","P_F_hillary_clinton.jpg","FALSE","pictures/stimuli/E","pictures/stimuli/P","F","F","6","1","12345","E_F_Judi_Dench.jpg P_F_hillary_clinton.jpg",0.499180889920579,"33","Female","right",1,1,FALSE,"international/./visual_perception"
2719,"E_F_jennifer_aniston.jpg","E_F_Kate_Winslet.jpg","TRUE","pictures/stimuli/E","pictures/stimuli/E","F","F","4","1","12345","E_F_jennifer_aniston.jpg E_F_Kate_Winslet.jpg",-1.78622559405316,"33","Female","right",1,1,FALSE,"international/./visual_perception"
2255,"E_M_Hugh_Grant.jpg","E_M_robert_de_niro.jpg","TRUE","pictures/stimuli/E","pictures/stimuli/E","M","M","6","1","12345","E_M_Hugh_Grant.jpg E_M_robert_de_niro.jpg",0.499180889920579,"33","Female","right",1,1,FALSE,"international/./visual_perception"
5207,"E_F_keira_knightley.jpg","E_F_sandra_bullock.jpg","TRUE","pictures/stimuli/E","pictures/stimuli/E","F","F","1","1","12345","E_F_keira_knightley.jpg E_F_sandra_bullock.jpg",-5.21433532001376,"33","Female","right",1,1,FALSE,"international/./visual_perception"
1929,"E_F_keira_knightley.jpg","P_M_george_Wbush.jpg","FALSE","pictures/stimuli/E","pictures/stimuli/P","F","M","6","1","12345","E_F_keira_knightley.jpg P_M_george_Wbush.jpg",0.499180889920579,"33","Female","right",1,1,FALSE,"international/./visual_perception"
2296,"E_M_robert_de_niro.jpg","P_M_boris_johnson.jpg","FALSE","pictures/stimuli/E","pictures/stimuli/P","M","M","6","1","12345","E_M_robert_de_niro.jpg P_M_boris_johnson.jpg",0.499180889920579,"33","Female","right",1,1,FALSE,"international/./visual_perception"
1936,"E_M_michael_caine.jpg","P_F_nicola_sturgeon.jpg","FALSE","pictures/stimuli/E","pictures/stimuli/P","M","F","6","1","12345","E_M_michael_caine.jpg P_F_nicola_sturgeon.jpg",0.499180889920579,"33","Female","right",1,1,FALSE,"international/./visual_perception"
1759,"E_F_Kate_Winslet.jpg","E_F_keira_knightley.jpg","TRUE","pictures/stimuli/E","pictures/stimuli/E","F","F","6","1","12345","E_F_Kate_Winslet.jpg E_F_keira_knightley.jpg",0.499180889920579,"33","Female","right",1,1,FALSE,"international/./visual_perception"
1824,"E_F_Judi_Dench.jpg","E_F_Kate_Winslet.jpg","TRUE","pictures/stimuli/E","pictures/stimuli/E","F","F","6","1","12345","E_F_Judi_Dench.jpg E_F_Kate_Winslet.jpg",0.499180889920579,"33","Female","right",1,1,FALSE,"international/./visual_perception"
1527,"P_M_bill_clinton.jpg","P_M_george_Wbush.jpg","TRUE","pictures/stimuli/P","pictures/stimuli/P","M","M","6","1","12345","P_M_bill_clinton.jpg P_M_george_Wbush.jpg",0.499180889920579,"33","Female","right",1,1,FALSE,"international/./visual_perception"
1714,"E_M_michael_caine.jpg","E_M_robert_de_niro.jpg","TRUE","pictures/stimuli/E","pictures/stimuli/E","M","M","6","1","12345","E_M_michael_caine.jpg E_M_robert_de_niro.jpg",0.499180889920579,"33","Female","right",1,1,FALSE,"international/./visual_perception"
2190,"E_F_jennifer_aniston.jpg","P_F_hillary_clinton.jpg","FALSE","pictures/stimuli/E","pictures/stimuli/P","F","F","5","1","12345","E_F_jennifer_aniston.jpg P_F_hillary_clinton.jpg",-0.643522352066289,"33","Female","right",1,1,FALSE,"international/./visual_perception"
1150,"E_F_jennifer_aniston.jpg","P_F_tehresy_may.jpg","FALSE","pictures/stimuli/E","pictures/stimuli/P","F","F","6","1","12345","E_F_jennifer_aniston.jpg P_F_tehresy_may.jpg",0.499180889920579,"33","Female","right",1,1,FALSE,"international/./visual_perception"
1775,"P_M_donald_trump.jpg","P_M_george_Wbush.jpg","TRUE","pictures/stimuli/P","pictures/stimuli/P","M","M","6","1","12345","P_M_donald_trump.jpg P_M_george_Wbush.jpg",0.499180889920579,"33","Female","right",1,1,FALSE,"international/./visual_perception"
2159,"E_F_angelina_jolie.jpg","P_M_david_cameron.jpg","FALSE","pictures/stimuli/E","pictures/stimuli/P","F","M","6","1","12345","E_F_angelina_jolie.jpg P_M_david_cameron.jpg",0.499180889920579,"33","Female","right",1,1,FALSE,"international/./visual_perception"
1463,"E_M_nicolas_cage.jpg","P_M_george_Wbush.jpg","FALSE","pictures/stimuli/E","pictures/stimuli/P","M","M","6","1","12345","E_M_nicolas_cage.jpg P_M_george_Wbush.jpg",0.499180889920579,"33","Female","right",1,1,FALSE,"international/./visual_perception"
3380,"E_M_Hugh_Grant.jpg","P_F_tehresy_may.jpg","FALSE","pictures/stimuli/E","pictures/stimuli/P","M","F","6","2","12345","E_M_Hugh_Grant.jpg P_F_tehresy_may.jpg",0.803113498477221,"29","Female","right",1,1,FALSE,"international/./visual_perception"
2869,"E_M_nicolas_cage.jpg","E_M_robert_de_niro.jpg","TRUE","pictures/stimuli/E","pictures/stimuli/E","M","M","2","2","12345","E_M_nicolas_cage.jpg E_M_robert_de_niro.jpg",-1.06917563907704,"29","Female","right",1,0,TRUE,"international/./visual_perception"
3584,"P_F_hillary_clinton.jpg","P_M_Tony_Blair.jpg","TRUE","pictures/stimuli/P","pictures/stimuli/P","F","M","4","2","12345","P_F_hillary_clinton.jpg P_M_Tony_Blair.jpg",-0.133031070299908,"29","Female","right",1,1,FALSE,"international/./visual_perception"
2226,"E_F_jennifer_aniston.jpg","P_M_david_cameron.jpg","FALSE","pictures/stimuli/E","pictures/stimuli/P","F","M","6","2","12345","E_F_jennifer_aniston.jpg P_M_david_cameron.jpg",0.803113498477221,"29","Female","right",1,1,FALSE,"international/./visual_perception"
2264,"E_F_angelina_jolie.jpg","P_F_tehresy_may.jpg","FALSE","pictures/stimuli/E","pictures/stimuli/P","F","F","6","2","12345","E_F_angelina_jolie.jpg P_F_tehresy_may.jpg",0.803113498477221,"29","Female","right",1,1,FALSE,"international/./visual_perception"
2620,"E_M_michael_caine.jpg","E_M_nicolas_cage.jpg","TRUE","pictures/stimuli/E","pictures/stimuli/E","M","M","5","2","12345","E_M_michael_caine.jpg E_M_nicolas_cage.jpg",0.335041214088657,"29","Female","right",0,1,TRUE,"international/./visual_perception"
3022,"P_F_tehresy_may.jpg","P_M_bill_clinton.jpg","TRUE","pictures/stimuli/P","pictures/stimuli/P","F","M","2","2","12345","P_F_tehresy_may.jpg P_M_bill_clinton.jpg",-1.06917563907704,"29","Female","right",1,0,TRUE,"international/./visual_perception"
2382,"E_M_nicolas_cage.jpg","E_M_tom_hankes.jpg","TRUE","pictures/stimuli/E","pictures/stimuli/E","M","M","5","2","12345","E_M_nicolas_cage.jpg E_M_tom_hankes.jpg",0.335041214088657,"29","Female","right",1,1,FALSE,"international/./visual_perception"
2530,"E_M_nicolas_cage.jpg","P_F_hillary_clinton.jpg","FALSE","pictures/stimuli/E","pictures/stimuli/P","M","F","6","2","12345","E_M_nicolas_cage.jpg P_F_hillary_clinton.jpg",0.803113498477221,"29","Female","right",1,1,FALSE,"international/./visual_perception"
2076,"E_F_Kate_Winslet.jpg","P_M_Tony_Blair.jpg","FALSE","pictures/stimuli/E","pictures/stimuli/P","F","M","4","2","12345","E_F_Kate_Winslet.jpg P_M_Tony_Blair.jpg",-0.133031070299908,"29","Female","right",1,1,FALSE,"international/./visual_perception"
4502,"E_F_angelina_jolie.jpg","P_F_hillary_clinton.jpg","FALSE","pictures/stimuli/E","pictures/stimuli/P","F","F","3","2","12345","E_F_angelina_jolie.jpg P_F_hillary_clinton.jpg",-0.601103354688473,"29","Female","right",1,1,FALSE,"international/./visual_perception"
2551,"E_M_Hugh_Grant.jpg","E_M_nicolas_cage.jpg","TRUE","pictures/stimuli/E","pictures/stimuli/E","M","M","5","2","12345","E_M_Hugh_Grant.jpg E_M_nicolas_cage.jpg",0.335041214088657,"29","Female","right",1,1,FALSE,"international/./visual_perception"
3605,"E_F_Kate_Winslet.jpg","E_M_nicolas_cage.jpg","TRUE","pictures/stimuli/E","pictures/stimuli/E","F","M","6","2","12345","E_F_Kate_Winslet.jpg E_M_nicolas_cage.jpg",0.803113498477221,"29","Female","right",1,1,FALSE,"international/./visual_perception"
2267,"E_F_keira_knightley.jpg","P_F_tehresy_may.jpg","FALSE","pictures/stimuli/E","pictures/stimuli/P","F","F","6","2","12345","E_F_keira_knightley.jpg P_F_tehresy_may.jpg",0.803113498477221,"29","Female","right",1,1,FALSE,"international/./visual_perception"
2130,"E_F_Judi_Dench.jpg","P_M_david_cameron.jpg","FALSE","pictures/stimuli/E","pictures/stimuli/P","F","M","4","2","12345","E_F_Judi_Dench.jpg P_M_david_cameron.jpg",-0.133031070299908,"29","Female","right",1,1,FALSE,"international/./visual_perception"
3851,"E_F_keira_knightley.jpg","P_M_boris_johnson.jpg","FALSE","pictures/stimuli/E","pictures/stimuli/P","F","M","6","2","12345","E_F_keira_knightley.jpg P_M_boris_johnson.jpg",0.803113498477221,"29","Female","right",1,1,FALSE,"international/./visual_perception"
1866,"E_F_keira_knightley.jpg","E_M_nicolas_cage.jpg","TRUE","pictures/stimuli/E","pictures/stimuli/E","F","M","6","2","12345","E_F_keira_knightley.jpg E_M_nicolas_cage.jpg",0.803113498477221,"29","Female","right",1,1,FALSE,"international/./visual_perception"
1948,"E_M_tom_hankes.jpg","P_M_bill_clinton.jpg","FALSE","pictures/stimuli/E","pictures/stimuli/P","M","M","4","2","12345","E_M_tom_hankes.jpg P_M_bill_clinton.jpg",-0.133031070299908,"29","Female","right",1,0,TRUE,"international/./visual_perception"
1599,"E_M_Hugh_Grant.jpg","P_M_Tony_Blair.jpg","FALSE","pictures/stimuli/E","pictures/stimuli/P","M","M","6","2","12345","E_M_Hugh_Grant.jpg P_M_Tony_Blair.jpg",0.803113498477221,"29","Female","right",1,1,FALSE,"international/./visual_perception"
1671,"E_M_tom_hankes.jpg","P_F_tehresy_may.jpg","FALSE","pictures/stimuli/E","pictures/stimuli/P","M","F","6","2","12345","E_M_tom_hankes.jpg P_F_tehresy_may.jpg",0.803113498477221,"29","Female","right",1,1,FALSE,"international/./visual_perception"
2432,"E_F_Judi_Dench.jpg","P_F_tehresy_may.jpg","FALSE","pictures/stimuli/E","pictures/stimuli/P","F","F","3","2","12345","E_F_Judi_Dench.jpg P_F_tehresy_may.jpg",-0.601103354688473,"29","Female","right",1,1,FALSE,"international/./visual_perception"
1712,"E_F_keira_knightley.jpg","E_M_robert_de_niro.jpg","TRUE","pictures/stimuli/E","pictures/stimuli/E","F","M","6","2","12345","E_F_keira_knightley.jpg E_M_robert_de_niro.jpg",0.803113498477221,"29","Female","right",1,0,TRUE,"international/./visual_perception"
1267,"E_M_michael_caine.jpg","P_M_bill_clinton.jpg","FALSE","pictures/stimuli/E","pictures/stimuli/P","M","M","6","2","12345","E_M_michael_caine.jpg P_M_bill_clinton.jpg",0.803113498477221,"29","Female","right",0,0,TRUE,"international/./visual_perception"
2018,"E_M_Hugh_Grant.jpg","E_M_michael_caine.jpg","TRUE","pictures/stimuli/E","pictures/stimuli/E","M","M","6","2","12345","E_M_Hugh_Grant.jpg E_M_michael_caine.jpg",0.803113498477221,"29","Female","right",1,0,TRUE,"international/./visual_perception"
3481,"E_F_Judi_Dench.jpg","E_M_robert_de_niro.jpg","TRUE","pictures/stimuli/E","pictures/stimuli/E","F","M","6","2","12345","E_F_Judi_Dench.jpg E_M_robert_de_niro.jpg",0.803113498477221,"29","Female","right",1,0,TRUE,"international/./visual_perception"
1849,"P_M_george_Wbush.jpg","P_M_Tony_Blair.jpg","TRUE","pictures/stimuli/P","pictures/stimuli/P","M","M","2","2","12345","P_M_george_Wbush.jpg P_M_Tony_Blair.jpg",-1.06917563907704,"29","Female","right",1,1,FALSE,"international/./visual_perception"
1834,"E_M_Hugh_Grant.jpg","P_F_nicola_sturgeon.jpg","FALSE","pictures/stimuli/E","pictures/stimuli/P","M","F","5","2","12345","E_M_Hugh_Grant.jpg P_F_nicola_sturgeon.jpg",0.335041214088657,"29","Female","right",1,1,FALSE,"international/./visual_perception"
2250,"P_F_nicola_sturgeon.jpg","P_M_bill_clinton.jpg","TRUE","pictures/stimuli/P","pictures/stimuli/P","F","M","3","2","12345","P_F_nicola_sturgeon.jpg P_M_bill_clinton.jpg",-0.601103354688473,"29","Female","right",1,0,TRUE,"international/./visual_perception"
2302,"E_F_Kate_Winslet.jpg","E_M_tom_hankes.jpg","TRUE","pictures/stimuli/E","pictures/stimuli/E","F","M","6","2","12345","E_F_Kate_Winslet.jpg E_M_tom_hankes.jpg",0.803113498477221,"29","Female","right",1,1,FALSE,"international/./visual_perception"
1929,"E_F_jennifer_aniston.jpg","P_M_boris_johnson.jpg","FALSE","pictures/stimuli/E","pictures/stimuli/P","F","M","6","2","12345","E_F_jennifer_aniston.jpg P_M_boris_johnson.jpg",0.803113498477221,"29","Female","right",1,1,FALSE,"international/./visual_perception"
2044,"P_F_hillary_clinton.jpg","P_M_bill_clinton.jpg","TRUE","pictures/stimuli/P","pictures/stimuli/P","F","M","2","2","12345","P_F_hillary_clinton.jpg P_M_bill_clinton.jpg",-1.06917563907704,"29","Female","right",1,0,TRUE,"international/./visual_perception"
1907,"E_F_Kate_Winslet.jpg","E_F_keira_knightley.jpg","TRUE","pictures/stimuli/E","pictures/stimuli/E","F","F","2","2","12345","E_F_Kate_Winslet.jpg E_F_keira_knightley.jpg",-1.06917563907704,"29","Female","right",1,1,FALSE,"international/./visual_perception"
1349,"E_M_Hugh_Grant.jpg","P_M_donald_trump.jpg","FALSE","pictures/stimuli/E","pictures/stimuli/P","M","M","6","2","12345","E_M_Hugh_Grant.jpg P_M_donald_trump.jpg",0.803113498477221,"29","Female","right",1,1,FALSE,"international/./visual_perception"
1289,"E_F_sandra_bullock.jpg","E_M_nicolas_cage.jpg","TRUE","pictures/stimuli/E","pictures/stimuli/E","F","M","6","2","12345","E_F_sandra_bullock.jpg E_M_nicolas_cage.jpg",0.803113498477221,"29","Female","right",1,1,FALSE,"international/./visual_perception"
2240,"E_M_michael_caine.jpg","P_M_Tony_Blair.jpg","FALSE","pictures/stimuli/E","pictures/stimuli/P","M","M","2","2","12345","E_M_michael_caine.jpg P_M_Tony_Blair.jpg",-1.06917563907704,"29","Female","right",0,1,TRUE,"international/./visual_perception"
3326,"E_M_robert_de_niro.jpg","P_M_donald_trump.jpg","FALSE","pictures/stimuli/E","pictures/stimuli/P","M","M","6","2","12345","E_M_robert_de_niro.jpg P_M_donald_trump.jpg",0.803113498477221,"29","Female","right",0,1,TRUE,"international/./visual_perception"
1321,"E_F_keira_knightley.jpg","P_M_david_cameron.jpg","FALSE","pictures/stimuli/E","pictures/stimuli/P","F","M","6","2","12345","E_F_keira_knightley.jpg P_M_david_cameron.jpg",0.803113498477221,"29","Female","right",1,1,FALSE,"international/./visual_perception"
5995,"E_F_Kate_Winslet.jpg","P_F_tehresy_may.jpg","FALSE","pictures/stimuli/E","pictures/stimuli/P","F","F","6","2","12345","E_F_Kate_Winslet.jpg P_F_tehresy_may.jpg",0.803113498477221,"29","Female","right",1,1,FALSE,"international/./visual_perception"
2017,"E_M_tom_hankes.jpg","P_M_george_Wbush.jpg","FALSE","pictures/stimuli/E","pictures/stimuli/P","M","M","2","2","12345","E_M_tom_hankes.jpg P_M_george_Wbush.jpg",-1.06917563907704,"29","Female","right",1,1,FALSE,"international/./visual_perception"
5223,"E_F_Judi_Dench.jpg","E_M_michael_caine.jpg","TRUE","pictures/stimuli/E","pictures/stimuli/E","F","M","6","2","12345","E_F_Judi_Dench.jpg E_M_michael_caine.jpg",0.803113498477221,"29","Female","right",1,0,TRUE,"international/./visual_perception"
11566,"E_F_jennifer_aniston.jpg","E_F_Judi_Dench.jpg","TRUE","pictures/stimuli/E","pictures/stimuli/E","F","F","5","2","12345","E_F_jennifer_aniston.jpg E_F_Judi_Dench.jpg",0.335041214088657,"29","Female","right",1,1,FALSE,"international/./visual_perception"
2651,"E_M_michael_caine.jpg","P_M_george_Wbush.jpg","FALSE","pictures/stimuli/E","pictures/stimuli/P","M","M","3","2","12345","E_M_michael_caine.jpg P_M_george_Wbush.jpg",-0.601103354688473,"29","Female","right",0,1,TRUE,"international/./visual_perception"
2024,"E_F_angelina_jolie.jpg","E_F_keira_knightley.jpg","TRUE","pictures/stimuli/E","pictures/stimuli/E","F","F","2","2","12345","E_F_angelina_jolie.jpg E_F_keira_knightley.jpg",-1.06917563907704,"29","Female","right",1,1,FALSE,"international/./visual_perception"
1838,"E_M_michael_caine.jpg","P_M_boris_johnson.jpg","FALSE","pictures/stimuli/E","pictures/stimuli/P","M","M","2","2","12345","E_M_michael_caine.jpg P_M_boris_johnson.jpg",-1.06917563907704,"29","Female","right",0,1,TRUE,"international/./visual_perception"
2276,"P_M_david_cameron.jpg","P_M_Tony_Blair.jpg","TRUE","pictures/stimuli/P","pictures/stimuli/P","M","M","1","2","12345","P_M_david_cameron.jpg P_M_Tony_Blair.jpg",-1.5372479234656,"29","Female","right",1,1,FALSE,"international/./visual_perception"
2045,"P_F_hillary_clinton.jpg","P_M_donald_trump.jpg","TRUE","pictures/stimuli/P","pictures/stimuli/P","F","M","6","2","12345","P_F_hillary_clinton.jpg P_M_donald_trump.jpg",0.803113498477221,"29","Female","right",1,1,FALSE,"international/./visual_perception"
2015,"E_M_robert_de_niro.jpg","P_F_hillary_clinton.jpg","FALSE","pictures/stimuli/E","pictures/stimuli/P","M","F","6","2","12345","E_M_robert_de_niro.jpg P_F_hillary_clinton.jpg",0.803113498477221,"29","Female","right",0,1,TRUE,"international/./visual_perception"
1276,"E_F_keira_knightley.jpg","E_M_tom_hankes.jpg","TRUE","pictures/stimuli/E","pictures/stimuli/E","F","M","6","2","12345","E_F_keira_knightley.jpg E_M_tom_hankes.jpg",0.803113498477221,"29","Female","right",1,1,FALSE,"international/./visual_perception"
1359,"E_F_Kate_Winslet.jpg","P_M_david_cameron.jpg","FALSE","pictures/stimuli/E","pictures/stimuli/P","F","M","6","2","12345","E_F_Kate_Winslet.jpg P_M_david_cameron.jpg",0.803113498477221,"29","Female","right",1,1,FALSE,"international/./visual_perception"
1490,"P_F_tehresy_may.jpg","P_M_donald_trump.jpg","TRUE","pictures/stimuli/P","pictures/stimuli/P","F","M","6","2","12345","P_F_tehresy_may.jpg P_M_donald_trump.jpg",0.803113498477221,"29","Female","right",1,1,FALSE,"international/./visual_perception"
1427,"E_F_Kate_Winslet.jpg","E_F_sandra_bullock.jpg","TRUE","pictures/stimuli/E","pictures/stimuli/E","F","F","1","2","12345","E_F_Kate_Winslet.jpg E_F_sandra_bullock.jpg",-1.5372479234656,"29","Female","right",1,1,FALSE,"international/./visual_perception"
2135,"E_M_Hugh_Grant.jpg","P_M_george_Wbush.jpg","FALSE","pictures/stimuli/E","pictures/stimuli/P","M","M","6","2","12345","E_M_Hugh_Grant.jpg P_M_george_Wbush.jpg",0.803113498477221,"29","Female","right",1,1,FALSE,"international/./visual_perception"
1425,"P_F_hillary_clinton.jpg","P_F_nicola_sturgeon.jpg","TRUE","pictures/stimuli/P","pictures/stimuli/P","F","F","1","2","12345","P_F_hillary_clinton.jpg P_F_nicola_sturgeon.jpg",-1.5372479234656,"29","Female","right",1,1,FALSE,"international/./visual_perception"
1876,"P_F_tehresy_may.jpg","P_M_david_cameron.jpg","TRUE","pictures/stimuli/P","pictures/stimuli/P","F","M","6","2","12345","P_F_tehresy_may.jpg P_M_david_cameron.jpg",0.803113498477221,"29","Female","right",1,1,FALSE,"international/./visual_perception"
1594,"E_M_robert_de_niro.jpg","P_M_Tony_Blair.jpg","FALSE","pictures/stimuli/E","pictures/stimuli/P","M","M","1","2","12345","E_M_robert_de_niro.jpg P_M_Tony_Blair.jpg",-1.5372479234656,"29","Female","right",0,1,TRUE,"international/./visual_perception"
1797,"E_F_Kate_Winslet.jpg","E_M_Hugh_Grant.jpg","TRUE","pictures/stimuli/E","pictures/stimuli/E","F","M","6","2","12345","E_F_Kate_Winslet.jpg E_M_Hugh_Grant.jpg",0.803113498477221,"29","Female","right",1,1,FALSE,"international/./visual_perception"
1074,"E_F_jennifer_aniston.jpg","P_M_george_Wbush.jpg","FALSE","pictures/stimuli/E","pictures/stimuli/P","F","M","6","2","12345","E_F_jennifer_aniston.jpg P_M_george_Wbush.jpg",0.803113498477221,"29","Female","right",1,1,FALSE,"international/./visual_perception"
1195,"E_F_keira_knightley.jpg","P_M_donald_trump.jpg","FALSE","pictures/stimuli/E","pictures/stimuli/P","F","M","6","2","12345","E_F_keira_knightley.jpg P_M_donald_trump.jpg",0.803113498477221,"29","Female","right",1,1,FALSE,"international/./visual_perception"
1845,"E_F_Judi_Dench.jpg","P_M_boris_johnson.jpg","FALSE","pictures/stimuli/E","pictures/stimuli/P","F","M","6","2","12345","E_F_Judi_Dench.jpg P_M_boris_johnson.jpg",0.803113498477221,"29","Female","right",1,1,FALSE,"international/./visual_perception"
1665,"E_M_Hugh_Grant.jpg","P_M_david_cameron.jpg","FALSE","pictures/stimuli/E","pictures/stimuli/P","M","M","3","2","12345","E_M_Hugh_Grant.jpg P_M_david_cameron.jpg",-0.601103354688473,"29","Female","right",1,1,FALSE,"international/./visual_perception"
1205,"E_M_Hugh_Grant.jpg","E_M_robert_de_niro.jpg","TRUE","pictures/stimuli/E","pictures/stimuli/E","M","M","6","2","12345","E_M_Hugh_Grant.jpg E_M_robert_de_niro.jpg",0.803113498477221,"29","Female","right",1,0,TRUE,"international/./visual_perception"
1340,"P_F_nicola_sturgeon.jpg","P_M_david_cameron.jpg","TRUE","pictures/stimuli/P","pictures/stimuli/P","F","M","6","2","12345","P_F_nicola_sturgeon.jpg P_M_david_cameron.jpg",0.803113498477221,"29","Female","right",1,1,FALSE,"international/./visual_perception"
981,"E_F_Kate_Winslet.jpg","P_M_donald_trump.jpg","FALSE","pictures/stimuli/E","pictures/stimuli/P","F","M","6","2","12345","E_F_Kate_Winslet.jpg P_M_donald_trump.jpg",0.803113498477221,"29","Female","right",1,1,FALSE,"international/./visual_perception"
1805,"P_M_boris_johnson.jpg","P_M_donald_trump.jpg","TRUE","pictures/stimuli/P","pictures/stimuli/P","M","M","1","2","12345","P_M_boris_johnson.jpg P_M_donald_trump.jpg",-1.5372479234656,"29","Female","right",1,1,FALSE,"international/./visual_perception"
1429,"E_F_sandra_bullock.jpg","P_M_boris_johnson.jpg","FALSE","pictures/stimuli/E","pictures/stimuli/P","F","M","6","2","12345","E_F_sandra_bullock.jpg P_M_boris_johnson.jpg",0.803113498477221,"29","Female","right",1,1,FALSE,"international/./visual_perception"
923,"E_M_michael_caine.jpg","P_F_nicola_sturgeon.jpg","FALSE","pictures/stimuli/E","pictures/stimuli/P","M","F","6","2","12345","E_M_michael_caine.jpg P_F_nicola_sturgeon.jpg",0.803113498477221,"29","Female","right",0,1,TRUE,"international/./visual_perception"
1442,"P_F_tehresy_may.jpg","P_M_Tony_Blair.jpg","TRUE","pictures/stimuli/P","pictures/stimuli/P","F","M","6","2","12345","P_F_tehresy_may.jpg P_M_Tony_Blair.jpg",0.803113498477221,"29","Female","right",1,1,FALSE,"international/./visual_perception"
3545,"P_F_nicola_sturgeon.jpg","P_M_boris_johnson.jpg","TRUE","pictures/stimuli/P","pictures/stimuli/P","F","M","2","2","12345","P_F_nicola_sturgeon.jpg P_M_boris_johnson.jpg",-1.06917563907704,"29","Female","right",1,1,FALSE,"international/./visual_perception"
2702,"E_M_Hugh_Grant.jpg","P_M_boris_johnson.jpg","FALSE","pictures/stimuli/E","pictures/stimuli/P","M","M","6","2","12345","E_M_Hugh_Grant.jpg P_M_boris_johnson.jpg",0.803113498477221,"29","Female","right",1,1,FALSE,"international/./visual_perception"
1851,"E_F_Judi_Dench.jpg","E_F_keira_knightley.jpg","TRUE","pictures/stimuli/E","pictures/stimuli/E","F","F","4","2","12345","E_F_Judi_Dench.jpg E_F_keira_knightley.jpg",-0.133031070299908,"29","Female","right",1,1,FALSE,"international/./visual_perception"
1211,"E_F_angelina_jolie.jpg","P_M_bill_clinton.jpg","FALSE","pictures/stimuli/E","pictures/stimuli/P","F","M","6","2","12345","E_F_angelina_jolie.jpg P_M_bill_clinton.jpg",0.803113498477221,"29","Female","right",1,0,TRUE,"international/./visual_perception"
2827,"P_M_bill_clinton.jpg","P_M_boris_johnson.jpg","TRUE","pictures/stimuli/P","pictures/stimuli/P","M","M","2","2","12345","P_M_bill_clinton.jpg P_M_boris_johnson.jpg",-1.06917563907704,"29","Female","right",0,1,TRUE,"international/./visual_perception"
1630,"E_F_Judi_Dench.jpg","P_F_nicola_sturgeon.jpg","FALSE","pictures/stimuli/E","pictures/stimuli/P","F","F","1","2","12345","E_F_Judi_Dench.jpg P_F_nicola_sturgeon.jpg",-1.5372479234656,"29","Female","right",1,1,FALSE,"international/./visual_perception"
1446,"E_F_Judi_Dench.jpg","P_M_Tony_Blair.jpg","FALSE","pictures/stimuli/E","pictures/stimuli/P","F","M","6","2","12345","E_F_Judi_Dench.jpg P_M_Tony_Blair.jpg",0.803113498477221,"29","Female","right",1,1,FALSE,"international/./visual_perception"
661,"E_F_sandra_bullock.jpg","P_M_Tony_Blair.jpg","FALSE","pictures/stimuli/E","pictures/stimuli/P","F","M","6","2","12345","E_F_sandra_bullock.jpg P_M_Tony_Blair.jpg",0.803113498477221,"29","Female","right",1,1,FALSE,"international/./visual_perception"
1870,"P_M_bill_clinton.jpg","P_M_david_cameron.jpg","TRUE","pictures/stimuli/P","pictures/stimuli/P","M","M","2","2","12345","P_M_bill_clinton.jpg P_M_david_cameron.jpg",-1.06917563907704,"29","Female","right",0,1,TRUE,"international/./visual_perception"
1820,"E_F_jennifer_aniston.jpg","P_F_hillary_clinton.jpg","FALSE","pictures/stimuli/E","pictures/stimuli/P","F","F","6","2","12345","E_F_jennifer_aniston.jpg P_F_hillary_clinton.jpg",0.803113498477221,"29","Female","right",1,1,FALSE,"international/./visual_perception"
1638,"P_F_tehresy_may.jpg","P_M_george_Wbush.jpg","TRUE","pictures/stimuli/P","pictures/stimuli/P","F","M","6","2","12345","P_F_tehresy_may.jpg P_M_george_Wbush.jpg",0.803113498477221,"29","Female","right",1,1,FALSE,"international/./visual_perception"
789,"P_F_nicola_sturgeon.jpg","P_M_donald_trump.jpg","TRUE","pictures/stimuli/P","pictures/stimuli/P","F","M","6","2","12345","P_F_nicola_sturgeon.jpg P_M_donald_trump.jpg",0.803113498477221,"29","Female","right",1,1,FALSE,"international/./visual_perception"
1571,"E_M_robert_de_niro.jpg","P_M_george_Wbush.jpg","FALSE","pictures/stimuli/E","pictures/stimuli/P","M","M","1","2","12345","E_M_robert_de_niro.jpg P_M_george_Wbush.jpg",-1.5372479234656,"29","Female","right",0,1,TRUE,"international/./visual_perception"
1497,"E_F_sandra_bullock.jpg","P_M_george_Wbush.jpg","FALSE","pictures/stimuli/E","pictures/stimuli/P","F","M","6","2","12345","E_F_sandra_bullock.jpg P_M_george_Wbush.jpg",0.803113498477221,"29","Female","right",1,1,FALSE,"international/./visual_perception"
1762,"E_F_sandra_bullock.jpg","P_M_david_cameron.jpg","FALSE","pictures/stimuli/E","pictures/stimuli/P","F","M","6","2","12345","E_F_sandra_bullock.jpg P_M_david_cameron.jpg",0.803113498477221,"29","Female","right",1,1,FALSE,"international/./visual_perception"
2588,"E_M_nicolas_cage.jpg","P_M_donald_trump.jpg","FALSE","pictures/stimuli/E","pictures/stimuli/P","M","M","4","2","12345","E_M_nicolas_cage.jpg P_M_donald_trump.jpg",-0.133031070299908,"29","Female","right",1,1,FALSE,"international/./visual_perception"
1811,"E_F_Judi_Dench.jpg","E_M_tom_hankes.jpg","TRUE","pictures/stimuli/E","pictures/stimuli/E","F","M","6","2","12345","E_F_Judi_Dench.jpg E_M_tom_hankes.jpg",0.803113498477221,"29","Female","right",1,1,FALSE,"international/./visual_perception"
788,"E_F_Kate_Winslet.jpg","P_M_boris_johnson.jpg","FALSE","pictures/stimuli/E","pictures/stimuli/P","F","M","6","2","12345","E_F_Kate_Winslet.jpg P_M_boris_johnson.jpg",0.803113498477221,"29","Female","right",1,1,FALSE,"international/./visual_perception"
712,"E_M_tom_hankes.jpg","P_F_hillary_clinton.jpg","FALSE","pictures/stimuli/E","pictures/stimuli/P","M","F","6","2","12345","E_M_tom_hankes.jpg P_F_hillary_clinton.jpg",0.803113498477221,"29","Female","right",1,1,FALSE,"international/./visual_perception"
711,"E_M_Hugh_Grant.jpg","E_M_tom_hankes.jpg","TRUE","pictures/stimuli/E","pictures/stimuli/E","M","M","6","2","12345","E_M_Hugh_Grant.jpg E_M_tom_hankes.jpg",0.803113498477221,"29","Female","right",1,1,FALSE,"international/./visual_perception"
626,"E_M_nicolas_cage.jpg","P_M_bill_clinton.jpg","FALSE","pictures/stimuli/E","pictures/stimuli/P","M","M","6","2","12345","E_M_nicolas_cage.jpg P_M_bill_clinton.jpg",0.803113498477221,"29","Female","right",1,0,TRUE,"international/./visual_perception"
1490,"E_F_sandra_bullock.jpg","E_M_michael_caine.jpg","TRUE","pictures/stimuli/E","pictures/stimuli/E","F","M","6","2","12345","E_F_sandra_bullock.jpg E_M_michael_caine.jpg",0.803113498477221,"29","Female","right",1,0,TRUE,"international/./visual_perception"
1553,"E_F_angelina_jolie.jpg","P_M_donald_trump.jpg","FALSE","pictures/stimuli/E","pictures/stimuli/P","F","M","6","2","12345","E_F_angelina_jolie.jpg P_M_donald_trump.jpg",0.803113498477221,"29","Female","right",1,1,FALSE,"international/./visual_perception"
2110,"P_M_bill_clinton.jpg","P_M_donald_trump.jpg","TRUE","pictures/stimuli/P","pictures/stimuli/P","M","M","2","2","12345","P_M_bill_clinton.jpg P_M_donald_trump.jpg",-1.06917563907704,"29","Female","right",0,1,TRUE,"international/./visual_perception"
1499,"P_F_nicola_sturgeon.jpg","P_M_Tony_Blair.jpg","TRUE","pictures/stimuli/P","pictures/stimuli/P","F","M","6","2","12345","P_F_nicola_sturgeon.jpg P_M_Tony_Blair.jpg",0.803113498477221,"29","Female","right",1,1,FALSE,"international/./visual_perception"
1588,"E_M_nicolas_cage.jpg","P_F_nicola_sturgeon.jpg","FALSE","pictures/stimuli/E","pictures/stimuli/P","M","F","6","2","12345","E_M_nicolas_cage.jpg P_F_nicola_sturgeon.jpg",0.803113498477221,"29","Female","right",1,1,FALSE,"international/./visual_perception"
1949,"E_M_nicolas_cage.jpg","P_M_Tony_Blair.jpg","FALSE","pictures/stimuli/E","pictures/stimuli/P","M","M","3","2","12345","E_M_nicolas_cage.jpg P_M_Tony_Blair.jpg",-0.601103354688473,"29","Female","right",1,1,FALSE,"international/./visual_perception"
1940,"P_M_boris_johnson.jpg","P_M_david_cameron.jpg","TRUE","pictures/stimuli/P","pictures/stimuli/P","M","M","1","2","12345","P_M_boris_johnson.jpg P_M_david_cameron.jpg",-1.5372479234656,"29","Female","right",1,1,FALSE,"international/./visual_perception"
2644,"E_F_Judi_Dench.jpg","E_F_sandra_bullock.jpg","TRUE","pictures/stimuli/E","pictures/stimuli/E","F","F","2","2","12345","E_F_Judi_Dench.jpg E_F_sandra_bullock.jpg",-1.06917563907704,"29","Female","right",1,1,FALSE,"international/./visual_perception"
813,"E_F_jennifer_aniston.jpg","P_M_Tony_Blair.jpg","FALSE","pictures/stimuli/E","pictures/stimuli/P","F","M","6","2","12345","E_F_jennifer_aniston.jpg P_M_Tony_Blair.jpg",0.803113498477221,"29","Female","right",1,1,FALSE,"international/./visual_perception"
2104,"E_M_michael_caine.jpg","P_M_donald_trump.jpg","FALSE","pictures/stimuli/E","pictures/stimuli/P","M","M","2","2","12345","E_M_michael_caine.jpg P_M_donald_trump.jpg",-1.06917563907704,"29","Female","right",0,1,TRUE,"international/./visual_perception"
2392,"P_M_david_cameron.jpg","P_M_george_Wbush.jpg","TRUE","pictures/stimuli/P","pictures/stimuli/P","M","M","1","2","12345","P_M_david_cameron.jpg P_M_george_Wbush.jpg",-1.5372479234656,"29","Female","right",1,1,FALSE,"international/./visual_perception"
2346,"E_F_sandra_bullock.jpg","E_M_Hugh_Grant.jpg","TRUE","pictures/stimuli/E","pictures/stimuli/E","F","M","6","2","12345","E_F_sandra_bullock.jpg E_M_Hugh_Grant.jpg",0.803113498477221,"29","Female","right",1,1,FALSE,"international/./visual_perception"
2067,"E_F_angelina_jolie.jpg","E_F_Kate_Winslet.jpg","TRUE","pictures/stimuli/E","pictures/stimuli/E","F","F","1","2","12345","E_F_angelina_jolie.jpg E_F_Kate_Winslet.jpg",-1.5372479234656,"29","Female","right",1,1,FALSE,"international/./visual_perception"
1360,"E_F_keira_knightley.jpg","E_F_sandra_bullock.jpg","TRUE","pictures/stimuli/E","pictures/stimuli/E","F","F","1","2","12345","E_F_keira_knightley.jpg E_F_sandra_bullock.jpg",-1.5372479234656,"29","Female","right",1,1,FALSE,"international/./visual_perception"
1501,"E_M_michael_caine.jpg","P_F_hillary_clinton.jpg","FALSE","pictures/stimuli/E","pictures/stimuli/P","M","F","6","2","12345","E_M_michael_caine.jpg P_F_hillary_clinton.jpg",0.803113498477221,"29","Female","right",0,1,TRUE,"international/./visual_perception"
666,"E_F_sandra_bullock.jpg","E_M_tom_hankes.jpg","TRUE","pictures/stimuli/E","pictures/stimuli/E","F","M","6","2","12345","E_F_sandra_bullock.jpg E_M_tom_hankes.jpg",0.803113498477221,"29","Female","right",1,1,FALSE,"international/./visual_perception"
1628,"P_M_david_cameron.jpg","P_M_donald_trump.jpg","TRUE","pictures/stimuli/P","pictures/stimuli/P","M","M","1","2","12345","P_M_david_cameron.jpg P_M_donald_trump.jpg",-1.5372479234656,"29","Female","right",1,1,FALSE,"international/./visual_perception"
1473,"P_M_boris_johnson.jpg","P_M_Tony_Blair.jpg","TRUE","pictures/stimuli/P","pictures/stimuli/P","M","M","3","2","12345","P_M_boris_johnson.jpg P_M_Tony_Blair.jpg",-0.601103354688473,"29","Female","right",1,1,FALSE,"international/./visual_perception"
714,"E_F_Kate_Winslet.jpg","E_M_michael_caine.jpg","TRUE","pictures/stimuli/E","pictures/stimuli/E","F","M","6","2","12345","E_F_Kate_Winslet.jpg E_M_michael_caine.jpg",0.803113498477221,"29","Female","right",1,0,TRUE,"international/./visual_perception"
2023,"E_F_angelina_jolie.jpg","E_M_Hugh_Grant.jpg","TRUE","pictures/stimuli/E","pictures/stimuli/E","F","M","6","2","12345","E_F_angelina_jolie.jpg E_M_Hugh_Grant.jpg",0.803113498477221,"29","Female","right",1,1,FALSE,"international/./visual_perception"
1261,"E_F_jennifer_aniston.jpg","E_F_keira_knightley.jpg","TRUE","pictures/stimuli/E","pictures/stimuli/E","F","F","1","2","12345","E_F_jennifer_aniston.jpg E_F_keira_knightley.jpg",-1.5372479234656,"29","Female","right",1,1,FALSE,"international/./visual_perception"
1219,"E_F_angelina_jolie.jpg","P_M_boris_johnson.jpg","FALSE","pictures/stimuli/E","pictures/stimuli/P","F","M","6","2","12345","E_F_angelina_jolie.jpg P_M_boris_johnson.jpg",0.803113498477221,"29","Female","right",1,1,FALSE,"international/./visual_perception"
1317,"E_F_jennifer_aniston.jpg","P_F_nicola_sturgeon.jpg","FALSE","pictures/stimuli/E","pictures/stimuli/P","F","F","6","2","12345","E_F_jennifer_aniston.jpg P_F_nicola_sturgeon.jpg",0.803113498477221,"29","Female","right",1,1,FALSE,"international/./visual_perception"
2187,"E_M_Hugh_Grant.jpg","P_M_bill_clinton.jpg","FALSE","pictures/stimuli/E","pictures/stimuli/P","M","M","2","2","12345","E_M_Hugh_Grant.jpg P_M_bill_clinton.jpg",-1.06917563907704,"29","Female","right",1,0,TRUE,"international/./visual_perception"
3317,"E_F_sandra_bullock.jpg","P_F_hillary_clinton.jpg","FALSE","pictures/stimuli/E","pictures/stimuli/P","F","F","3","2","12345","E_F_sandra_bullock.jpg P_F_hillary_clinton.jpg",-0.601103354688473,"29","Female","right",1,1,FALSE,"international/./visual_perception"
2469,"E_F_jennifer_aniston.jpg","E_M_Hugh_Grant.jpg","TRUE","pictures/stimuli/E","pictures/stimuli/E","F","M","6","2","12345","E_F_jennifer_aniston.jpg E_M_Hugh_Grant.jpg",0.803113498477221,"29","Female","right",1,1,FALSE,"international/./visual_perception"
2491,"E_M_michael_caine.jpg","P_M_david_cameron.jpg","FALSE","pictures/stimuli/E","pictures/stimuli/P","M","M","2","2","12345","E_M_michael_caine.jpg P_M_david_cameron.jpg",-1.06917563907704,"29","Female","right",0,1,TRUE,"international/./visual_perception"
1291,"E_F_keira_knightley.jpg","P_M_Tony_Blair.jpg","FALSE","pictures/stimuli/E","pictures/stimuli/P","F","M","6","2","12345","E_F_keira_knightley.jpg P_M_Tony_Blair.jpg",0.803113498477221,"29","Female","right",1,1,FALSE,"international/./visual_perception"
1315,"E_M_robert_de_niro.jpg","P_M_bill_clinton.jpg","FALSE","pictures/stimuli/E","pictures/stimuli/P","M","M","6","2","12345","E_M_robert_de_niro.jpg P_M_bill_clinton.jpg",0.803113498477221,"29","Female","right",0,0,TRUE,"international/./visual_perception"
2550,"E_F_angelina_jolie.jpg","P_M_david_cameron.jpg","FALSE","pictures/stimuli/E","pictures/stimuli/P","F","M","6","2","12345","E_F_angelina_jolie.jpg P_M_david_cameron.jpg",0.803113498477221,"29","Female","right",1,1,FALSE,"international/./visual_perception"
2583,"E_F_angelina_jolie.jpg","P_M_Tony_Blair.jpg","FALSE","pictures/stimuli/E","pictures/stimuli/P","F","M","6","2","12345","E_F_angelina_jolie.jpg P_M_Tony_Blair.jpg",0.803113498477221,"29","Female","right",1,1,FALSE,"international/./visual_perception"
4243,"E_M_tom_hankes.jpg","P_M_boris_johnson.jpg","FALSE","pictures/stimuli/E","pictures/stimuli/P","M","M","6","2","12345","E_M_tom_hankes.jpg P_M_boris_johnson.jpg",0.803113498477221,"29","Female","right",1,1,FALSE,"international/./visual_perception"
2515,"E_F_Judi_Dench.jpg","E_M_Hugh_Grant.jpg","TRUE","pictures/stimuli/E","pictures/stimuli/E","F","M","6","2","12345","E_F_Judi_Dench.jpg E_M_Hugh_Grant.jpg",0.803113498477221,"29","Female","right",1,1,FALSE,"international/./visual_perception"
2215,"P_F_hillary_clinton.jpg","P_M_david_cameron.jpg","TRUE","pictures/stimuli/P","pictures/stimuli/P","F","M","6","2","12345","P_F_hillary_clinton.jpg P_M_david_cameron.jpg",0.803113498477221,"29","Female","right",1,1,FALSE,"international/./visual_perception"
2102,"E_F_angelina_jolie.jpg","E_M_nicolas_cage.jpg","TRUE","pictures/stimuli/E","pictures/stimuli/E","F","M","4","2","12345","E_F_angelina_jolie.jpg E_M_nicolas_cage.jpg",-0.133031070299908,"29","Female","right",1,1,FALSE,"international/./visual_perception"
1848,"E_F_sandra_bullock.jpg","P_F_nicola_sturgeon.jpg","FALSE","pictures/stimuli/E","pictures/stimuli/P","F","F","6","2","12345","E_F_sandra_bullock.jpg P_F_nicola_sturgeon.jpg",0.803113498477221,"29","Female","right",1,1,FALSE,"international/./visual_perception"
2268,"E_F_Judi_Dench.jpg","P_M_bill_clinton.jpg","FALSE","pictures/stimuli/E","pictures/stimuli/P","F","M","4","2","12345","E_F_Judi_Dench.jpg P_M_bill_clinton.jpg",-0.133031070299908,"29","Female","right",1,0,TRUE,"international/./visual_perception"
1998,"E_F_angelina_jolie.jpg","E_F_sandra_bullock.jpg","TRUE","pictures/stimuli/E","pictures/stimuli/E","F","F","1","2","12345","E_F_angelina_jolie.jpg E_F_sandra_bullock.jpg",-1.5372479234656,"29","Female","right",1,1,FALSE,"international/./visual_perception"
1451,"E_F_jennifer_aniston.jpg","E_F_Kate_Winslet.jpg","TRUE","pictures/stimuli/E","pictures/stimuli/E","F","F","1","2","12345","E_F_jennifer_aniston.jpg E_F_Kate_Winslet.jpg",-1.5372479234656,"29","Female","right",1,1,FALSE,"international/./visual_perception"
1576,"E_F_jennifer_aniston.jpg","E_F_sandra_bullock.jpg","TRUE","pictures/stimuli/E","pictures/stimuli/E","F","F","1","2","12345","E_F_jennifer_aniston.jpg E_F_sandra_bullock.jpg",-1.5372479234656,"29","Female","right",1,1,FALSE,"international/./visual_perception"
1785,"E_F_angelina_jolie.jpg","E_M_tom_hankes.jpg","TRUE","pictures/stimuli/E","pictures/stimuli/E","F","M","4","2","12345","E_F_angelina_jolie.jpg E_M_tom_hankes.jpg",-0.133031070299908,"29","Female","right",1,1,FALSE,"international/./visual_perception"
1639,"E_F_Judi_Dench.jpg","E_F_Kate_Winslet.jpg","TRUE","pictures/stimuli/E","pictures/stimuli/E","F","F","1","2","12345","E_F_Judi_Dench.jpg E_F_Kate_Winslet.jpg",-1.5372479234656,"29","Female","right",1,1,FALSE,"international/./visual_perception"
3794,"E_M_tom_hankes.jpg","P_M_david_cameron.jpg","FALSE","pictures/stimuli/E","pictures/stimuli/P","M","M","1","2","12345","E_M_tom_hankes.jpg P_M_david_cameron.jpg",-1.5372479234656,"29","Female","right",1,1,FALSE,"international/./visual_perception"
2883,"E_F_keira_knightley.jpg","P_F_nicola_sturgeon.jpg","FALSE","pictures/stimuli/E","pictures/stimuli/P","F","F","5","2","12345","E_F_keira_knightley.jpg P_F_nicola_sturgeon.jpg",0.335041214088657,"29","Female","right",1,1,FALSE,"international/./visual_perception"
1282,"E_F_sandra_bullock.jpg","P_M_donald_trump.jpg","FALSE","pictures/stimuli/E","pictures/stimuli/P","F","M","6","2","12345","E_F_sandra_bullock.jpg P_M_donald_trump.jpg",0.803113498477221,"29","Female","right",1,1,FALSE,"international/./visual_perception"
1393,"E_F_sandra_bullock.jpg","P_M_bill_clinton.jpg","FALSE","pictures/stimuli/E","pictures/stimuli/P","F","M","6","2","12345","E_F_sandra_bullock.jpg P_M_bill_clinton.jpg",0.803113498477221,"29","Female","right",1,0,TRUE,"international/./visual_perception"
2013,"E_F_keira_knightley.jpg","P_F_hillary_clinton.jpg","FALSE","pictures/stimuli/E","pictures/stimuli/P","F","F","3","2","12345","E_F_keira_knightley.jpg P_F_hillary_clinton.jpg",-0.601103354688473,"29","Female","right",1,1,FALSE,"international/./visual_perception"
1585,"E_F_jennifer_aniston.jpg","E_M_tom_hankes.jpg","TRUE","pictures/stimuli/E","pictures/stimuli/E","F","M","5","2","12345","E_F_jennifer_aniston.jpg E_M_tom_hankes.jpg",0.335041214088657,"29","Female","right",1,1,FALSE,"international/./visual_perception"
1495,"E_M_nicolas_cage.jpg","P_M_david_cameron.jpg","FALSE","pictures/stimuli/E","pictures/stimuli/P","M","M","1","2","12345","E_M_nicolas_cage.jpg P_M_david_cameron.jpg",-1.5372479234656,"29","Female","right",1,1,FALSE,"international/./visual_perception"
2013,"E_M_michael_caine.jpg","P_F_tehresy_may.jpg","FALSE","pictures/stimuli/E","pictures/stimuli/P","M","F","1","2","12345","E_M_michael_caine.jpg P_F_tehresy_may.jpg",-1.5372479234656,"29","Female","right",0,1,TRUE,"international/./visual_perception"
1965,"P_M_donald_trump.jpg","P_M_Tony_Blair.jpg","TRUE","pictures/stimuli/P","pictures/stimuli/P","M","M","1","2","12345","P_M_donald_trump.jpg P_M_Tony_Blair.jpg",-1.5372479234656,"29","Female","right",1,1,FALSE,"international/./visual_perception"
1620,"E_F_Judi_Dench.jpg","P_M_donald_trump.jpg","FALSE","pictures/stimuli/E","pictures/stimuli/P","F","M","6","2","12345","E_F_Judi_Dench.jpg P_M_donald_trump.jpg",0.803113498477221,"29","Female","right",1,1,FALSE,"international/./visual_perception"
1978,"E_F_jennifer_aniston.jpg","P_F_tehresy_may.jpg","FALSE","pictures/stimuli/E","pictures/stimuli/P","F","F","6","2","12345","E_F_jennifer_aniston.jpg P_F_tehresy_may.jpg",0.803113498477221,"29","Female","right",1,1,FALSE,"international/./visual_perception"
1513,"P_M_bill_clinton.jpg","P_M_Tony_Blair.jpg","TRUE","pictures/stimuli/P","pictures/stimuli/P","M","M","1","2","12345","P_M_bill_clinton.jpg P_M_Tony_Blair.jpg",-1.5372479234656,"29","Female","right",0,1,TRUE,"international/./visual_perception"
4036,"E_M_robert_de_niro.jpg","P_F_nicola_sturgeon.jpg","FALSE","pictures/stimuli/E","pictures/stimuli/P","M","F","1","2","12345","E_M_robert_de_niro.jpg P_F_nicola_sturgeon.jpg",-1.5372479234656,"29","Female","right",0,1,TRUE,"international/./visual_perception"
3333,"E_F_angelina_jolie.jpg","E_F_jennifer_aniston.jpg","TRUE","pictures/stimuli/E","pictures/stimuli/E","F","F","1","2","12345","E_F_angelina_jolie.jpg E_F_jennifer_aniston.jpg",-1.5372479234656,"29","Female","right",1,1,FALSE,"international/./visual_perception"
1551,"E_F_Judi_Dench.jpg","P_F_hillary_clinton.jpg","FALSE","pictures/stimuli/E","pictures/stimuli/P","F","F","1","2","12345","E_F_Judi_Dench.jpg P_F_hillary_clinton.jpg",-1.5372479234656,"29","Female","right",1,1,FALSE,"international/./visual_perception"
3450,"E_F_keira_knightley.jpg","E_M_michael_caine.jpg","TRUE","pictures/stimuli/E","pictures/stimuli/E","F","M","6","2","12345","E_F_keira_knightley.jpg E_M_michael_caine.jpg",0.803113498477221,"29","Female","right",1,0,TRUE,"international/./visual_perception"
2574,"E_F_jennifer_aniston.jpg","P_M_donald_trump.jpg","FALSE","pictures/stimuli/E","pictures/stimuli/P","F","M","6","2","12345","E_F_jennifer_aniston.jpg P_M_donald_trump.jpg",0.803113498477221,"29","Female","right",1,1,FALSE,"international/./visual_perception"
1710,"E_F_sandra_bullock.jpg","P_F_tehresy_may.jpg","FALSE","pictures/stimuli/E","pictures/stimuli/P","F","F","6","2","12345","E_F_sandra_bullock.jpg P_F_tehresy_may.jpg",0.803113498477221,"29","Female","right",1,1,FALSE,"international/./visual_perception"
1176,"E_M_tom_hankes.jpg","P_F_nicola_sturgeon.jpg","FALSE","pictures/stimuli/E","pictures/stimuli/P","M","F","6","2","12345","E_M_tom_hankes.jpg P_F_nicola_sturgeon.jpg",0.803113498477221,"29","Female","right",1,1,FALSE,"international/./visual_perception"
5989,"E_M_robert_de_niro.jpg","E_M_tom_hankes.jpg","TRUE","pictures/stimuli/E","pictures/stimuli/E","M","M","1","2","12345","E_M_robert_de_niro.jpg E_M_tom_hankes.jpg",-1.5372479234656,"29","Female","right",0,1,TRUE,"international/./visual_perception"
2012,"E_F_sandra_bullock.jpg","E_M_robert_de_niro.jpg","TRUE","pictures/stimuli/E","pictures/stimuli/E","F","M","6","2","12345","E_F_sandra_bullock.jpg E_M_robert_de_niro.jpg",0.803113498477221,"29","Female","right",1,0,TRUE,"international/./visual_perception"
1655,"P_F_nicola_sturgeon.jpg","P_F_tehresy_may.jpg","TRUE","pictures/stimuli/P","pictures/stimuli/P","F","F","1","2","12345","P_F_nicola_sturgeon.jpg P_F_tehresy_may.jpg",-1.5372479234656,"29","Female","right",1,1,FALSE,"international/./visual_perception"
1960,"E_F_angelina_jolie.jpg","P_F_nicola_sturgeon.jpg","FALSE","pictures/stimuli/E","pictures/stimuli/P","F","F","6","2","12345","E_F_angelina_jolie.jpg P_F_nicola_sturgeon.jpg",0.803113498477221,"29","Female","right",1,1,FALSE,"international/./visual_perception"
32133,"E_M_Hugh_Grant.jpg","P_F_hillary_clinton.jpg","FALSE","pictures/stimuli/E","pictures/stimuli/P","M","F","6","2","12345","E_M_Hugh_Grant.jpg P_F_hillary_clinton.jpg",0.803113498477221,"29","Female","right",1,1,TRUE,"international/./visual_perception"
979,"E_F_angelina_jolie.jpg","E_M_michael_caine.jpg","TRUE","pictures/stimuli/E","pictures/stimuli/E","F","M","6","2","12345","E_F_angelina_jolie.jpg E_M_michael_caine.jpg",0.803113498477221,"29","Female","right",1,0,TRUE,"international/./visual_perception"
1266,"E_F_keira_knightley.jpg","P_M_george_Wbush.jpg","FALSE","pictures/stimuli/E","pictures/stimuli/P","F","M","6","2","12345","E_F_keira_knightley.jpg P_M_george_Wbush.jpg",0.803113498477221,"29","Female","right",1,1,FALSE,"international/./visual_perception"
1787,"E_M_robert_de_niro.jpg","P_M_boris_johnson.jpg","FALSE","pictures/stimuli/E","pictures/stimuli/P","M","M","1","2","12345","E_M_robert_de_niro.jpg P_M_boris_johnson.jpg",-1.5372479234656,"29","Female","right",0,1,TRUE,"international/./visual_perception"
2654,"E_M_robert_de_niro.jpg","P_M_david_cameron.jpg","FALSE","pictures/stimuli/E","pictures/stimuli/P","M","M","1","2","12345","E_M_robert_de_niro.jpg P_M_david_cameron.jpg",-1.5372479234656,"29","Female","right",0,1,TRUE,"international/./visual_perception"
1651,"E_F_Judi_Dench.jpg","P_M_george_Wbush.jpg","FALSE","pictures/stimuli/E","pictures/stimuli/P","F","M","6","2","12345","E_F_Judi_Dench.jpg P_M_george_Wbush.jpg",0.803113498477221,"29","Female","right",1,1,FALSE,"international/./visual_perception"
1000,"E_F_jennifer_aniston.jpg","E_M_robert_de_niro.jpg","TRUE","pictures/stimuli/E","pictures/stimuli/E","F","M","6","2","12345","E_F_jennifer_aniston.jpg E_M_robert_de_niro.jpg",0.803113498477221,"29","Female","right",1,0,TRUE,"international/./visual_perception"
2108,"E_F_jennifer_aniston.jpg","E_M_nicolas_cage.jpg","TRUE","pictures/stimuli/E","pictures/stimuli/E","F","M","6","2","12345","E_F_jennifer_aniston.jpg E_M_nicolas_cage.jpg",0.803113498477221,"29","Female","right",1,1,FALSE,"international/./visual_perception"
1398,"E_M_nicolas_cage.jpg","P_M_boris_johnson.jpg","FALSE","pictures/stimuli/E","pictures/stimuli/P","M","M","6","2","12345","E_M_nicolas_cage.jpg P_M_boris_johnson.jpg",0.803113498477221,"29","Female","right",1,1,FALSE,"international/./visual_perception"
1382,"E_M_tom_hankes.jpg","P_M_Tony_Blair.jpg","FALSE","pictures/stimuli/E","pictures/stimuli/P","M","M","1","2","12345","E_M_tom_hankes.jpg P_M_Tony_Blair.jpg",-1.5372479234656,"29","Female","right",1,1,FALSE,"international/./visual_perception"
2014,"E_F_Kate_Winslet.jpg","P_F_nicola_sturgeon.jpg","FALSE","pictures/stimuli/E","pictures/stimuli/P","F","F","5","2","12345","E_F_Kate_Winslet.jpg P_F_nicola_sturgeon.jpg",0.335041214088657,"29","Female","right",1,1,FALSE,"international/./visual_perception"
2105,"P_M_donald_trump.jpg","P_M_george_Wbush.jpg","TRUE","pictures/stimuli/P","pictures/stimuli/P","M","M","1","2","12345","P_M_donald_trump.jpg P_M_george_Wbush.jpg",-1.5372479234656,"29","Female","right",1,1,FALSE,"international/./visual_perception"
1909,"P_F_tehresy_may.jpg","P_M_boris_johnson.jpg","TRUE","pictures/stimuli/P","pictures/stimuli/P","F","M","1","2","12345","P_F_tehresy_may.jpg P_M_boris_johnson.jpg",-1.5372479234656,"29","Female","right",1,1,FALSE,"international/./visual_perception"
1621,"E_F_keira_knightley.jpg","P_M_bill_clinton.jpg","FALSE","pictures/stimuli/E","pictures/stimuli/P","F","M","6","2","12345","E_F_keira_knightley.jpg P_M_bill_clinton.jpg",0.803113498477221,"29","Female","right",1,0,TRUE,"international/./visual_perception"
1325,"E_F_keira_knightley.jpg","E_M_Hugh_Grant.jpg","TRUE","pictures/stimuli/E","pictures/stimuli/E","F","M","6","2","12345","E_F_keira_knightley.jpg E_M_Hugh_Grant.jpg",0.803113498477221,"29","Female","right",1,1,FALSE,"international/./visual_perception"
710,"E_M_robert_de_niro.jpg","P_F_tehresy_may.jpg","FALSE","pictures/stimuli/E","pictures/stimuli/P","M","F","6","2","12345","E_M_robert_de_niro.jpg P_F_tehresy_may.jpg",0.803113498477221,"29","Female","right",0,1,TRUE,"international/./visual_perception"
932,"E_F_jennifer_aniston.jpg","E_M_michael_caine.jpg","TRUE","pictures/stimuli/E","pictures/stimuli/E","F","M","6","2","12345","E_F_jennifer_aniston.jpg E_M_michael_caine.jpg",0.803113498477221,"29","Female","right",1,0,TRUE,"international/./visual_perception"
2828,"E_F_Kate_Winslet.jpg","E_M_robert_de_niro.jpg","TRUE","pictures/stimuli/E","pictures/stimuli/E","F","M","6","2","12345","E_F_Kate_Winslet.jpg E_M_robert_de_niro.jpg",0.803113498477221,"29","Female","right",1,0,TRUE,"international/./visual_perception"
3246,"E_M_michael_caine.jpg","E_M_robert_de_niro.jpg","TRUE","pictures/stimuli/E","pictures/stimuli/E","M","M","1","2","12345","E_M_michael_caine.jpg E_M_robert_de_niro.jpg",-1.5372479234656,"29","Female","right",0,0,TRUE,"international/./visual_perception"
1081,"E_F_angelina_jolie.jpg","E_F_Judi_Dench.jpg","TRUE","pictures/stimuli/E","pictures/stimuli/E","F","F","6","2","12345","E_F_angelina_jolie.jpg E_F_Judi_Dench.jpg",0.803113498477221,"29","Female","right",1,1,FALSE,"international/./visual_perception"
1961,"P_M_bill_clinton.jpg","P_M_george_Wbush.jpg","TRUE","pictures/stimuli/P","pictures/stimuli/P","M","M","1","2","12345","P_M_bill_clinton.jpg P_M_george_Wbush.jpg",-1.5372479234656,"29","Female","right",0,1,TRUE,"international/./visual_perception"
2170,"P_F_hillary_clinton.jpg","P_F_tehresy_may.jpg","TRUE","pictures/stimuli/P","pictures/stimuli/P","F","F","1","2","12345","P_F_hillary_clinton.jpg P_F_tehresy_may.jpg",-1.5372479234656,"29","Female","right",1,1,FALSE,"international/./visual_perception"
2996,"P_F_nicola_sturgeon.jpg","P_M_george_Wbush.jpg","TRUE","pictures/stimuli/P","pictures/stimuli/P","F","M","1","2","12345","P_F_nicola_sturgeon.jpg P_M_george_Wbush.jpg",-1.5372479234656,"29","Female","right",1,1,FALSE,"international/./visual_perception"
1604,"E_F_Judi_Dench.jpg","E_M_nicolas_cage.jpg","TRUE","pictures/stimuli/E","pictures/stimuli/E","F","M","6","2","12345","E_F_Judi_Dench.jpg E_M_nicolas_cage.jpg",0.803113498477221,"29","Female","right",1,1,FALSE,"international/./visual_perception"
1654,"E_F_Kate_Winslet.jpg","P_F_hillary_clinton.jpg","FALSE","pictures/stimuli/E","pictures/stimuli/P","F","F","1","2","12345","E_F_Kate_Winslet.jpg P_F_hillary_clinton.jpg",-1.5372479234656,"29","Female","right",1,1,FALSE,"international/./visual_perception"
2060,"P_M_boris_johnson.jpg","P_M_george_Wbush.jpg","TRUE","pictures/stimuli/P","pictures/stimuli/P","M","M","1","2","12345","P_M_boris_johnson.jpg P_M_george_Wbush.jpg",-1.5372479234656,"29","Female","right",1,1,FALSE,"international/./visual_perception"
2768,"P_F_hillary_clinton.jpg","P_M_george_Wbush.jpg","TRUE","pictures/stimuli/P","pictures/stimuli/P","F","M","1","2","12345","P_F_hillary_clinton.jpg P_M_george_Wbush.jpg",-1.5372479234656,"29","Female","right",1,1,FALSE,"international/./visual_perception"
1008,"E_F_Kate_Winslet.jpg","P_M_bill_clinton.jpg","FALSE","pictures/stimuli/E","pictures/stimuli/P","F","M","6","2","12345","E_F_Kate_Winslet.jpg P_M_bill_clinton.jpg",0.803113498477221,"29","Female","right",1,0,TRUE,"international/./visual_perception"
1017,"E_F_jennifer_aniston.jpg","P_M_bill_clinton.jpg","FALSE","pictures/stimuli/E","pictures/stimuli/P","F","M","6","2","12345","E_F_jennifer_aniston.jpg P_M_bill_clinton.jpg",0.803113498477221,"29","Female","right",1,0,TRUE,"international/./visual_perception"
741,"E_F_angelina_jolie.jpg","P_M_george_Wbush.jpg","FALSE","pictures/stimuli/E","pictures/stimuli/P","F","M","6","2","12345","E_F_angelina_jolie.jpg P_M_george_Wbush.jpg",0.803113498477221,"29","Female","right",1,1,FALSE,"international/./visual_perception"
1974,"E_M_nicolas_cage.jpg","P_M_george_Wbush.jpg","FALSE","pictures/stimuli/E","pictures/stimuli/P","M","M","1","2","12345","E_M_nicolas_cage.jpg P_M_george_Wbush.jpg",-1.5372479234656,"29","Female","right",1,1,FALSE,"international/./visual_perception"
1761,"E_M_tom_hankes.jpg","P_M_donald_trump.jpg","FALSE","pictures/stimuli/E","pictures/stimuli/P","M","M","6","2","12345","E_M_tom_hankes.jpg P_M_donald_trump.jpg",0.803113498477221,"29","Female","right",1,1,FALSE,"international/./visual_perception"
2172,"E_M_nicolas_cage.jpg","P_F_tehresy_may.jpg","FALSE","pictures/stimuli/E","pictures/stimuli/P","M","F","6","2","12345","E_M_nicolas_cage.jpg P_F_tehresy_may.jpg",0.803113498477221,"29","Female","right",1,1,FALSE,"international/./visual_perception"
1020,"E_M_michael_caine.jpg","E_M_tom_hankes.jpg","TRUE","pictures/stimuli/E","pictures/stimuli/E","M","M","6","2","12345","E_M_michael_caine.jpg E_M_tom_hankes.jpg",0.803113498477221,"29","Female","right",0,1,TRUE,"international/./visual_perception"
3131,"E_F_Kate_Winslet.jpg","P_M_george_Wbush.jpg","FALSE","pictures/stimuli/E","pictures/stimuli/P","F","M","6","2","12345","E_F_Kate_Winslet.jpg P_M_george_Wbush.jpg",0.803113498477221,"29","Female","right",1,1,FALSE,"international/./visual_perception"
2256,"P_F_hillary_clinton.jpg","P_M_boris_johnson.jpg","TRUE","pictures/stimuli/P","pictures/stimuli/P","F","M","1","2","12345","P_F_hillary_clinton.jpg P_M_boris_johnson.jpg",-1.5372479234656,"29","Female","right",1,1,FALSE,"international/./visual_perception"
1446,"E_F_angelina_jolie.jpg","E_M_robert_de_niro.jpg","TRUE","pictures/stimuli/E","pictures/stimuli/E","F","M","6","2","12345","E_F_angelina_jolie.jpg E_M_robert_de_niro.jpg",0.803113498477221,"29","Female","right",1,0,TRUE,"international/./visual_perception"
2457,"E_F_keira_knightley.jpg","P_M_Tony_Blair.jpg","FALSE","pictures/stimuli/E","pictures/stimuli/P","F","M","6","3","12345","E_F_keira_knightley.jpg P_M_Tony_Blair.jpg",1.1095824539594,"26","Female","right",1,1,FALSE,"international/./visual_perception"
2304,"E_F_angelina_jolie.jpg","P_M_boris_johnson.jpg","FALSE","pictures/stimuli/E","pictures/stimuli/P","F","M","6","3","12345","E_F_angelina_jolie.jpg P_M_boris_johnson.jpg",1.1095824539594,"26","Female","right",1,1,FALSE,"international/./visual_perception"
3223,"P_F_tehresy_may.jpg","P_M_Tony_Blair.jpg","TRUE","pictures/stimuli/P","pictures/stimuli/P","F","M","4","3","12345","P_F_tehresy_may.jpg P_M_Tony_Blair.jpg",-0.957286823023797,"26","Female","right",1,1,FALSE,"international/./visual_perception"
3716,"E_M_Hugh_Grant.jpg","P_M_bill_clinton.jpg","FALSE","pictures/stimuli/E","pictures/stimuli/P","M","M","3","3","12345","E_M_Hugh_Grant.jpg P_M_bill_clinton.jpg",-1.9907214615154,"26","Female","right",1,1,FALSE,"international/./visual_perception"
3333,"E_M_Hugh_Grant.jpg","P_M_boris_johnson.jpg","FALSE","pictures/stimuli/E","pictures/stimuli/P","M","M","3","3","12345","E_M_Hugh_Grant.jpg P_M_boris_johnson.jpg",-1.9907214615154,"26","Female","right",1,1,FALSE,"international/./visual_perception"
2130,"E_F_keira_knightley.jpg","P_M_boris_johnson.jpg","FALSE","pictures/stimuli/E","pictures/stimuli/P","F","M","6","3","12345","E_F_keira_knightley.jpg P_M_boris_johnson.jpg",1.1095824539594,"26","Female","right",1,1,FALSE,"international/./visual_perception"
1798,"E_M_tom_hankes.jpg","P_M_david_cameron.jpg","FALSE","pictures/stimuli/E","pictures/stimuli/P","M","M","3","3","12345","E_M_tom_hankes.jpg P_M_david_cameron.jpg",-1.9907214615154,"26","Female","right",1,1,FALSE,"international/./visual_perception"
2362,"P_F_tehresy_may.jpg","P_M_bill_clinton.jpg","TRUE","pictures/stimuli/P","pictures/stimuli/P","F","M","4","3","12345","P_F_tehresy_may.jpg P_M_bill_clinton.jpg",-0.957286823023797,"26","Female","right",1,1,FALSE,"international/./visual_perception"
