"RT","img_1","img_2","isSameProffesion","img1proffesion","img2proffesion","img1Gender","img2Gender","keyPressed","participant","time","normlised_keyPress","age","gender","handedness","isFamiliar_img1","isFamiliar_img2","vividness_img1","vividness_img2","reject_trial","pair"
3052,"E_F_keira_knightley.jpg","E_M_michael_caine.jpg","TRUE","pictures/stimuli/E","pictures/stimuli/E","F","M","6","574b5c065bef98000eaf8bc3","04/26/2022, 07:40:52",0.675738808945829,"32","Male","left",1,1,0,0,FALSE,"E_F_keira_knightley.jpg E_M_michael_caine.jpg"
5084,"P_F_tehresy_may.jpg","P_M_george_Wbush.jpg","TRUE","pictures/stimuli/P","pictures/stimuli/P","F","M","2","574b5c065bef98000eaf8bc3","04/26/2022, 07:40:52",-1.51896843378421,"32","Male","left",1,1,0,0,FALSE,"P_F_tehresy_may.jpg P_M_george_Wbush.jpg"
3709,"E_F_jennifer_aniston.jpg","E_M_tom_hankes.jpg","TRUE","pictures/stimuli/E","pictures/stimuli/E","F","M","6","574b5c065bef98000eaf8bc3","04/26/2022, 07:40:52",0.675738808945829,"32","Male","left",1,1,0,0,FALSE,"E_F_jennifer_aniston.jpg E_M_tom_hankes.jpg"
3455,"E_F_jennifer_aniston.jpg","E_F_keira_knightley.jpg","TRUE","pictures/stimuli/E","pictures/stimuli/E","F","F","4","574b5c065bef98000eaf8bc3","04/26/2022, 07:40:52",-0.421614812419193,"32","Male","left",1,1,0,0,FALSE,"E_F_jennifer_aniston.jpg E_F_keira_knightley.jpg"
5919,"E_F_keira_knightley.jpg","E_F_sandra_bullock.jpg","TRUE","pictures/stimuli/E","pictures/stimuli/E","F","F","2","574b5c065bef98000eaf8bc3","04/26/2022, 07:40:52",-1.51896843378421,"32","Male","left",1,0,0,0,TRUE,"E_F_keira_knightley.jpg E_F_sandra_bullock.jpg"
3581,"P_M_bill_clinton.jpg","P_M_donald_trump.jpg","TRUE","pictures/stimuli/P","pictures/stimuli/P","M","M","5","574b5c065bef98000eaf8bc3","04/26/2022, 07:40:52",0.127061998263318,"32","Male","left",1,1,0,0,FALSE,"P_M_bill_clinton.jpg P_M_donald_trump.jpg"
2828,"E_F_jennifer_aniston.jpg","P_M_donald_trump.jpg","FALSE","pictures/stimuli/E","pictures/stimuli/P","F","M","6","574b5c065bef98000eaf8bc3","04/26/2022, 07:40:52",0.675738808945829,"32","Male","left",1,1,0,0,FALSE,"E_F_jennifer_aniston.jpg P_M_donald_trump.jpg"
8481,"E_M_robert_de_niro.jpg","P_M_Tony_Blair.jpg","FALSE","pictures/stimuli/E","pictures/stimuli/P","M","M","6","574b5c065bef98000eaf8bc3","04/26/2022, 07:40:52",0.675738808945829,"32","Male","left",1,1,0,0,FALSE,"E_M_robert_de_niro.jpg P_M_Tony_Blair.jpg"
2908,"P_M_donald_trump.jpg","P_M_Tony_Blair.jpg","TRUE","pictures/stimuli/P","pictures/stimuli/P","M","M","5","574b5c065bef98000eaf8bc3","04/26/2022, 07:40:52",0.127061998263318,"32","Male","left",1,1,0,0,FALSE,"P_M_donald_trump.jpg P_M_Tony_Blair.jpg"
3834,"E_F_jennifer_aniston.jpg","E_F_Judi_Dench.jpg","TRUE","pictures/stimuli/E","pictures/stimuli/E","F","F","2","574b5c065bef98000eaf8bc3","04/26/2022, 07:40:52",-1.51896843378421,"32","Male","left",1,1,0,0,FALSE,"E_F_jennifer_aniston.jpg E_F_Judi_Dench.jpg"
4009,"P_F_hillary_clinton.jpg","P_F_tehresy_may.jpg","TRUE","pictures/stimuli/P","pictures/stimuli/P","F","F","2","574b5c065bef98000eaf8bc3","04/26/2022, 07:40:52",-1.51896843378421,"32","Male","left",1,1,0,0,FALSE,"P_F_hillary_clinton.jpg P_F_tehresy_may.jpg"
2054,"E_M_nicolas_cage.jpg","P_M_donald_trump.jpg","FALSE","pictures/stimuli/E","pictures/stimuli/P","M","M","6","574b5c065bef98000eaf8bc3","04/26/2022, 07:40:52",0.675738808945829,"32","Male","left",1,1,0,0,FALSE,"E_M_nicolas_cage.jpg P_M_donald_trump.jpg"
5278,"E_F_Judi_Dench.jpg","E_F_Kate_Winslet.jpg","TRUE","pictures/stimuli/E","pictures/stimuli/E","F","F","3","574b5c065bef98000eaf8bc3","04/26/2022, 07:40:52",-0.970291623101703,"32","Male","left",1,1,0,0,FALSE,"E_F_Judi_Dench.jpg E_F_Kate_Winslet.jpg"
9141,"E_F_Kate_Winslet.jpg","E_M_tom_hankes.jpg","TRUE","pictures/stimuli/E","pictures/stimuli/E","F","M","5","574b5c065bef98000eaf8bc3","04/26/2022, 07:40:52",0.127061998263318,"32","Male","left",1,1,0,0,FALSE,"E_F_Kate_Winslet.jpg E_M_tom_hankes.jpg"
4875,"E_M_Hugh_Grant.jpg","P_F_hillary_clinton.jpg","FALSE","pictures/stimuli/E","pictures/stimuli/P","M","F","6","574b5c065bef98000eaf8bc3","04/26/2022, 07:40:52",0.675738808945829,"32","Male","left",1,1,0,0,FALSE,"E_M_Hugh_Grant.jpg P_F_hillary_clinton.jpg"
39958,"E_M_Hugh_Grant.jpg","E_M_michael_caine.jpg","TRUE","pictures/stimuli/E","pictures/stimuli/E","M","M","6","574b5c065bef98000eaf8bc3","04/26/2022, 07:40:52",0.675738808945829,"32","Male","left",1,1,0,0,TRUE,"E_M_Hugh_Grant.jpg E_M_michael_caine.jpg"
3020,"E_M_robert_de_niro.jpg","P_M_david_cameron.jpg","FALSE","pictures/stimuli/E","pictures/stimuli/P","M","M","6","574b5c065bef98000eaf8bc3","04/26/2022, 07:40:52",0.675738808945829,"32","Male","left",1,1,0,0,FALSE,"E_M_robert_de_niro.jpg P_M_david_cameron.jpg"
2429,"P_M_boris_johnson.jpg","P_M_Tony_Blair.jpg","TRUE","pictures/stimuli/P","pictures/stimuli/P","M","M","5","574b5c065bef98000eaf8bc3","04/26/2022, 07:40:52",0.127061998263318,"32","Male","left",1,1,0,0,FALSE,"P_M_boris_johnson.jpg P_M_Tony_Blair.jpg"
2139,"E_M_michael_caine.jpg","P_M_donald_trump.jpg","FALSE","pictures/stimuli/E","pictures/stimuli/P","M","M","6","574b5c065bef98000eaf8bc3","04/26/2022, 07:40:52",0.675738808945829,"32","Male","left",1,1,0,0,FALSE,"E_M_michael_caine.jpg P_M_donald_trump.jpg"
3495,"E_F_angelina_jolie.jpg","E_M_robert_de_niro.jpg","TRUE","pictures/stimuli/E","pictures/stimuli/E","F","M","6","574b5c065bef98000eaf8bc3","04/26/2022, 07:40:52",0.675738808945829,"32","Male","left",1,1,0,0,FALSE,"E_F_angelina_jolie.jpg E_M_robert_de_niro.jpg"
1567,"E_F_keira_knightley.jpg","P_M_Tony_Blair.jpg","FALSE","pictures/stimuli/E","pictures/stimuli/P","F","M","6","574b5c065bef98000eaf8bc3","04/26/2022, 07:40:52",0.675738808945829,"32","Male","left",1,1,0,0,FALSE,"E_F_keira_knightley.jpg P_M_Tony_Blair.jpg"
1709,"E_F_jennifer_aniston.jpg","P_M_bill_clinton.jpg","FALSE","pictures/stimuli/E","pictures/stimuli/P","F","M","6","574b5c065bef98000eaf8bc3","04/26/2022, 07:40:52",0.675738808945829,"32","Male","left",1,1,0,0,FALSE,"E_F_jennifer_aniston.jpg P_M_bill_clinton.jpg"
2177,"P_M_george_Wbush.jpg","P_M_Tony_Blair.jpg","TRUE","pictures/stimuli/P","pictures/stimuli/P","M","M","3","574b5c065bef98000eaf8bc3","04/26/2022, 07:40:52",-0.970291623101703,"32","Male","left",1,1,0,0,FALSE,"P_M_george_Wbush.jpg P_M_Tony_Blair.jpg"
4049,"E_M_Hugh_Grant.jpg","P_M_david_cameron.jpg","FALSE","pictures/stimuli/E","pictures/stimuli/P","M","M","3","574b5c065bef98000eaf8bc3","04/26/2022, 07:40:52",-0.970291623101703,"32","Male","left",1,1,0,0,FALSE,"E_M_Hugh_Grant.jpg P_M_david_cameron.jpg"
1878,"E_F_angelina_jolie.jpg","P_M_bill_clinton.jpg","FALSE","pictures/stimuli/E","pictures/stimuli/P","F","M","6","574b5c065bef98000eaf8bc3","04/26/2022, 07:40:52",0.675738808945829,"32","Male","left",1,1,0,0,FALSE,"E_F_angelina_jolie.jpg P_M_bill_clinton.jpg"
2971,"E_F_Kate_Winslet.jpg","E_M_robert_de_niro.jpg","TRUE","pictures/stimuli/E","pictures/stimuli/E","F","M","4","574b5c065bef98000eaf8bc3","04/26/2022, 07:40:52",-0.421614812419193,"32","Male","left",1,1,0,0,FALSE,"E_F_Kate_Winslet.jpg E_M_robert_de_niro.jpg"
3121,"E_M_tom_hankes.jpg","P_F_nicola_sturgeon.jpg","FALSE","pictures/stimuli/E","pictures/stimuli/P","M","F","6","574b5c065bef98000eaf8bc3","04/26/2022, 07:40:52",0.675738808945829,"32","Male","left",1,1,0,0,FALSE,"E_M_tom_hankes.jpg P_F_nicola_sturgeon.jpg"
20537,"E_M_Hugh_Grant.jpg","P_M_bill_clinton.jpg","FALSE","pictures/stimuli/E","pictures/stimuli/P","M","M","6","574b5c065bef98000eaf8bc3","04/26/2022, 07:40:52",0.675738808945829,"32","Male","left",1,1,0,0,FALSE,"E_M_Hugh_Grant.jpg P_M_bill_clinton.jpg"
7809,"P_F_nicola_sturgeon.jpg","P_M_Tony_Blair.jpg","TRUE","pictures/stimuli/P","pictures/stimuli/P","F","M","6","574b5c065bef98000eaf8bc3","04/26/2022, 07:40:52",0.675738808945829,"32","Male","left",1,1,0,0,FALSE,"P_F_nicola_sturgeon.jpg P_M_Tony_Blair.jpg"
7131,"E_F_sandra_bullock.jpg","P_M_david_cameron.jpg","FALSE","pictures/stimuli/E","pictures/stimuli/P","F","M","6","574b5c065bef98000eaf8bc3","04/26/2022, 07:40:52",0.675738808945829,"32","Male","left",0,1,0,0,TRUE,"E_F_sandra_bullock.jpg P_M_david_cameron.jpg"
24024,"P_F_tehresy_may.jpg","P_M_bill_clinton.jpg","TRUE","pictures/stimuli/P","pictures/stimuli/P","F","M","6","574b5c065bef98000eaf8bc3","04/26/2022, 07:40:52",0.675738808945829,"32","Male","left",1,1,0,0,FALSE,"P_F_tehresy_may.jpg P_M_bill_clinton.jpg"
13953,"E_F_keira_knightley.jpg","E_M_tom_hankes.jpg","TRUE","pictures/stimuli/E","pictures/stimuli/E","F","M","6","574b5c065bef98000eaf8bc3","04/26/2022, 07:40:52",0.675738808945829,"32","Male","left",1,1,0,0,FALSE,"E_F_keira_knightley.jpg E_M_tom_hankes.jpg"
43174,"P_F_tehresy_may.jpg","P_M_david_cameron.jpg","TRUE","pictures/stimuli/P","pictures/stimuli/P","F","M","2","574b5c065bef98000eaf8bc3","04/26/2022, 07:40:52",-1.51896843378421,"32","Male","left",1,1,0,0,TRUE,"P_F_tehresy_may.jpg P_M_david_cameron.jpg"
2797,"P_F_nicola_sturgeon.jpg","P_M_boris_johnson.jpg","TRUE","pictures/stimuli/P","pictures/stimuli/P","F","M","6","574b5c065bef98000eaf8bc3","04/26/2022, 07:40:52",0.675738808945829,"32","Male","left",1,1,0,0,FALSE,"P_F_nicola_sturgeon.jpg P_M_boris_johnson.jpg"
4629,"P_M_david_cameron.jpg","P_M_george_Wbush.jpg","TRUE","pictures/stimuli/P","pictures/stimuli/P","M","M","1","574b5c065bef98000eaf8bc3","04/26/2022, 07:40:52",-2.06764524446672,"32","Male","left",1,1,0,0,FALSE,"P_M_david_cameron.jpg P_M_george_Wbush.jpg"
2636,"E_F_jennifer_aniston.jpg","E_M_michael_caine.jpg","TRUE","pictures/stimuli/E","pictures/stimuli/E","F","M","3","574b5c065bef98000eaf8bc3","04/26/2022, 07:40:52",-0.970291623101703,"32","Male","left",1,1,0,0,FALSE,"E_F_jennifer_aniston.jpg E_M_michael_caine.jpg"
2402,"E_F_keira_knightley.jpg","P_F_nicola_sturgeon.jpg","FALSE","pictures/stimuli/E","pictures/stimuli/P","F","F","6","574b5c065bef98000eaf8bc3","04/26/2022, 07:40:52",0.675738808945829,"32","Male","left",1,1,0,0,FALSE,"E_F_keira_knightley.jpg P_F_nicola_sturgeon.jpg"
50161,"E_F_jennifer_aniston.jpg","P_M_boris_johnson.jpg","FALSE","pictures/stimuli/E","pictures/stimuli/P","F","M","6","574b5c065bef98000eaf8bc3","04/26/2022, 07:40:52",0.675738808945829,"32","Male","left",1,1,0,0,TRUE,"E_F_jennifer_aniston.jpg P_M_boris_johnson.jpg"
2468,"E_M_nicolas_cage.jpg","P_M_Tony_Blair.jpg","FALSE","pictures/stimuli/E","pictures/stimuli/P","M","M","6","574b5c065bef98000eaf8bc3","04/26/2022, 07:40:52",0.675738808945829,"32","Male","left",1,1,0,0,FALSE,"E_M_nicolas_cage.jpg P_M_Tony_Blair.jpg"
2421,"E_F_Judi_Dench.jpg","E_F_sandra_bullock.jpg","TRUE","pictures/stimuli/E","pictures/stimuli/E","F","F","3","574b5c065bef98000eaf8bc3","04/26/2022, 07:40:52",-0.970291623101703,"32","Male","left",1,0,0,0,TRUE,"E_F_Judi_Dench.jpg E_F_sandra_bullock.jpg"
4425,"E_F_sandra_bullock.jpg","E_M_tom_hankes.jpg","TRUE","pictures/stimuli/E","pictures/stimuli/E","F","M","6","574b5c065bef98000eaf8bc3","04/26/2022, 07:40:52",0.675738808945829,"32","Male","left",0,1,0,0,TRUE,"E_F_sandra_bullock.jpg E_M_tom_hankes.jpg"
3924,"E_F_angelina_jolie.jpg","E_M_tom_hankes.jpg","TRUE","pictures/stimuli/E","pictures/stimuli/E","F","M","6","574b5c065bef98000eaf8bc3","04/26/2022, 07:40:52",0.675738808945829,"32","Male","left",1,1,0,0,FALSE,"E_F_angelina_jolie.jpg E_M_tom_hankes.jpg"
3558,"E_M_Hugh_Grant.jpg","E_M_nicolas_cage.jpg","TRUE","pictures/stimuli/E","pictures/stimuli/E","M","M","2","574b5c065bef98000eaf8bc3","04/26/2022, 07:40:52",-1.51896843378421,"32","Male","left",1,1,0,0,FALSE,"E_M_Hugh_Grant.jpg E_M_nicolas_cage.jpg"
3364,"E_F_angelina_jolie.jpg","P_M_donald_trump.jpg","FALSE","pictures/stimuli/E","pictures/stimuli/P","F","M","6","574b5c065bef98000eaf8bc3","04/26/2022, 07:40:52",0.675738808945829,"32","Male","left",1,1,0,0,FALSE,"E_F_angelina_jolie.jpg P_M_donald_trump.jpg"
3405,"E_F_Kate_Winslet.jpg","P_M_donald_trump.jpg","FALSE","pictures/stimuli/E","pictures/stimuli/P","F","M","6","574b5c065bef98000eaf8bc3","04/26/2022, 07:40:52",0.675738808945829,"32","Male","left",1,1,0,0,FALSE,"E_F_Kate_Winslet.jpg P_M_donald_trump.jpg"
62945,"E_F_sandra_bullock.jpg","E_M_Hugh_Grant.jpg","TRUE","pictures/stimuli/E","pictures/stimuli/E","F","M","6","574b5c065bef98000eaf8bc3","04/26/2022, 07:40:52",0.675738808945829,"32","Male","left",0,1,0,0,TRUE,"E_F_sandra_bullock.jpg E_M_Hugh_Grant.jpg"
4592,"E_F_jennifer_aniston.jpg","E_F_Kate_Winslet.jpg","TRUE","pictures/stimuli/E","pictures/stimuli/E","F","F","1","574b5c065bef98000eaf8bc3","04/26/2022, 07:40:52",-2.06764524446672,"32","Male","left",1,1,0,0,FALSE,"E_F_jennifer_aniston.jpg E_F_Kate_Winslet.jpg"
3120,"E_M_michael_caine.jpg","P_M_Tony_Blair.jpg","FALSE","pictures/stimuli/E","pictures/stimuli/P","M","M","6","574b5c065bef98000eaf8bc3","04/26/2022, 07:40:52",0.675738808945829,"32","Male","left",1,1,0,0,FALSE,"E_M_michael_caine.jpg P_M_Tony_Blair.jpg"
1879,"E_M_Hugh_Grant.jpg","P_F_tehresy_may.jpg","FALSE","pictures/stimuli/E","pictures/stimuli/P","M","F","6","574b5c065bef98000eaf8bc3","04/26/2022, 07:40:52",0.675738808945829,"32","Male","left",1,1,0,0,FALSE,"E_M_Hugh_Grant.jpg P_F_tehresy_may.jpg"
2206,"E_F_keira_knightley.jpg","E_M_robert_de_niro.jpg","TRUE","pictures/stimuli/E","pictures/stimuli/E","F","M","6","574b5c065bef98000eaf8bc3","04/26/2022, 07:40:52",0.675738808945829,"32","Male","left",1,1,0,0,FALSE,"E_F_keira_knightley.jpg E_M_robert_de_niro.jpg"
3178,"E_F_Kate_Winslet.jpg","P_F_tehresy_may.jpg","FALSE","pictures/stimuli/E","pictures/stimuli/P","F","F","4","574b5c065bef98000eaf8bc3","04/26/2022, 07:40:52",-0.421614812419193,"32","Male","left",1,1,0,0,FALSE,"E_F_Kate_Winslet.jpg P_F_tehresy_may.jpg"
1520,"E_F_Kate_Winslet.jpg","P_F_nicola_sturgeon.jpg","FALSE","pictures/stimuli/E","pictures/stimuli/P","F","F","6","574b5c065bef98000eaf8bc3","04/26/2022, 07:40:52",0.675738808945829,"32","Male","left",1,1,0,0,FALSE,"E_F_Kate_Winslet.jpg P_F_nicola_sturgeon.jpg"
1506,"E_F_Judi_Dench.jpg","E_M_robert_de_niro.jpg","TRUE","pictures/stimuli/E","pictures/stimuli/E","F","M","6","574b5c065bef98000eaf8bc3","04/26/2022, 07:40:52",0.675738808945829,"32","Male","left",1,1,0,0,FALSE,"E_F_Judi_Dench.jpg E_M_robert_de_niro.jpg"
1859,"E_M_nicolas_cage.jpg","P_F_tehresy_may.jpg","FALSE","pictures/stimuli/E","pictures/stimuli/P","M","F","6","574b5c065bef98000eaf8bc3","04/26/2022, 07:40:52",0.675738808945829,"32","Male","left",1,1,0,0,FALSE,"E_M_nicolas_cage.jpg P_F_tehresy_may.jpg"
2525,"E_F_angelina_jolie.jpg","P_M_david_cameron.jpg","FALSE","pictures/stimuli/E","pictures/stimuli/P","F","M","5","574b5c065bef98000eaf8bc3","04/26/2022, 07:40:52",0.127061998263318,"32","Male","left",1,1,0,0,FALSE,"E_F_angelina_jolie.jpg P_M_david_cameron.jpg"
2510,"E_F_Judi_Dench.jpg","E_M_nicolas_cage.jpg","TRUE","pictures/stimuli/E","pictures/stimuli/E","F","M","5","574b5c065bef98000eaf8bc3","04/26/2022, 07:40:52",0.127061998263318,"32","Male","left",1,1,0,0,FALSE,"E_F_Judi_Dench.jpg E_M_nicolas_cage.jpg"
2207,"E_F_Judi_Dench.jpg","P_F_hillary_clinton.jpg","FALSE","pictures/stimuli/E","pictures/stimuli/P","F","F","6","574b5c065bef98000eaf8bc3","04/26/2022, 07:40:52",0.675738808945829,"32","Male","left",1,1,0,0,FALSE,"E_F_Judi_Dench.jpg P_F_hillary_clinton.jpg"
2235,"E_F_keira_knightley.jpg","P_M_bill_clinton.jpg","FALSE","pictures/stimuli/E","pictures/stimuli/P","F","M","6","574b5c065bef98000eaf8bc3","04/26/2022, 07:40:52",0.675738808945829,"32","Male","left",1,1,0,0,FALSE,"E_F_keira_knightley.jpg P_M_bill_clinton.jpg"
1847,"E_F_sandra_bullock.jpg","P_M_donald_trump.jpg","FALSE","pictures/stimuli/E","pictures/stimuli/P","F","M","6","574b5c065bef98000eaf8bc3","04/26/2022, 07:40:52",0.675738808945829,"32","Male","left",0,1,0,0,TRUE,"E_F_sandra_bullock.jpg P_M_donald_trump.jpg"
2974,"P_M_david_cameron.jpg","P_M_donald_trump.jpg","TRUE","pictures/stimuli/P","pictures/stimuli/P","M","M","2","574b5c065bef98000eaf8bc3","04/26/2022, 07:40:52",-1.51896843378421,"32","Male","left",1,1,0,0,FALSE,"P_M_david_cameron.jpg P_M_donald_trump.jpg"
2325,"E_F_keira_knightley.jpg","P_F_tehresy_may.jpg","FALSE","pictures/stimuli/E","pictures/stimuli/P","F","F","5","574b5c065bef98000eaf8bc3","04/26/2022, 07:40:52",0.127061998263318,"32","Male","left",1,1,0,0,FALSE,"E_F_keira_knightley.jpg P_F_tehresy_may.jpg"
2234,"E_M_michael_caine.jpg","P_F_tehresy_may.jpg","FALSE","pictures/stimuli/E","pictures/stimuli/P","M","F","6","574b5c065bef98000eaf8bc3","04/26/2022, 07:40:52",0.675738808945829,"32","Male","left",1,1,0,0,FALSE,"E_M_michael_caine.jpg P_F_tehresy_may.jpg"
5421,"E_M_nicolas_cage.jpg","P_M_bill_clinton.jpg","FALSE","pictures/stimuli/E","pictures/stimuli/P","M","M","6","574b5c065bef98000eaf8bc3","04/26/2022, 07:40:52",0.675738808945829,"32","Male","left",1,1,0,0,FALSE,"E_M_nicolas_cage.jpg P_M_bill_clinton.jpg"
51000,"P_F_nicola_sturgeon.jpg","P_M_david_cameron.jpg","TRUE","pictures/stimuli/P","pictures/stimuli/P","F","M","6","574b5c065bef98000eaf8bc3","04/26/2022, 07:40:52",0.675738808945829,"32","Male","left",1,1,0,0,TRUE,"P_F_nicola_sturgeon.jpg P_M_david_cameron.jpg"
25651,"E_F_keira_knightley.jpg","P_M_david_cameron.jpg","FALSE","pictures/stimuli/E","pictures/stimuli/P","F","M","6","574b5c065bef98000eaf8bc3","04/26/2022, 07:40:52",0.675738808945829,"32","Male","left",1,1,0,0,FALSE,"E_F_keira_knightley.jpg P_M_david_cameron.jpg"
2020,"E_F_keira_knightley.jpg","P_M_boris_johnson.jpg","FALSE","pictures/stimuli/E","pictures/stimuli/P","F","M","6","574b5c065bef98000eaf8bc3","04/26/2022, 07:40:52",0.675738808945829,"32","Male","left",1,1,0,0,FALSE,"E_F_keira_knightley.jpg P_M_boris_johnson.jpg"
6698,"E_F_Kate_Winslet.jpg","P_M_david_cameron.jpg","FALSE","pictures/stimuli/E","pictures/stimuli/P","F","M","6","574b5c065bef98000eaf8bc3","04/26/2022, 07:40:52",0.675738808945829,"32","Male","left",1,1,0,0,FALSE,"E_F_Kate_Winslet.jpg P_M_david_cameron.jpg"
22780,"E_F_keira_knightley.jpg","E_M_Hugh_Grant.jpg","TRUE","pictures/stimuli/E","pictures/stimuli/E","F","M","4","574b5c065bef98000eaf8bc3","04/26/2022, 07:40:52",-0.421614812419193,"32","Male","left",1,1,0,0,FALSE,"E_F_keira_knightley.jpg E_M_Hugh_Grant.jpg"
2476,"E_F_sandra_bullock.jpg","E_M_nicolas_cage.jpg","TRUE","pictures/stimuli/E","pictures/stimuli/E","F","M","6","574b5c065bef98000eaf8bc3","04/26/2022, 07:40:52",0.675738808945829,"32","Male","left",0,1,0,0,TRUE,"E_F_sandra_bullock.jpg E_M_nicolas_cage.jpg"
4776,"E_M_nicolas_cage.jpg","P_M_david_cameron.jpg","FALSE","pictures/stimuli/E","pictures/stimuli/P","M","M","6","574b5c065bef98000eaf8bc3","04/26/2022, 07:40:52",0.675738808945829,"32","Male","left",1,1,0,0,FALSE,"E_M_nicolas_cage.jpg P_M_david_cameron.jpg"
1973,"E_F_jennifer_aniston.jpg","P_M_david_cameron.jpg","FALSE","pictures/stimuli/E","pictures/stimuli/P","F","M","6","574b5c065bef98000eaf8bc3","04/26/2022, 07:40:52",0.675738808945829,"32","Male","left",1,1,0,0,FALSE,"E_F_jennifer_aniston.jpg P_M_david_cameron.jpg"
2089,"E_F_angelina_jolie.jpg","P_F_tehresy_may.jpg","FALSE","pictures/stimuli/E","pictures/stimuli/P","F","F","6","574b5c065bef98000eaf8bc3","04/26/2022, 07:40:52",0.675738808945829,"32","Male","left",1,1,0,0,FALSE,"E_F_angelina_jolie.jpg P_F_tehresy_may.jpg"
1719,"E_M_Hugh_Grant.jpg","P_M_donald_trump.jpg","FALSE","pictures/stimuli/E","pictures/stimuli/P","M","M","6","574b5c065bef98000eaf8bc3","04/26/2022, 07:40:52",0.675738808945829,"32","Male","left",1,1,0,0,FALSE,"E_M_Hugh_Grant.jpg P_M_donald_trump.jpg"
2187,"E_F_angelina_jolie.jpg","P_M_george_Wbush.jpg","FALSE","pictures/stimuli/E","pictures/stimuli/P","F","M","6","574b5c065bef98000eaf8bc3","04/26/2022, 07:40:52",0.675738808945829,"32","Male","left",1,1,0,0,FALSE,"E_F_angelina_jolie.jpg P_M_george_Wbush.jpg"
2140,"E_M_tom_hankes.jpg","P_M_david_cameron.jpg","FALSE","pictures/stimuli/E","pictures/stimuli/P","M","M","6","574b5c065bef98000eaf8bc3","04/26/2022, 07:40:52",0.675738808945829,"32","Male","left",1,1,0,0,FALSE,"E_M_tom_hankes.jpg P_M_david_cameron.jpg"
2130,"E_M_nicolas_cage.jpg","P_M_george_Wbush.jpg","FALSE","pictures/stimuli/E","pictures/stimuli/P","M","M","6","574b5c065bef98000eaf8bc3","04/26/2022, 07:40:52",0.675738808945829,"32","Male","left",1,1,0,0,FALSE,"E_M_nicolas_cage.jpg P_M_george_Wbush.jpg"
4951,"E_F_sandra_bullock.jpg","P_F_nicola_sturgeon.jpg","FALSE","pictures/stimuli/E","pictures/stimuli/P","F","F","5","574b5c065bef98000eaf8bc3","04/26/2022, 07:40:52",0.127061998263318,"32","Male","left",0,1,0,0,TRUE,"E_F_sandra_bullock.jpg P_F_nicola_sturgeon.jpg"
2829,"E_F_angelina_jolie.jpg","E_F_Judi_Dench.jpg","TRUE","pictures/stimuli/E","pictures/stimuli/E","F","F","3","574b5c065bef98000eaf8bc3","04/26/2022, 07:40:52",-0.970291623101703,"32","Male","left",1,1,0,0,FALSE,"E_F_angelina_jolie.jpg E_F_Judi_Dench.jpg"
4194,"E_F_angelina_jolie.jpg","E_F_sandra_bullock.jpg","TRUE","pictures/stimuli/E","pictures/stimuli/E","F","F","1","574b5c065bef98000eaf8bc3","04/26/2022, 07:40:52",-2.06764524446672,"32","Male","left",1,0,0,0,TRUE,"E_F_angelina_jolie.jpg E_F_sandra_bullock.jpg"
3252,"E_F_angelina_jolie.jpg","E_M_nicolas_cage.jpg","TRUE","pictures/stimuli/E","pictures/stimuli/E","F","M","5","574b5c065bef98000eaf8bc3","04/26/2022, 07:40:52",0.127061998263318,"32","Male","left",1,1,0,0,FALSE,"E_F_angelina_jolie.jpg E_M_nicolas_cage.jpg"
5621,"E_M_nicolas_cage.jpg","P_F_nicola_sturgeon.jpg","FALSE","pictures/stimuli/E","pictures/stimuli/P","M","F","6","574b5c065bef98000eaf8bc3","04/26/2022, 07:40:52",0.675738808945829,"32","Male","left",1,1,0,0,FALSE,"E_M_nicolas_cage.jpg P_F_nicola_sturgeon.jpg"
3725,"E_F_Judi_Dench.jpg","E_M_Hugh_Grant.jpg","TRUE","pictures/stimuli/E","pictures/stimuli/E","F","M","6","574b5c065bef98000eaf8bc3","04/26/2022, 07:40:52",0.675738808945829,"32","Male","left",1,1,0,0,FALSE,"E_F_Judi_Dench.jpg E_M_Hugh_Grant.jpg"
13977,"E_F_keira_knightley.jpg","P_M_george_Wbush.jpg","FALSE","pictures/stimuli/E","pictures/stimuli/P","F","M","6","574b5c065bef98000eaf8bc3","04/26/2022, 07:40:52",0.675738808945829,"32","Male","left",1,1,0,0,FALSE,"E_F_keira_knightley.jpg P_M_george_Wbush.jpg"
39316,"E_F_Judi_Dench.jpg","P_M_david_cameron.jpg","FALSE","pictures/stimuli/E","pictures/stimuli/P","F","M","6","574b5c065bef98000eaf8bc3","04/26/2022, 07:40:52",0.675738808945829,"32","Male","left",1,1,0,0,TRUE,"E_F_Judi_Dench.jpg P_M_david_cameron.jpg"
2406,"E_F_jennifer_aniston.jpg","E_M_Hugh_Grant.jpg","TRUE","pictures/stimuli/E","pictures/stimuli/E","F","M","6","574b5c065bef98000eaf8bc3","04/26/2022, 07:40:52",0.675738808945829,"32","Male","left",1,1,0,0,FALSE,"E_F_jennifer_aniston.jpg E_M_Hugh_Grant.jpg"
5308,"E_F_Kate_Winslet.jpg","E_F_keira_knightley.jpg","TRUE","pictures/stimuli/E","pictures/stimuli/E","F","F","3","574b5c065bef98000eaf8bc3","04/26/2022, 07:40:52",-0.970291623101703,"32","Male","left",1,1,0,0,FALSE,"E_F_Kate_Winslet.jpg E_F_keira_knightley.jpg"
7914,"P_M_david_cameron.jpg","P_M_Tony_Blair.jpg","TRUE","pictures/stimuli/P","pictures/stimuli/P","M","M","4","574b5c065bef98000eaf8bc3","04/26/2022, 07:40:52",-0.421614812419193,"32","Male","left",1,1,0,0,FALSE,"P_M_david_cameron.jpg P_M_Tony_Blair.jpg"
1572,"E_F_jennifer_aniston.jpg","P_M_george_Wbush.jpg","FALSE","pictures/stimuli/E","pictures/stimuli/P","F","M","6","574b5c065bef98000eaf8bc3","04/26/2022, 07:40:52",0.675738808945829,"32","Male","left",1,1,0,0,FALSE,"E_F_jennifer_aniston.jpg P_M_george_Wbush.jpg"
2374,"E_F_Judi_Dench.jpg","P_F_tehresy_may.jpg","FALSE","pictures/stimuli/E","pictures/stimuli/P","F","F","6","574b5c065bef98000eaf8bc3","04/26/2022, 07:40:52",0.675738808945829,"32","Male","left",1,1,0,0,FALSE,"E_F_Judi_Dench.jpg P_F_tehresy_may.jpg"
11577,"P_F_nicola_sturgeon.jpg","P_M_donald_trump.jpg","TRUE","pictures/stimuli/P","pictures/stimuli/P","F","M","6","574b5c065bef98000eaf8bc3","04/26/2022, 07:40:52",0.675738808945829,"32","Male","left",1,1,0,0,FALSE,"P_F_nicola_sturgeon.jpg P_M_donald_trump.jpg"
7062,"E_M_Hugh_Grant.jpg","P_F_nicola_sturgeon.jpg","FALSE","pictures/stimuli/E","pictures/stimuli/P","M","F","6","574b5c065bef98000eaf8bc3","04/26/2022, 07:40:52",0.675738808945829,"32","Male","left",1,1,0,0,FALSE,"E_M_Hugh_Grant.jpg P_F_nicola_sturgeon.jpg"
40160,"E_M_robert_de_niro.jpg","P_M_bill_clinton.jpg","FALSE","pictures/stimuli/E","pictures/stimuli/P","M","M","5","574b5c065bef98000eaf8bc3","04/26/2022, 07:40:52",0.127061998263318,"32","Male","left",1,1,0,0,TRUE,"E_M_robert_de_niro.jpg P_M_bill_clinton.jpg"
59563,"P_M_bill_clinton.jpg","P_M_george_Wbush.jpg","TRUE","pictures/stimuli/P","pictures/stimuli/P","M","M","6","574b5c065bef98000eaf8bc3","04/26/2022, 07:40:52",0.675738808945829,"32","Male","left",1,1,0,0,TRUE,"P_M_bill_clinton.jpg P_M_george_Wbush.jpg"
1884,"E_M_tom_hankes.jpg","P_F_hillary_clinton.jpg","FALSE","pictures/stimuli/E","pictures/stimuli/P","M","F","6","574b5c065bef98000eaf8bc3","04/26/2022, 07:40:52",0.675738808945829,"32","Male","left",1,1,0,0,FALSE,"E_M_tom_hankes.jpg P_F_hillary_clinton.jpg"
1734,"E_M_nicolas_cage.jpg","P_M_boris_johnson.jpg","FALSE","pictures/stimuli/E","pictures/stimuli/P","M","M","6","574b5c065bef98000eaf8bc3","04/26/2022, 07:40:52",0.675738808945829,"32","Male","left",1,1,0,0,FALSE,"E_M_nicolas_cage.jpg P_M_boris_johnson.jpg"
1574,"E_M_michael_caine.jpg","P_F_hillary_clinton.jpg","FALSE","pictures/stimuli/E","pictures/stimuli/P","M","F","5","574b5c065bef98000eaf8bc3","04/26/2022, 07:40:52",0.127061998263318,"32","Male","left",1,1,0,0,FALSE,"E_M_michael_caine.jpg P_F_hillary_clinton.jpg"
2364,"E_F_Kate_Winslet.jpg","E_M_michael_caine.jpg","TRUE","pictures/stimuli/E","pictures/stimuli/E","F","M","5","574b5c065bef98000eaf8bc3","04/26/2022, 07:40:52",0.127061998263318,"32","Male","left",1,1,0,0,FALSE,"E_F_Kate_Winslet.jpg E_M_michael_caine.jpg"
2013,"E_M_michael_caine.jpg","P_M_george_Wbush.jpg","FALSE","pictures/stimuli/E","pictures/stimuli/P","M","M","6","574b5c065bef98000eaf8bc3","04/26/2022, 07:40:52",0.675738808945829,"32","Male","left",1,1,0,0,FALSE,"E_M_michael_caine.jpg P_M_george_Wbush.jpg"
2310,"E_M_Hugh_Grant.jpg","P_M_boris_johnson.jpg","FALSE","pictures/stimuli/E","pictures/stimuli/P","M","M","4","574b5c065bef98000eaf8bc3","04/26/2022, 07:40:52",-0.421614812419193,"32","Male","left",1,1,0,0,FALSE,"E_M_Hugh_Grant.jpg P_M_boris_johnson.jpg"
3093,"E_F_angelina_jolie.jpg","E_M_Hugh_Grant.jpg","TRUE","pictures/stimuli/E","pictures/stimuli/E","F","M","4","574b5c065bef98000eaf8bc3","04/26/2022, 07:40:52",-0.421614812419193,"32","Male","left",1,1,0,0,FALSE,"E_F_angelina_jolie.jpg E_M_Hugh_Grant.jpg"
3124,"E_F_Kate_Winslet.jpg","P_F_hillary_clinton.jpg","FALSE","pictures/stimuli/E","pictures/stimuli/P","F","F","6","574b5c065bef98000eaf8bc3","04/26/2022, 07:40:52",0.675738808945829,"32","Male","left",1,1,0,0,FALSE,"E_F_Kate_Winslet.jpg P_F_hillary_clinton.jpg"
3511,"P_F_hillary_clinton.jpg","P_M_boris_johnson.jpg","TRUE","pictures/stimuli/P","pictures/stimuli/P","F","M","1","574b5c065bef98000eaf8bc3","04/26/2022, 07:40:52",-2.06764524446672,"32","Male","left",1,1,0,0,FALSE,"P_F_hillary_clinton.jpg P_M_boris_johnson.jpg"
2137,"E_F_Kate_Winslet.jpg","E_F_sandra_bullock.jpg","TRUE","pictures/stimuli/E","pictures/stimuli/E","F","F","3","574b5c065bef98000eaf8bc3","04/26/2022, 07:40:52",-0.970291623101703,"32","Male","left",1,0,0,0,TRUE,"E_F_Kate_Winslet.jpg E_F_sandra_bullock.jpg"
4581,"E_F_Judi_Dench.jpg","P_M_george_Wbush.jpg","FALSE","pictures/stimuli/E","pictures/stimuli/P","F","M","6","574b5c065bef98000eaf8bc3","04/26/2022, 07:40:52",0.675738808945829,"32","Male","left",1,1,0,0,FALSE,"E_F_Judi_Dench.jpg P_M_george_Wbush.jpg"
4004,"E_M_Hugh_Grant.jpg","E_M_tom_hankes.jpg","TRUE","pictures/stimuli/E","pictures/stimuli/E","M","M","2","574b5c065bef98000eaf8bc3","04/26/2022, 07:40:52",-1.51896843378421,"32","Male","left",1,1,0,0,FALSE,"E_M_Hugh_Grant.jpg E_M_tom_hankes.jpg"
7065,"E_F_jennifer_aniston.jpg","E_M_robert_de_niro.jpg","TRUE","pictures/stimuli/E","pictures/stimuli/E","F","M","6","574b5c065bef98000eaf8bc3","04/26/2022, 07:40:52",0.675738808945829,"32","Male","left",1,1,0,0,FALSE,"E_F_jennifer_aniston.jpg E_M_robert_de_niro.jpg"
2167,"E_F_sandra_bullock.jpg","P_M_bill_clinton.jpg","FALSE","pictures/stimuli/E","pictures/stimuli/P","F","M","6","574b5c065bef98000eaf8bc3","04/26/2022, 07:40:52",0.675738808945829,"32","Male","left",0,1,0,0,TRUE,"E_F_sandra_bullock.jpg P_M_bill_clinton.jpg"
1545,"E_F_Judi_Dench.jpg","P_M_donald_trump.jpg","FALSE","pictures/stimuli/E","pictures/stimuli/P","F","M","6","574b5c065bef98000eaf8bc3","04/26/2022, 07:40:52",0.675738808945829,"32","Male","left",1,1,0,0,FALSE,"E_F_Judi_Dench.jpg P_M_donald_trump.jpg"
2372,"P_M_boris_johnson.jpg","P_M_david_cameron.jpg","TRUE","pictures/stimuli/P","pictures/stimuli/P","M","M","1","574b5c065bef98000eaf8bc3","04/26/2022, 07:40:52",-2.06764524446672,"32","Male","left",1,1,0,0,FALSE,"P_M_boris_johnson.jpg P_M_david_cameron.jpg"
1973,"P_M_boris_johnson.jpg","P_M_george_Wbush.jpg","TRUE","pictures/stimuli/P","pictures/stimuli/P","M","M","1","574b5c065bef98000eaf8bc3","04/26/2022, 07:40:52",-2.06764524446672,"32","Male","left",1,1,0,0,FALSE,"P_M_boris_johnson.jpg P_M_george_Wbush.jpg"
5717,"E_F_Judi_Dench.jpg","E_M_tom_hankes.jpg","TRUE","pictures/stimuli/E","pictures/stimuli/E","F","M","1","574b5c065bef98000eaf8bc3","04/26/2022, 07:40:52",-2.06764524446672,"32","Male","left",1,1,0,0,FALSE,"E_F_Judi_Dench.jpg E_M_tom_hankes.jpg"
3916,"E_M_Hugh_Grant.jpg","P_M_Tony_Blair.jpg","FALSE","pictures/stimuli/E","pictures/stimuli/P","M","M","1","574b5c065bef98000eaf8bc3","04/26/2022, 07:40:52",-2.06764524446672,"32","Male","left",1,1,0,0,FALSE,"E_M_Hugh_Grant.jpg P_M_Tony_Blair.jpg"
3205,"E_M_michael_caine.jpg","P_M_david_cameron.jpg","FALSE","pictures/stimuli/E","pictures/stimuli/P","M","M","4","574b5c065bef98000eaf8bc3","04/26/2022, 07:40:52",-0.421614812419193,"32","Male","left",1,1,0,0,FALSE,"E_M_michael_caine.jpg P_M_david_cameron.jpg"
1919,"E_F_jennifer_aniston.jpg","E_M_nicolas_cage.jpg","TRUE","pictures/stimuli/E","pictures/stimuli/E","F","M","6","574b5c065bef98000eaf8bc3","04/26/2022, 07:40:52",0.675738808945829,"32","Male","left",1,1,0,0,FALSE,"E_F_jennifer_aniston.jpg E_M_nicolas_cage.jpg"
1597,"E_M_Hugh_Grant.jpg","P_M_george_Wbush.jpg","FALSE","pictures/stimuli/E","pictures/stimuli/P","M","M","6","574b5c065bef98000eaf8bc3","04/26/2022, 07:40:52",0.675738808945829,"32","Male","left",1,1,0,0,FALSE,"E_M_Hugh_Grant.jpg P_M_george_Wbush.jpg"
3241,"E_M_michael_caine.jpg","E_M_tom_hankes.jpg","TRUE","pictures/stimuli/E","pictures/stimuli/E","M","M","2","574b5c065bef98000eaf8bc3","04/26/2022, 07:40:52",-1.51896843378421,"32","Male","left",1,1,0,0,FALSE,"E_M_michael_caine.jpg E_M_tom_hankes.jpg"
1562,"E_F_Judi_Dench.jpg","P_M_Tony_Blair.jpg","FALSE","pictures/stimuli/E","pictures/stimuli/P","F","M","6","574b5c065bef98000eaf8bc3","04/26/2022, 07:40:52",0.675738808945829,"32","Male","left",1,1,0,0,FALSE,"E_F_Judi_Dench.jpg P_M_Tony_Blair.jpg"
4940,"E_F_sandra_bullock.jpg","P_F_tehresy_may.jpg","FALSE","pictures/stimuli/E","pictures/stimuli/P","F","F","6","574b5c065bef98000eaf8bc3","04/26/2022, 07:40:52",0.675738808945829,"32","Male","left",0,1,0,0,TRUE,"E_F_sandra_bullock.jpg P_F_tehresy_may.jpg"
2589,"P_M_bill_clinton.jpg","P_M_Tony_Blair.jpg","TRUE","pictures/stimuli/P","pictures/stimuli/P","M","M","1","574b5c065bef98000eaf8bc3","04/26/2022, 07:40:52",-2.06764524446672,"32","Male","left",1,1,0,0,FALSE,"P_M_bill_clinton.jpg P_M_Tony_Blair.jpg"
2581,"P_F_hillary_clinton.jpg","P_M_bill_clinton.jpg","TRUE","pictures/stimuli/P","pictures/stimuli/P","F","M","1","574b5c065bef98000eaf8bc3","04/26/2022, 07:40:52",-2.06764524446672,"32","Male","left",1,1,0,0,FALSE,"P_F_hillary_clinton.jpg P_M_bill_clinton.jpg"
2414,"E_M_robert_de_niro.jpg","P_M_george_Wbush.jpg","FALSE","pictures/stimuli/E","pictures/stimuli/P","M","M","6","574b5c065bef98000eaf8bc3","04/26/2022, 07:40:52",0.675738808945829,"32","Male","left",1,1,0,0,FALSE,"E_M_robert_de_niro.jpg P_M_george_Wbush.jpg"
3175,"E_M_robert_de_niro.jpg","P_F_tehresy_may.jpg","FALSE","pictures/stimuli/E","pictures/stimuli/P","M","F","5","574b5c065bef98000eaf8bc3","04/26/2022, 07:40:52",0.127061998263318,"32","Male","left",1,1,0,0,FALSE,"E_M_robert_de_niro.jpg P_F_tehresy_may.jpg"
2030,"E_M_robert_de_niro.jpg","P_M_donald_trump.jpg","FALSE","pictures/stimuli/E","pictures/stimuli/P","M","M","5","574b5c065bef98000eaf8bc3","04/26/2022, 07:40:52",0.127061998263318,"32","Male","left",1,1,0,0,FALSE,"E_M_robert_de_niro.jpg P_M_donald_trump.jpg"
2106,"E_F_jennifer_aniston.jpg","P_F_tehresy_may.jpg","FALSE","pictures/stimuli/E","pictures/stimuli/P","F","F","6","574b5c065bef98000eaf8bc3","04/26/2022, 07:40:52",0.675738808945829,"32","Male","left",1,1,0,0,FALSE,"E_F_jennifer_aniston.jpg P_F_tehresy_may.jpg"
4116,"E_M_michael_caine.jpg","E_M_robert_de_niro.jpg","TRUE","pictures/stimuli/E","pictures/stimuli/E","M","M","1","574b5c065bef98000eaf8bc3","04/26/2022, 07:40:52",-2.06764524446672,"32","Male","left",1,1,0,0,FALSE,"E_M_michael_caine.jpg E_M_robert_de_niro.jpg"
8399,"E_F_Kate_Winslet.jpg","E_M_Hugh_Grant.jpg","TRUE","pictures/stimuli/E","pictures/stimuli/E","F","M","5","574b5c065bef98000eaf8bc3","04/26/2022, 07:40:52",0.127061998263318,"32","Male","left",1,1,0,0,FALSE,"E_F_Kate_Winslet.jpg E_M_Hugh_Grant.jpg"
6408,"E_M_michael_caine.jpg","P_F_nicola_sturgeon.jpg","FALSE","pictures/stimuli/E","pictures/stimuli/P","M","F","6","574b5c065bef98000eaf8bc3","04/26/2022, 07:40:52",0.675738808945829,"32","Male","left",1,1,0,0,FALSE,"E_M_michael_caine.jpg P_F_nicola_sturgeon.jpg"
9731,"E_M_nicolas_cage.jpg","E_M_robert_de_niro.jpg","TRUE","pictures/stimuli/E","pictures/stimuli/E","M","M","1","574b5c065bef98000eaf8bc3","04/26/2022, 07:40:52",-2.06764524446672,"32","Male","left",1,1,0,0,FALSE,"E_M_nicolas_cage.jpg E_M_robert_de_niro.jpg"
5672,"E_F_jennifer_aniston.jpg","P_M_Tony_Blair.jpg","FALSE","pictures/stimuli/E","pictures/stimuli/P","F","M","6","574b5c065bef98000eaf8bc3","04/26/2022, 07:40:52",0.675738808945829,"32","Male","left",1,1,0,0,FALSE,"E_F_jennifer_aniston.jpg P_M_Tony_Blair.jpg"
2437,"E_F_angelina_jolie.jpg","E_F_keira_knightley.jpg","TRUE","pictures/stimuli/E","pictures/stimuli/E","F","F","2","574b5c065bef98000eaf8bc3","04/26/2022, 07:40:52",-1.51896843378421,"32","Male","left",1,1,0,0,FALSE,"E_F_angelina_jolie.jpg E_F_keira_knightley.jpg"
59076,"E_F_Judi_Dench.jpg","P_F_nicola_sturgeon.jpg","FALSE","pictures/stimuli/E","pictures/stimuli/P","F","F","6","574b5c065bef98000eaf8bc3","04/26/2022, 07:40:52",0.675738808945829,"32","Male","left",1,1,0,0,TRUE,"E_F_Judi_Dench.jpg P_F_nicola_sturgeon.jpg"
2885,"E_M_tom_hankes.jpg","P_M_Tony_Blair.jpg","FALSE","pictures/stimuli/E","pictures/stimuli/P","M","M","6","574b5c065bef98000eaf8bc3","04/26/2022, 07:40:52",0.675738808945829,"32","Male","left",1,1,0,0,FALSE,"E_M_tom_hankes.jpg P_M_Tony_Blair.jpg"
3528,"P_M_bill_clinton.jpg","P_M_boris_johnson.jpg","TRUE","pictures/stimuli/P","pictures/stimuli/P","M","M","1","574b5c065bef98000eaf8bc3","04/26/2022, 07:40:52",-2.06764524446672,"32","Male","left",1,1,0,0,FALSE,"P_M_bill_clinton.jpg P_M_boris_johnson.jpg"
45499,"P_F_hillary_clinton.jpg","P_M_george_Wbush.jpg","TRUE","pictures/stimuli/P","pictures/stimuli/P","F","M","3","574b5c065bef98000eaf8bc3","04/26/2022, 07:40:52",-0.970291623101703,"32","Male","left",1,1,0,0,TRUE,"P_F_hillary_clinton.jpg P_M_george_Wbush.jpg"
1486,"E_F_angelina_jolie.jpg","P_M_boris_johnson.jpg","FALSE","pictures/stimuli/E","pictures/stimuli/P","F","M","6","574b5c065bef98000eaf8bc3","04/26/2022, 07:40:52",0.675738808945829,"32","Male","left",1,1,0,0,FALSE,"E_F_angelina_jolie.jpg P_M_boris_johnson.jpg"
6405,"E_M_nicolas_cage.jpg","E_M_tom_hankes.jpg","TRUE","pictures/stimuli/E","pictures/stimuli/E","M","M","1","574b5c065bef98000eaf8bc3","04/26/2022, 07:40:52",-2.06764524446672,"32","Male","left",1,1,0,0,FALSE,"E_M_nicolas_cage.jpg E_M_tom_hankes.jpg"
2396,"P_M_donald_trump.jpg","P_M_george_Wbush.jpg","TRUE","pictures/stimuli/P","pictures/stimuli/P","M","M","1","574b5c065bef98000eaf8bc3","04/26/2022, 07:40:52",-2.06764524446672,"32","Male","left",1,1,0,0,FALSE,"P_M_donald_trump.jpg P_M_george_Wbush.jpg"
2519,"E_F_Judi_Dench.jpg","E_M_michael_caine.jpg","TRUE","pictures/stimuli/E","pictures/stimuli/E","F","M","1","574b5c065bef98000eaf8bc3","04/26/2022, 07:40:52",-2.06764524446672,"32","Male","left",1,1,0,0,FALSE,"E_F_Judi_Dench.jpg E_M_michael_caine.jpg"
5046,"E_F_keira_knightley.jpg","P_M_donald_trump.jpg","FALSE","pictures/stimuli/E","pictures/stimuli/P","F","M","6","574b5c065bef98000eaf8bc3","04/26/2022, 07:40:52",0.675738808945829,"32","Male","left",1,1,0,0,FALSE,"E_F_keira_knightley.jpg P_M_donald_trump.jpg"
5914,"E_M_tom_hankes.jpg","P_F_tehresy_may.jpg","FALSE","pictures/stimuli/E","pictures/stimuli/P","M","F","6","574b5c065bef98000eaf8bc3","04/26/2022, 07:40:52",0.675738808945829,"32","Male","left",1,1,0,0,FALSE,"E_M_tom_hankes.jpg P_F_tehresy_may.jpg"
3597,"P_F_nicola_sturgeon.jpg","P_M_george_Wbush.jpg","TRUE","pictures/stimuli/P","pictures/stimuli/P","F","M","6","574b5c065bef98000eaf8bc3","04/26/2022, 07:40:52",0.675738808945829,"32","Male","left",1,1,0,0,FALSE,"P_F_nicola_sturgeon.jpg P_M_george_Wbush.jpg"
1667,"E_F_sandra_bullock.jpg","P_M_Tony_Blair.jpg","FALSE","pictures/stimuli/E","pictures/stimuli/P","F","M","6","574b5c065bef98000eaf8bc3","04/26/2022, 07:40:52",0.675738808945829,"32","Male","left",0,1,0,0,TRUE,"E_F_sandra_bullock.jpg P_M_Tony_Blair.jpg"
8003,"P_F_tehresy_may.jpg","P_M_boris_johnson.jpg","TRUE","pictures/stimuli/P","pictures/stimuli/P","F","M","2","574b5c065bef98000eaf8bc3","04/26/2022, 07:40:52",-1.51896843378421,"32","Male","left",1,1,0,0,FALSE,"P_F_tehresy_may.jpg P_M_boris_johnson.jpg"
2340,"E_F_Judi_Dench.jpg","E_F_keira_knightley.jpg","TRUE","pictures/stimuli/E","pictures/stimuli/E","F","F","6","574b5c065bef98000eaf8bc3","04/26/2022, 07:40:52",0.675738808945829,"32","Male","left",1,1,0,0,FALSE,"E_F_Judi_Dench.jpg E_F_keira_knightley.jpg"
17690,"E_F_sandra_bullock.jpg","P_F_hillary_clinton.jpg","FALSE","pictures/stimuli/E","pictures/stimuli/P","F","F","6","574b5c065bef98000eaf8bc3","04/26/2022, 07:40:52",0.675738808945829,"32","Male","left",0,1,0,0,TRUE,"E_F_sandra_bullock.jpg P_F_hillary_clinton.jpg"
3448,"E_F_Kate_Winslet.jpg","P_M_boris_johnson.jpg","FALSE","pictures/stimuli/E","pictures/stimuli/P","F","M","6","574b5c065bef98000eaf8bc3","04/26/2022, 07:40:52",0.675738808945829,"32","Male","left",1,1,0,0,FALSE,"E_F_Kate_Winslet.jpg P_M_boris_johnson.jpg"
2029,"E_F_Judi_Dench.jpg","P_M_bill_clinton.jpg","FALSE","pictures/stimuli/E","pictures/stimuli/P","F","M","6","574b5c065bef98000eaf8bc3","04/26/2022, 07:40:52",0.675738808945829,"32","Male","left",1,1,0,0,FALSE,"E_F_Judi_Dench.jpg P_M_bill_clinton.jpg"
2084,"E_F_sandra_bullock.jpg","P_M_george_Wbush.jpg","FALSE","pictures/stimuli/E","pictures/stimuli/P","F","M","6","574b5c065bef98000eaf8bc3","04/26/2022, 07:40:52",0.675738808945829,"32","Male","left",0,1,0,0,TRUE,"E_F_sandra_bullock.jpg P_M_george_Wbush.jpg"
3308,"E_F_sandra_bullock.jpg","P_M_boris_johnson.jpg","FALSE","pictures/stimuli/E","pictures/stimuli/P","F","M","6","574b5c065bef98000eaf8bc3","04/26/2022, 07:40:52",0.675738808945829,"32","Male","left",0,1,0,0,TRUE,"E_F_sandra_bullock.jpg P_M_boris_johnson.jpg"
2118,"P_F_nicola_sturgeon.jpg","P_F_tehresy_may.jpg","TRUE","pictures/stimuli/P","pictures/stimuli/P","F","F","3","574b5c065bef98000eaf8bc3","04/26/2022, 07:40:52",-0.970291623101703,"32","Male","left",1,1,0,0,FALSE,"P_F_nicola_sturgeon.jpg P_F_tehresy_may.jpg"
2133,"E_F_jennifer_aniston.jpg","E_F_sandra_bullock.jpg","TRUE","pictures/stimuli/E","pictures/stimuli/E","F","F","1","574b5c065bef98000eaf8bc3","04/26/2022, 07:40:52",-2.06764524446672,"32","Male","left",1,0,0,0,TRUE,"E_F_jennifer_aniston.jpg E_F_sandra_bullock.jpg"
1509,"E_F_Kate_Winslet.jpg","P_M_george_Wbush.jpg","FALSE","pictures/stimuli/E","pictures/stimuli/P","F","M","6","574b5c065bef98000eaf8bc3","04/26/2022, 07:40:52",0.675738808945829,"32","Male","left",1,1,0,0,FALSE,"E_F_Kate_Winslet.jpg P_M_george_Wbush.jpg"
3101,"E_F_angelina_jolie.jpg","E_F_Kate_Winslet.jpg","TRUE","pictures/stimuli/E","pictures/stimuli/E","F","F","1","574b5c065bef98000eaf8bc3","04/26/2022, 07:40:52",-2.06764524446672,"32","Male","left",1,1,0,0,FALSE,"E_F_angelina_jolie.jpg E_F_Kate_Winslet.jpg"
5455,"E_F_jennifer_aniston.jpg","P_F_nicola_sturgeon.jpg","FALSE","pictures/stimuli/E","pictures/stimuli/P","F","F","6","574b5c065bef98000eaf8bc3","04/26/2022, 07:40:52",0.675738808945829,"32","Male","left",1,1,0,0,FALSE,"E_F_jennifer_aniston.jpg P_F_nicola_sturgeon.jpg"
2879,"P_F_hillary_clinton.jpg","P_M_david_cameron.jpg","TRUE","pictures/stimuli/P","pictures/stimuli/P","F","M","1","574b5c065bef98000eaf8bc3","04/26/2022, 07:40:52",-2.06764524446672,"32","Male","left",1,1,0,0,FALSE,"P_F_hillary_clinton.jpg P_M_david_cameron.jpg"
1789,"E_F_sandra_bullock.jpg","E_M_michael_caine.jpg","TRUE","pictures/stimuli/E","pictures/stimuli/E","F","M","6","574b5c065bef98000eaf8bc3","04/26/2022, 07:40:52",0.675738808945829,"32","Male","left",0,1,0,0,TRUE,"E_F_sandra_bullock.jpg E_M_michael_caine.jpg"
2671,"E_M_michael_caine.jpg","E_M_nicolas_cage.jpg","TRUE","pictures/stimuli/E","pictures/stimuli/E","M","M","3","574b5c065bef98000eaf8bc3","04/26/2022, 07:40:52",-0.970291623101703,"32","Male","left",1,1,0,0,FALSE,"E_M_michael_caine.jpg E_M_nicolas_cage.jpg"
2940,"E_F_Kate_Winslet.jpg","P_M_Tony_Blair.jpg","FALSE","pictures/stimuli/E","pictures/stimuli/P","F","M","6","574b5c065bef98000eaf8bc3","04/26/2022, 07:40:52",0.675738808945829,"32","Male","left",1,1,0,0,FALSE,"E_F_Kate_Winslet.jpg P_M_Tony_Blair.jpg"
3732,"E_M_tom_hankes.jpg","P_M_bill_clinton.jpg","FALSE","pictures/stimuli/E","pictures/stimuli/P","M","M","6","574b5c065bef98000eaf8bc3","04/26/2022, 07:40:52",0.675738808945829,"32","Male","left",1,1,0,0,FALSE,"E_M_tom_hankes.jpg P_M_bill_clinton.jpg"
2629,"E_F_angelina_jolie.jpg","P_F_hillary_clinton.jpg","FALSE","pictures/stimuli/E","pictures/stimuli/P","F","F","6","574b5c065bef98000eaf8bc3","04/26/2022, 07:40:52",0.675738808945829,"32","Male","left",1,1,0,0,FALSE,"E_F_angelina_jolie.jpg P_F_hillary_clinton.jpg"
5813,"P_M_bill_clinton.jpg","P_M_david_cameron.jpg","TRUE","pictures/stimuli/P","pictures/stimuli/P","M","M","4","574b5c065bef98000eaf8bc3","04/26/2022, 07:40:52",-0.421614812419193,"32","Male","left",1,1,0,0,FALSE,"P_M_bill_clinton.jpg P_M_david_cameron.jpg"
1964,"E_F_angelina_jolie.jpg","P_M_Tony_Blair.jpg","FALSE","pictures/stimuli/E","pictures/stimuli/P","F","M","6","574b5c065bef98000eaf8bc3","04/26/2022, 07:40:52",0.675738808945829,"32","Male","left",1,1,0,0,FALSE,"E_F_angelina_jolie.jpg P_M_Tony_Blair.jpg"
3018,"E_M_Hugh_Grant.jpg","E_M_robert_de_niro.jpg","TRUE","pictures/stimuli/E","pictures/stimuli/E","M","M","3","574b5c065bef98000eaf8bc3","04/26/2022, 07:40:52",-0.970291623101703,"32","Male","left",1,1,0,0,FALSE,"E_M_Hugh_Grant.jpg E_M_robert_de_niro.jpg"
1815,"E_F_sandra_bullock.jpg","E_M_robert_de_niro.jpg","TRUE","pictures/stimuli/E","pictures/stimuli/E","F","M","6","574b5c065bef98000eaf8bc3","04/26/2022, 07:40:52",0.675738808945829,"32","Male","left",0,1,0,0,TRUE,"E_F_sandra_bullock.jpg E_M_robert_de_niro.jpg"
1981,"E_M_tom_hankes.jpg","P_M_boris_johnson.jpg","FALSE","pictures/stimuli/E","pictures/stimuli/P","M","M","6","574b5c065bef98000eaf8bc3","04/26/2022, 07:40:52",0.675738808945829,"32","Male","left",1,1,0,0,FALSE,"E_M_tom_hankes.jpg P_M_boris_johnson.jpg"
1590,"E_F_Kate_Winslet.jpg","P_M_bill_clinton.jpg","FALSE","pictures/stimuli/E","pictures/stimuli/P","F","M","6","574b5c065bef98000eaf8bc3","04/26/2022, 07:40:52",0.675738808945829,"32","Male","left",1,1,0,0,FALSE,"E_F_Kate_Winslet.jpg P_M_bill_clinton.jpg"
4306,"E_F_keira_knightley.jpg","P_F_hillary_clinton.jpg","FALSE","pictures/stimuli/E","pictures/stimuli/P","F","F","6","574b5c065bef98000eaf8bc3","04/26/2022, 07:40:52",0.675738808945829,"32","Male","left",1,1,0,0,FALSE,"E_F_keira_knightley.jpg P_F_hillary_clinton.jpg"
1780,"P_M_boris_johnson.jpg","P_M_donald_trump.jpg","TRUE","pictures/stimuli/P","pictures/stimuli/P","M","M","1","574b5c065bef98000eaf8bc3","04/26/2022, 07:40:52",-2.06764524446672,"32","Male","left",1,1,0,0,FALSE,"P_M_boris_johnson.jpg P_M_donald_trump.jpg"
2015,"E_F_keira_knightley.jpg","E_M_nicolas_cage.jpg","TRUE","pictures/stimuli/E","pictures/stimuli/E","F","M","6","574b5c065bef98000eaf8bc3","04/26/2022, 07:40:52",0.675738808945829,"32","Male","left",1,1,0,0,FALSE,"E_F_keira_knightley.jpg E_M_nicolas_cage.jpg"
2112,"P_F_nicola_sturgeon.jpg","P_M_bill_clinton.jpg","TRUE","pictures/stimuli/P","pictures/stimuli/P","F","M","6","574b5c065bef98000eaf8bc3","04/26/2022, 07:40:52",0.675738808945829,"32","Male","left",1,1,0,0,FALSE,"P_F_nicola_sturgeon.jpg P_M_bill_clinton.jpg"
2333,"E_M_michael_caine.jpg","P_M_boris_johnson.jpg","FALSE","pictures/stimuli/E","pictures/stimuli/P","M","M","6","574b5c065bef98000eaf8bc3","04/26/2022, 07:40:52",0.675738808945829,"32","Male","left",1,1,0,0,FALSE,"E_M_michael_caine.jpg P_M_boris_johnson.jpg"
2399,"E_M_robert_de_niro.jpg","P_F_nicola_sturgeon.jpg","FALSE","pictures/stimuli/E","pictures/stimuli/P","M","F","6","574b5c065bef98000eaf8bc3","04/26/2022, 07:40:52",0.675738808945829,"32","Male","left",1,1,0,0,FALSE,"E_M_robert_de_niro.jpg P_F_nicola_sturgeon.jpg"
2651,"E_F_jennifer_aniston.jpg","P_F_hillary_clinton.jpg","FALSE","pictures/stimuli/E","pictures/stimuli/P","F","F","6","574b5c065bef98000eaf8bc3","04/26/2022, 07:40:52",0.675738808945829,"32","Male","left",1,1,0,0,FALSE,"E_F_jennifer_aniston.jpg P_F_hillary_clinton.jpg"
1629,"E_F_angelina_jolie.jpg","E_M_michael_caine.jpg","TRUE","pictures/stimuli/E","pictures/stimuli/E","F","M","6","574b5c065bef98000eaf8bc3","04/26/2022, 07:40:52",0.675738808945829,"32","Male","left",1,1,0,0,FALSE,"E_F_angelina_jolie.jpg E_M_michael_caine.jpg"
4388,"P_F_hillary_clinton.jpg","P_M_Tony_Blair.jpg","TRUE","pictures/stimuli/P","pictures/stimuli/P","F","M","3","574b5c065bef98000eaf8bc3","04/26/2022, 07:40:52",-0.970291623101703,"32","Male","left",1,1,0,0,FALSE,"P_F_hillary_clinton.jpg P_M_Tony_Blair.jpg"
1725,"E_M_michael_caine.jpg","P_M_bill_clinton.jpg","FALSE","pictures/stimuli/E","pictures/stimuli/P","M","M","6","574b5c065bef98000eaf8bc3","04/26/2022, 07:40:52",0.675738808945829,"32","Male","left",1,1,0,0,FALSE,"E_M_michael_caine.jpg P_M_bill_clinton.jpg"
3029,"E_M_robert_de_niro.jpg","E_M_tom_hankes.jpg","TRUE","pictures/stimuli/E","pictures/stimuli/E","M","M","1","574b5c065bef98000eaf8bc3","04/26/2022, 07:40:52",-2.06764524446672,"32","Male","left",1,1,0,0,FALSE,"E_M_robert_de_niro.jpg E_M_tom_hankes.jpg"
2031,"E_M_robert_de_niro.jpg","P_M_boris_johnson.jpg","FALSE","pictures/stimuli/E","pictures/stimuli/P","M","M","6","574b5c065bef98000eaf8bc3","04/26/2022, 07:40:52",0.675738808945829,"32","Male","left",1,1,0,0,FALSE,"E_M_robert_de_niro.jpg P_M_boris_johnson.jpg"
2058,"E_M_tom_hankes.jpg","P_M_george_Wbush.jpg","FALSE","pictures/stimuli/E","pictures/stimuli/P","M","M","6","574b5c065bef98000eaf8bc3","04/26/2022, 07:40:52",0.675738808945829,"32","Male","left",1,1,0,0,FALSE,"E_M_tom_hankes.jpg P_M_george_Wbush.jpg"
2637,"E_F_Judi_Dench.jpg","P_M_boris_johnson.jpg","FALSE","pictures/stimuli/E","pictures/stimuli/P","F","M","6","574b5c065bef98000eaf8bc3","04/26/2022, 07:40:52",0.675738808945829,"32","Male","left",1,1,0,0,FALSE,"E_F_Judi_Dench.jpg P_M_boris_johnson.jpg"
1590,"E_F_angelina_jolie.jpg","P_F_nicola_sturgeon.jpg","FALSE","pictures/stimuli/E","pictures/stimuli/P","F","F","6","574b5c065bef98000eaf8bc3","04/26/2022, 07:40:52",0.675738808945829,"32","Male","left",1,1,0,0,FALSE,"E_F_angelina_jolie.jpg P_F_nicola_sturgeon.jpg"
1765,"E_M_robert_de_niro.jpg","P_F_hillary_clinton.jpg","FALSE","pictures/stimuli/E","pictures/stimuli/P","M","F","6","574b5c065bef98000eaf8bc3","04/26/2022, 07:40:52",0.675738808945829,"32","Male","left",1,1,0,0,FALSE,"E_M_robert_de_niro.jpg P_F_hillary_clinton.jpg"
1795,"E_F_Kate_Winslet.jpg","E_M_nicolas_cage.jpg","TRUE","pictures/stimuli/E","pictures/stimuli/E","F","M","6","574b5c065bef98000eaf8bc3","04/26/2022, 07:40:52",0.675738808945829,"32","Male","left",1,1,0,0,FALSE,"E_F_Kate_Winslet.jpg E_M_nicolas_cage.jpg"
1990,"E_M_tom_hankes.jpg","P_M_donald_trump.jpg","FALSE","pictures/stimuli/E","pictures/stimuli/P","M","M","6","574b5c065bef98000eaf8bc3","04/26/2022, 07:40:52",0.675738808945829,"32","Male","left",1,1,0,0,FALSE,"E_M_tom_hankes.jpg P_M_donald_trump.jpg"
2334,"P_F_tehresy_may.jpg","P_M_Tony_Blair.jpg","TRUE","pictures/stimuli/P","pictures/stimuli/P","F","M","4","574b5c065bef98000eaf8bc3","04/26/2022, 07:40:52",-0.421614812419193,"32","Male","left",1,1,0,0,FALSE,"P_F_tehresy_may.jpg P_M_Tony_Blair.jpg"
3597,"E_F_angelina_jolie.jpg","E_F_jennifer_aniston.jpg","TRUE","pictures/stimuli/E","pictures/stimuli/E","F","F","2","574b5c065bef98000eaf8bc3","04/26/2022, 07:40:52",-1.51896843378421,"32","Male","left",1,1,0,0,FALSE,"E_F_angelina_jolie.jpg E_F_jennifer_aniston.jpg"
2052,"E_M_nicolas_cage.jpg","P_F_hillary_clinton.jpg","FALSE","pictures/stimuli/E","pictures/stimuli/P","M","F","6","574b5c065bef98000eaf8bc3","04/26/2022, 07:40:52",0.675738808945829,"32","Male","left",1,1,0,0,FALSE,"E_M_nicolas_cage.jpg P_F_hillary_clinton.jpg"
2482,"P_F_hillary_clinton.jpg","P_M_donald_trump.jpg","TRUE","pictures/stimuli/P","pictures/stimuli/P","F","M","1","574b5c065bef98000eaf8bc3","04/26/2022, 07:40:52",-2.06764524446672,"32","Male","left",1,1,0,0,FALSE,"P_F_hillary_clinton.jpg P_M_donald_trump.jpg"
2175,"P_F_tehresy_may.jpg","P_M_donald_trump.jpg","TRUE","pictures/stimuli/P","pictures/stimuli/P","F","M","5","574b5c065bef98000eaf8bc3","04/26/2022, 07:40:52",0.127061998263318,"32","Male","left",1,1,0,0,FALSE,"P_F_tehresy_may.jpg P_M_donald_trump.jpg"
3563,"P_F_hillary_clinton.jpg","P_F_nicola_sturgeon.jpg","TRUE","pictures/stimuli/P","pictures/stimuli/P","F","F","5","574b5c065bef98000eaf8bc3","04/26/2022, 07:40:52",0.127061998263318,"32","Male","left",1,1,0,0,FALSE,"P_F_hillary_clinton.jpg P_F_nicola_sturgeon.jpg"
6677,"E_F_Kate_Winslet.jpg","P_F_hillary_clinton.jpg","FALSE","pictures/stimuli/E","pictures/stimuli/P","F","F","4","59497c498fb2140001afda85","04/26/2022, 07:20:30",-0.0076916334607615,"29","Female","right",0,0,0,0,TRUE,"E_F_Kate_Winslet.jpg P_F_hillary_clinton.jpg"
3460,"P_M_bill_clinton.jpg","P_M_george_Wbush.jpg","TRUE","pictures/stimuli/P","pictures/stimuli/P","M","M","6","59497c498fb2140001afda85","04/26/2022, 07:20:30",1.45371872408398,"29","Female","right",0,1,0,0,TRUE,"P_M_bill_clinton.jpg P_M_george_Wbush.jpg"
3724,"E_F_Kate_Winslet.jpg","P_M_donald_trump.jpg","FALSE","pictures/stimuli/E","pictures/stimuli/P","F","M","6","59497c498fb2140001afda85","04/26/2022, 07:20:30",1.45371872408398,"29","Female","right",0,1,0,0,TRUE,"E_F_Kate_Winslet.jpg P_M_donald_trump.jpg"
4376,"E_F_Kate_Winslet.jpg","E_F_sandra_bullock.jpg","TRUE","pictures/stimuli/E","pictures/stimuli/E","F","F","5","59497c498fb2140001afda85","04/26/2022, 07:20:30",0.72301354531161,"29","Female","right",0,1,0,0,TRUE,"E_F_Kate_Winslet.jpg E_F_sandra_bullock.jpg"
4215,"E_F_Kate_Winslet.jpg","E_M_robert_de_niro.jpg","TRUE","pictures/stimuli/E","pictures/stimuli/E","F","M","6","59497c498fb2140001afda85","04/26/2022, 07:20:30",1.45371872408398,"29","Female","right",0,0,0,0,TRUE,"E_F_Kate_Winslet.jpg E_M_robert_de_niro.jpg"
3278,"E_M_michael_caine.jpg","P_M_david_cameron.jpg","FALSE","pictures/stimuli/E","pictures/stimuli/P","M","M","5","59497c498fb2140001afda85","04/26/2022, 07:20:30",0.72301354531161,"29","Female","right",0,1,0,0,TRUE,"E_M_michael_caine.jpg P_M_david_cameron.jpg"
3521,"E_F_jennifer_aniston.jpg","E_F_Kate_Winslet.jpg","TRUE","pictures/stimuli/E","pictures/stimuli/E","F","F","4","59497c498fb2140001afda85","04/26/2022, 07:20:30",-0.0076916334607615,"29","Female","right",1,0,0,0,TRUE,"E_F_jennifer_aniston.jpg E_F_Kate_Winslet.jpg"
7277,"P_F_nicola_sturgeon.jpg","P_M_Tony_Blair.jpg","TRUE","pictures/stimuli/P","pictures/stimuli/P","F","M","2","59497c498fb2140001afda85","04/26/2022, 07:20:30",-1.4691019910055,"29","Female","right",1,1,0,0,TRUE,"P_F_nicola_sturgeon.jpg P_M_Tony_Blair.jpg"
4470,"E_M_robert_de_niro.jpg","P_M_george_Wbush.jpg","FALSE","pictures/stimuli/E","pictures/stimuli/P","M","M","4","59497c498fb2140001afda85","04/26/2022, 07:20:30",-0.0076916334607615,"29","Female","right",0,1,0,0,TRUE,"E_M_robert_de_niro.jpg P_M_george_Wbush.jpg"
3751,"P_M_bill_clinton.jpg","P_M_donald_trump.jpg","TRUE","pictures/stimuli/P","pictures/stimuli/P","M","M","4","59497c498fb2140001afda85","04/26/2022, 07:20:30",-0.0076916334607615,"29","Female","right",0,1,0,0,TRUE,"P_M_bill_clinton.jpg P_M_donald_trump.jpg"
4179,"E_M_robert_de_niro.jpg","P_F_hillary_clinton.jpg","FALSE","pictures/stimuli/E","pictures/stimuli/P","M","F","4","59497c498fb2140001afda85","04/26/2022, 07:20:30",-0.0076916334607615,"29","Female","right",0,0,0,0,TRUE,"E_M_robert_de_niro.jpg P_F_hillary_clinton.jpg"
5731,"E_F_Kate_Winslet.jpg","E_M_Hugh_Grant.jpg","TRUE","pictures/stimuli/E","pictures/stimuli/E","F","M","3","59497c498fb2140001afda85","04/26/2022, 07:20:30",-0.738396812233132,"29","Female","right",0,1,0,0,TRUE,"E_F_Kate_Winslet.jpg E_M_Hugh_Grant.jpg"
4092,"E_F_angelina_jolie.jpg","P_M_Tony_Blair.jpg","FALSE","pictures/stimuli/E","pictures/stimuli/P","F","M","6","59497c498fb2140001afda85","04/26/2022, 07:20:30",1.45371872408398,"29","Female","right",1,1,0,0,TRUE,"E_F_angelina_jolie.jpg P_M_Tony_Blair.jpg"
3618,"P_F_nicola_sturgeon.jpg","P_M_david_cameron.jpg","TRUE","pictures/stimuli/P","pictures/stimuli/P","F","M","1","59497c498fb2140001afda85","04/26/2022, 07:20:30",-2.19980716977787,"29","Female","right",1,1,0,0,TRUE,"P_F_nicola_sturgeon.jpg P_M_david_cameron.jpg"
3107,"E_F_Judi_Dench.jpg","P_M_bill_clinton.jpg","FALSE","pictures/stimuli/E","pictures/stimuli/P","F","M","4","59497c498fb2140001afda85","04/26/2022, 07:20:30",-0.0076916334607615,"29","Female","right",1,0,0,0,TRUE,"E_F_Judi_Dench.jpg P_M_bill_clinton.jpg"
5395,"E_M_robert_de_niro.jpg","P_M_donald_trump.jpg","FALSE","pictures/stimuli/E","pictures/stimuli/P","M","M","6","59497c498fb2140001afda85","04/26/2022, 07:20:30",1.45371872408398,"29","Female","right",0,1,0,0,TRUE,"E_M_robert_de_niro.jpg P_M_donald_trump.jpg"
3215,"E_M_michael_caine.jpg","P_M_Tony_Blair.jpg","FALSE","pictures/stimuli/E","pictures/stimuli/P","M","M","4","59497c498fb2140001afda85","04/26/2022, 07:20:30",-0.0076916334607615,"29","Female","right",0,1,0,0,TRUE,"E_M_michael_caine.jpg P_M_Tony_Blair.jpg"
4192,"E_M_nicolas_cage.jpg","P_F_hillary_clinton.jpg","FALSE","pictures/stimuli/E","pictures/stimuli/P","M","F","4","59497c498fb2140001afda85","04/26/2022, 07:20:30",-0.0076916334607615,"29","Female","right",0,0,0,0,TRUE,"E_M_nicolas_cage.jpg P_F_hillary_clinton.jpg"
3224,"E_F_Judi_Dench.jpg","P_F_hillary_clinton.jpg","FALSE","pictures/stimuli/E","pictures/stimuli/P","F","F","4","59497c498fb2140001afda85","04/26/2022, 07:20:30",-0.0076916334607615,"29","Female","right",1,0,0,0,TRUE,"E_F_Judi_Dench.jpg P_F_hillary_clinton.jpg"
3718,"P_M_boris_johnson.jpg","P_M_david_cameron.jpg","TRUE","pictures/stimuli/P","pictures/stimuli/P","M","M","1","59497c498fb2140001afda85","04/26/2022, 07:20:30",-2.19980716977787,"29","Female","right",1,1,0,0,TRUE,"P_M_boris_johnson.jpg P_M_david_cameron.jpg"
4588,"E_F_keira_knightley.jpg","P_M_donald_trump.jpg","FALSE","pictures/stimuli/E","pictures/stimuli/P","F","M","6","59497c498fb2140001afda85","04/26/2022, 07:20:30",1.45371872408398,"29","Female","right",0,1,0,0,TRUE,"E_F_keira_knightley.jpg P_M_donald_trump.jpg"
5246,"E_F_Judi_Dench.jpg","P_M_george_Wbush.jpg","FALSE","pictures/stimuli/E","pictures/stimuli/P","F","M","4","59497c498fb2140001afda85","04/26/2022, 07:20:30",-0.0076916334607615,"29","Female","right",1,1,0,0,TRUE,"E_F_Judi_Dench.jpg P_M_george_Wbush.jpg"
4536,"E_M_nicolas_cage.jpg","P_F_tehresy_may.jpg","FALSE","pictures/stimuli/E","pictures/stimuli/P","M","F","4","59497c498fb2140001afda85","04/26/2022, 07:20:30",-0.0076916334607615,"29","Female","right",0,1,0,0,TRUE,"E_M_nicolas_cage.jpg P_F_tehresy_may.jpg"
2714,"E_M_michael_caine.jpg","P_F_hillary_clinton.jpg","FALSE","pictures/stimuli/E","pictures/stimuli/P","M","F","4","59497c498fb2140001afda85","04/26/2022, 07:20:30",-0.0076916334607615,"29","Female","right",0,0,0,0,TRUE,"E_M_michael_caine.jpg P_F_hillary_clinton.jpg"
2834,"E_M_Hugh_Grant.jpg","P_M_bill_clinton.jpg","FALSE","pictures/stimuli/E","pictures/stimuli/P","M","M","4","59497c498fb2140001afda85","04/26/2022, 07:20:30",-0.0076916334607615,"29","Female","right",1,0,0,0,TRUE,"E_M_Hugh_Grant.jpg P_M_bill_clinton.jpg"
2489,"E_M_michael_caine.jpg","P_M_george_Wbush.jpg","FALSE","pictures/stimuli/E","pictures/stimuli/P","M","M","4","59497c498fb2140001afda85","04/26/2022, 07:20:30",-0.0076916334607615,"29","Female","right",0,1,0,0,TRUE,"E_M_michael_caine.jpg P_M_george_Wbush.jpg"
2668,"E_M_Hugh_Grant.jpg","E_M_tom_hankes.jpg","TRUE","pictures/stimuli/E","pictures/stimuli/E","M","M","4","59497c498fb2140001afda85","04/26/2022, 07:20:30",-0.0076916334607615,"29","Female","right",1,0,0,0,TRUE,"E_M_Hugh_Grant.jpg E_M_tom_hankes.jpg"
3871,"E_F_jennifer_aniston.jpg","E_M_robert_de_niro.jpg","TRUE","pictures/stimuli/E","pictures/stimuli/E","F","M","3","59497c498fb2140001afda85","04/26/2022, 07:20:30",-0.738396812233132,"29","Female","right",1,0,0,0,TRUE,"E_F_jennifer_aniston.jpg E_M_robert_de_niro.jpg"
2952,"E_F_angelina_jolie.jpg","E_M_tom_hankes.jpg","TRUE","pictures/stimuli/E","pictures/stimuli/E","F","M","4","59497c498fb2140001afda85","04/26/2022, 07:20:30",-0.0076916334607615,"29","Female","right",1,0,0,0,TRUE,"E_F_angelina_jolie.jpg E_M_tom_hankes.jpg"
3431,"E_M_nicolas_cage.jpg","E_M_robert_de_niro.jpg","TRUE","pictures/stimuli/E","pictures/stimuli/E","M","M","4","59497c498fb2140001afda85","04/26/2022, 07:20:30",-0.0076916334607615,"29","Female","right",0,0,0,0,TRUE,"E_M_nicolas_cage.jpg E_M_robert_de_niro.jpg"
2477,"P_M_bill_clinton.jpg","P_M_Tony_Blair.jpg","TRUE","pictures/stimuli/P","pictures/stimuli/P","M","M","4","59497c498fb2140001afda85","04/26/2022, 07:20:30",-0.0076916334607615,"29","Female","right",0,1,0,0,TRUE,"P_M_bill_clinton.jpg P_M_Tony_Blair.jpg"
5288,"E_F_Kate_Winslet.jpg","P_F_tehresy_may.jpg","FALSE","pictures/stimuli/E","pictures/stimuli/P","F","F","5","59497c498fb2140001afda85","04/26/2022, 07:20:30",0.72301354531161,"29","Female","right",0,1,0,0,TRUE,"E_F_Kate_Winslet.jpg P_F_tehresy_may.jpg"
2568,"E_F_Judi_Dench.jpg","E_M_tom_hankes.jpg","TRUE","pictures/stimuli/E","pictures/stimuli/E","F","M","4","59497c498fb2140001afda85","04/26/2022, 07:20:30",-0.0076916334607615,"29","Female","right",1,0,0,0,TRUE,"E_F_Judi_Dench.jpg E_M_tom_hankes.jpg"
2430,"E_F_Judi_Dench.jpg","P_F_tehresy_may.jpg","FALSE","pictures/stimuli/E","pictures/stimuli/P","F","F","4","59497c498fb2140001afda85","04/26/2022, 07:20:30",-0.0076916334607615,"29","Female","right",1,1,0,0,TRUE,"E_F_Judi_Dench.jpg P_F_tehresy_may.jpg"
2685,"E_F_Judi_Dench.jpg","E_M_michael_caine.jpg","TRUE","pictures/stimuli/E","pictures/stimuli/E","F","M","4","59497c498fb2140001afda85","04/26/2022, 07:20:30",-0.0076916334607615,"29","Female","right",1,0,0,0,TRUE,"E_F_Judi_Dench.jpg E_M_michael_caine.jpg"
4713,"E_M_robert_de_niro.jpg","P_F_tehresy_may.jpg","FALSE","pictures/stimuli/E","pictures/stimuli/P","M","F","5","59497c498fb2140001afda85","04/26/2022, 07:20:30",0.72301354531161,"29","Female","right",0,1,0,0,TRUE,"E_M_robert_de_niro.jpg P_F_tehresy_may.jpg"
3636,"E_F_angelina_jolie.jpg","E_F_Kate_Winslet.jpg","TRUE","pictures/stimuli/E","pictures/stimuli/E","F","F","1","59497c498fb2140001afda85","04/26/2022, 07:20:30",-2.19980716977787,"29","Female","right",1,0,0,0,TRUE,"E_F_angelina_jolie.jpg E_F_Kate_Winslet.jpg"
3763,"E_F_keira_knightley.jpg","P_M_bill_clinton.jpg","FALSE","pictures/stimuli/E","pictures/stimuli/P","F","M","4","59497c498fb2140001afda85","04/26/2022, 07:20:30",-0.0076916334607615,"29","Female","right",0,0,0,0,TRUE,"E_F_keira_knightley.jpg P_M_bill_clinton.jpg"
4685,"E_F_jennifer_aniston.jpg","P_M_george_Wbush.jpg","FALSE","pictures/stimuli/E","pictures/stimuli/P","F","M","6","59497c498fb2140001afda85","04/26/2022, 07:20:30",1.45371872408398,"29","Female","right",1,1,0,0,TRUE,"E_F_jennifer_aniston.jpg P_M_george_Wbush.jpg"
4499,"E_F_sandra_bullock.jpg","P_M_david_cameron.jpg","FALSE","pictures/stimuli/E","pictures/stimuli/P","F","M","6","59497c498fb2140001afda85","04/26/2022, 07:20:30",1.45371872408398,"29","Female","right",1,1,0,0,TRUE,"E_F_sandra_bullock.jpg P_M_david_cameron.jpg"
4707,"E_F_angelina_jolie.jpg","P_M_donald_trump.jpg","FALSE","pictures/stimuli/E","pictures/stimuli/P","F","M","5","59497c498fb2140001afda85","04/26/2022, 07:20:30",0.72301354531161,"29","Female","right",1,1,0,0,TRUE,"E_F_angelina_jolie.jpg P_M_donald_trump.jpg"
2829,"E_F_keira_knightley.jpg","E_M_nicolas_cage.jpg","TRUE","pictures/stimuli/E","pictures/stimuli/E","F","M","4","59497c498fb2140001afda85","04/26/2022, 07:20:30",-0.0076916334607615,"29","Female","right",0,0,0,0,TRUE,"E_F_keira_knightley.jpg E_M_nicolas_cage.jpg"
2256,"E_F_keira_knightley.jpg","P_F_hillary_clinton.jpg","FALSE","pictures/stimuli/E","pictures/stimuli/P","F","F","4","59497c498fb2140001afda85","04/26/2022, 07:20:30",-0.0076916334607615,"29","Female","right",0,0,0,0,TRUE,"E_F_keira_knightley.jpg P_F_hillary_clinton.jpg"
3217,"P_F_hillary_clinton.jpg","P_M_Tony_Blair.jpg","TRUE","pictures/stimuli/P","pictures/stimuli/P","F","M","4","59497c498fb2140001afda85","04/26/2022, 07:20:30",-0.0076916334607615,"29","Female","right",0,1,0,0,TRUE,"P_F_hillary_clinton.jpg P_M_Tony_Blair.jpg"
4360,"P_M_boris_johnson.jpg","P_M_Tony_Blair.jpg","TRUE","pictures/stimuli/P","pictures/stimuli/P","M","M","1","59497c498fb2140001afda85","04/26/2022, 07:20:30",-2.19980716977787,"29","Female","right",1,1,0,0,TRUE,"P_M_boris_johnson.jpg P_M_Tony_Blair.jpg"
4966,"E_F_Judi_Dench.jpg","P_M_boris_johnson.jpg","FALSE","pictures/stimuli/E","pictures/stimuli/P","F","M","5","59497c498fb2140001afda85","04/26/2022, 07:20:30",0.72301354531161,"29","Female","right",1,1,0,0,TRUE,"E_F_Judi_Dench.jpg P_M_boris_johnson.jpg"
2970,"E_M_michael_caine.jpg","P_M_boris_johnson.jpg","FALSE","pictures/stimuli/E","pictures/stimuli/P","M","M","4","59497c498fb2140001afda85","04/26/2022, 07:20:30",-0.0076916334607615,"29","Female","right",0,1,0,0,TRUE,"E_M_michael_caine.jpg P_M_boris_johnson.jpg"
4345,"P_F_nicola_sturgeon.jpg","P_F_tehresy_may.jpg","TRUE","pictures/stimuli/P","pictures/stimuli/P","F","F","1","59497c498fb2140001afda85","04/26/2022, 07:20:30",-2.19980716977787,"29","Female","right",1,1,0,0,TRUE,"P_F_nicola_sturgeon.jpg P_F_tehresy_may.jpg"
2833,"E_M_tom_hankes.jpg","P_F_hillary_clinton.jpg","FALSE","pictures/stimuli/E","pictures/stimuli/P","M","F","4","59497c498fb2140001afda85","04/26/2022, 07:20:30",-0.0076916334607615,"29","Female","right",0,0,0,0,TRUE,"E_M_tom_hankes.jpg P_F_hillary_clinton.jpg"
3933,"E_F_angelina_jolie.jpg","P_M_george_Wbush.jpg","FALSE","pictures/stimuli/E","pictures/stimuli/P","F","M","6","59497c498fb2140001afda85","04/26/2022, 07:20:30",1.45371872408398,"29","Female","right",1,1,0,0,TRUE,"E_F_angelina_jolie.jpg P_M_george_Wbush.jpg"
3100,"E_F_sandra_bullock.jpg","P_F_hillary_clinton.jpg","FALSE","pictures/stimuli/E","pictures/stimuli/P","F","F","4","59497c498fb2140001afda85","04/26/2022, 07:20:30",-0.0076916334607615,"29","Female","right",1,0,0,0,TRUE,"E_F_sandra_bullock.jpg P_F_hillary_clinton.jpg"
2163,"E_M_robert_de_niro.jpg","E_M_tom_hankes.jpg","TRUE","pictures/stimuli/E","pictures/stimuli/E","M","M","4","59497c498fb2140001afda85","04/26/2022, 07:20:30",-0.0076916334607615,"29","Female","right",0,0,0,0,TRUE,"E_M_robert_de_niro.jpg E_M_tom_hankes.jpg"
3853,"E_F_jennifer_aniston.jpg","P_M_boris_johnson.jpg","FALSE","pictures/stimuli/E","pictures/stimuli/P","F","M","6","59497c498fb2140001afda85","04/26/2022, 07:20:30",1.45371872408398,"29","Female","right",1,1,0,0,TRUE,"E_F_jennifer_aniston.jpg P_M_boris_johnson.jpg"
2744,"E_F_Kate_Winslet.jpg","P_F_nicola_sturgeon.jpg","FALSE","pictures/stimuli/E","pictures/stimuli/P","F","F","4","59497c498fb2140001afda85","04/26/2022, 07:20:30",-0.0076916334607615,"29","Female","right",0,1,0,0,TRUE,"E_F_Kate_Winslet.jpg P_F_nicola_sturgeon.jpg"
3941,"E_F_angelina_jolie.jpg","E_M_Hugh_Grant.jpg","TRUE","pictures/stimuli/E","pictures/stimuli/E","F","M","3","59497c498fb2140001afda85","04/26/2022, 07:20:30",-0.738396812233132,"29","Female","right",1,1,0,0,TRUE,"E_F_angelina_jolie.jpg E_M_Hugh_Grant.jpg"
2508,"E_F_angelina_jolie.jpg","P_F_hillary_clinton.jpg","FALSE","pictures/stimuli/E","pictures/stimuli/P","F","F","4","59497c498fb2140001afda85","04/26/2022, 07:20:30",-0.0076916334607615,"29","Female","right",1,0,0,0,TRUE,"E_F_angelina_jolie.jpg P_F_hillary_clinton.jpg"
2573,"E_F_jennifer_aniston.jpg","E_M_michael_caine.jpg","TRUE","pictures/stimuli/E","pictures/stimuli/E","F","M","4","59497c498fb2140001afda85","04/26/2022, 07:20:30",-0.0076916334607615,"29","Female","right",1,0,0,0,TRUE,"E_F_jennifer_aniston.jpg E_M_michael_caine.jpg"
3768,"P_M_boris_johnson.jpg","P_M_donald_trump.jpg","TRUE","pictures/stimuli/P","pictures/stimuli/P","M","M","1","59497c498fb2140001afda85","04/26/2022, 07:20:30",-2.19980716977787,"29","Female","right",1,1,0,0,TRUE,"P_M_boris_johnson.jpg P_M_donald_trump.jpg"
3652,"P_F_hillary_clinton.jpg","P_M_boris_johnson.jpg","TRUE","pictures/stimuli/P","pictures/stimuli/P","F","M","4","59497c498fb2140001afda85","04/26/2022, 07:20:30",-0.0076916334607615,"29","Female","right",0,1,0,0,TRUE,"P_F_hillary_clinton.jpg P_M_boris_johnson.jpg"
3703,"E_M_robert_de_niro.jpg","P_M_boris_johnson.jpg","FALSE","pictures/stimuli/E","pictures/stimuli/P","M","M","5","59497c498fb2140001afda85","04/26/2022, 07:20:30",0.72301354531161,"29","Female","right",0,1,0,0,TRUE,"E_M_robert_de_niro.jpg P_M_boris_johnson.jpg"
2839,"E_F_jennifer_aniston.jpg","P_M_bill_clinton.jpg","FALSE","pictures/stimuli/E","pictures/stimuli/P","F","M","4","59497c498fb2140001afda85","04/26/2022, 07:20:30",-0.0076916334607615,"29","Female","right",1,0,0,0,TRUE,"E_F_jennifer_aniston.jpg P_M_bill_clinton.jpg"
2274,"E_F_jennifer_aniston.jpg","E_M_tom_hankes.jpg","TRUE","pictures/stimuli/E","pictures/stimuli/E","F","M","4","59497c498fb2140001afda85","04/26/2022, 07:20:30",-0.0076916334607615,"29","Female","right",1,0,0,0,TRUE,"E_F_jennifer_aniston.jpg E_M_tom_hankes.jpg"
10164,"E_F_jennifer_aniston.jpg","P_M_Tony_Blair.jpg","FALSE","pictures/stimuli/E","pictures/stimuli/P","F","M","6","59497c498fb2140001afda85","04/26/2022, 07:20:30",1.45371872408398,"29","Female","right",1,1,0,0,TRUE,"E_F_jennifer_aniston.jpg P_M_Tony_Blair.jpg"
2787,"E_F_Judi_Dench.jpg","P_M_david_cameron.jpg","FALSE","pictures/stimuli/E","pictures/stimuli/P","F","M","4","59497c498fb2140001afda85","04/26/2022, 07:20:30",-0.0076916334607615,"29","Female","right",1,1,0,0,TRUE,"E_F_Judi_Dench.jpg P_M_david_cameron.jpg"
3470,"P_M_donald_trump.jpg","P_M_Tony_Blair.jpg","TRUE","pictures/stimuli/P","pictures/stimuli/P","M","M","1","59497c498fb2140001afda85","04/26/2022, 07:20:30",-2.19980716977787,"29","Female","right",1,1,0,0,TRUE,"P_M_donald_trump.jpg P_M_Tony_Blair.jpg"
2864,"E_F_jennifer_aniston.jpg","E_M_nicolas_cage.jpg","TRUE","pictures/stimuli/E","pictures/stimuli/E","F","M","4","59497c498fb2140001afda85","04/26/2022, 07:20:30",-0.0076916334607615,"29","Female","right",1,0,0,0,TRUE,"E_F_jennifer_aniston.jpg E_M_nicolas_cage.jpg"
2515,"E_F_Judi_Dench.jpg","E_M_Hugh_Grant.jpg","TRUE","pictures/stimuli/E","pictures/stimuli/E","F","M","4","59497c498fb2140001afda85","04/26/2022, 07:20:30",-0.0076916334607615,"29","Female","right",1,1,0,0,TRUE,"E_F_Judi_Dench.jpg E_M_Hugh_Grant.jpg"
2012,"E_F_sandra_bullock.jpg","E_M_tom_hankes.jpg","TRUE","pictures/stimuli/E","pictures/stimuli/E","F","M","4","59497c498fb2140001afda85","04/26/2022, 07:20:30",-0.0076916334607615,"29","Female","right",1,0,0,0,TRUE,"E_F_sandra_bullock.jpg E_M_tom_hankes.jpg"
3324,"E_M_michael_caine.jpg","P_M_bill_clinton.jpg","FALSE","pictures/stimuli/E","pictures/stimuli/P","M","M","4","59497c498fb2140001afda85","04/26/2022, 07:20:30",-0.0076916334607615,"29","Female","right",0,0,0,0,TRUE,"E_M_michael_caine.jpg P_M_bill_clinton.jpg"
1777,"E_F_angelina_jolie.jpg","P_M_bill_clinton.jpg","FALSE","pictures/stimuli/E","pictures/stimuli/P","F","M","4","59497c498fb2140001afda85","04/26/2022, 07:20:30",-0.0076916334607615,"29","Female","right",1,0,0,0,TRUE,"E_F_angelina_jolie.jpg P_M_bill_clinton.jpg"
3031,"E_M_michael_caine.jpg","E_M_nicolas_cage.jpg","TRUE","pictures/stimuli/E","pictures/stimuli/E","M","M","4","59497c498fb2140001afda85","04/26/2022, 07:20:30",-0.0076916334607615,"29","Female","right",0,0,0,0,TRUE,"E_M_michael_caine.jpg E_M_nicolas_cage.jpg"
3456,"E_F_angelina_jolie.jpg","P_F_nicola_sturgeon.jpg","FALSE","pictures/stimuli/E","pictures/stimuli/P","F","F","6","59497c498fb2140001afda85","04/26/2022, 07:20:30",1.45371872408398,"29","Female","right",1,1,0,0,TRUE,"E_F_angelina_jolie.jpg P_F_nicola_sturgeon.jpg"
3043,"E_F_jennifer_aniston.jpg","E_F_keira_knightley.jpg","TRUE","pictures/stimuli/E","pictures/stimuli/E","F","F","4","59497c498fb2140001afda85","04/26/2022, 07:20:30",-0.0076916334607615,"29","Female","right",1,0,0,0,TRUE,"E_F_jennifer_aniston.jpg E_F_keira_knightley.jpg"
4858,"E_M_tom_hankes.jpg","P_M_david_cameron.jpg","FALSE","pictures/stimuli/E","pictures/stimuli/P","M","M","5","59497c498fb2140001afda85","04/26/2022, 07:20:30",0.72301354531161,"29","Female","right",0,1,0,0,TRUE,"E_M_tom_hankes.jpg P_M_david_cameron.jpg"
3994,"P_F_tehresy_may.jpg","P_M_david_cameron.jpg","TRUE","pictures/stimuli/P","pictures/stimuli/P","F","M","1","59497c498fb2140001afda85","04/26/2022, 07:20:30",-2.19980716977787,"29","Female","right",1,1,0,0,TRUE,"P_F_tehresy_may.jpg P_M_david_cameron.jpg"
1995,"E_F_keira_knightley.jpg","E_M_tom_hankes.jpg","TRUE","pictures/stimuli/E","pictures/stimuli/E","F","M","4","59497c498fb2140001afda85","04/26/2022, 07:20:30",-0.0076916334607615,"29","Female","right",0,0,0,0,TRUE,"E_F_keira_knightley.jpg E_M_tom_hankes.jpg"
1930,"E_F_keira_knightley.jpg","E_M_michael_caine.jpg","TRUE","pictures/stimuli/E","pictures/stimuli/E","F","M","4","59497c498fb2140001afda85","04/26/2022, 07:20:30",-0.0076916334607615,"29","Female","right",0,0,0,0,TRUE,"E_F_keira_knightley.jpg E_M_michael_caine.jpg"
1931,"E_M_michael_caine.jpg","E_M_tom_hankes.jpg","TRUE","pictures/stimuli/E","pictures/stimuli/E","M","M","4","59497c498fb2140001afda85","04/26/2022, 07:20:30",-0.0076916334607615,"29","Female","right",0,0,0,0,TRUE,"E_M_michael_caine.jpg E_M_tom_hankes.jpg"
1730,"E_F_keira_knightley.jpg","E_F_sandra_bullock.jpg","TRUE","pictures/stimuli/E","pictures/stimuli/E","F","F","4","59497c498fb2140001afda85","04/26/2022, 07:20:30",-0.0076916334607615,"29","Female","right",0,1,0,0,TRUE,"E_F_keira_knightley.jpg E_F_sandra_bullock.jpg"
2606,"E_F_Kate_Winslet.jpg","P_M_david_cameron.jpg","FALSE","pictures/stimuli/E","pictures/stimuli/P","F","M","6","59497c498fb2140001afda85","04/26/2022, 07:20:30",1.45371872408398,"29","Female","right",0,1,0,0,TRUE,"E_F_Kate_Winslet.jpg P_M_david_cameron.jpg"
3700,"E_M_michael_caine.jpg","P_F_nicola_sturgeon.jpg","FALSE","pictures/stimuli/E","pictures/stimuli/P","M","F","4","59497c498fb2140001afda85","04/26/2022, 07:20:30",-0.0076916334607615,"29","Female","right",0,1,0,0,TRUE,"E_M_michael_caine.jpg P_F_nicola_sturgeon.jpg"
2801,"E_M_nicolas_cage.jpg","P_M_Tony_Blair.jpg","FALSE","pictures/stimuli/E","pictures/stimuli/P","M","M","4","59497c498fb2140001afda85","04/26/2022, 07:20:30",-0.0076916334607615,"29","Female","right",0,1,0,0,TRUE,"E_M_nicolas_cage.jpg P_M_Tony_Blair.jpg"
4692,"E_F_sandra_bullock.jpg","P_F_tehresy_may.jpg","FALSE","pictures/stimuli/E","pictures/stimuli/P","F","F","6","59497c498fb2140001afda85","04/26/2022, 07:20:30",1.45371872408398,"29","Female","right",1,1,0,0,TRUE,"E_F_sandra_bullock.jpg P_F_tehresy_may.jpg"
2536,"E_F_angelina_jolie.jpg","P_M_boris_johnson.jpg","FALSE","pictures/stimuli/E","pictures/stimuli/P","F","M","6","59497c498fb2140001afda85","04/26/2022, 07:20:30",1.45371872408398,"29","Female","right",1,1,0,0,TRUE,"E_F_angelina_jolie.jpg P_M_boris_johnson.jpg"
4519,"E_M_Hugh_Grant.jpg","P_M_donald_trump.jpg","FALSE","pictures/stimuli/E","pictures/stimuli/P","M","M","6","59497c498fb2140001afda85","04/26/2022, 07:20:30",1.45371872408398,"29","Female","right",1,1,0,0,TRUE,"E_M_Hugh_Grant.jpg P_M_donald_trump.jpg"
2737,"P_M_david_cameron.jpg","P_M_Tony_Blair.jpg","TRUE","pictures/stimuli/P","pictures/stimuli/P","M","M","1","59497c498fb2140001afda85","04/26/2022, 07:20:30",-2.19980716977787,"29","Female","right",1,1,0,0,TRUE,"P_M_david_cameron.jpg P_M_Tony_Blair.jpg"
1964,"P_F_hillary_clinton.jpg","P_M_donald_trump.jpg","TRUE","pictures/stimuli/P","pictures/stimuli/P","F","M","4","59497c498fb2140001afda85","04/26/2022, 07:20:30",-0.0076916334607615,"29","Female","right",0,1,0,0,TRUE,"P_F_hillary_clinton.jpg P_M_donald_trump.jpg"
3057,"E_F_sandra_bullock.jpg","P_M_george_Wbush.jpg","FALSE","pictures/stimuli/E","pictures/stimuli/P","F","M","6","59497c498fb2140001afda85","04/26/2022, 07:20:30",1.45371872408398,"29","Female","right",1,1,0,0,TRUE,"E_F_sandra_bullock.jpg P_M_george_Wbush.jpg"
2942,"P_F_tehresy_may.jpg","P_M_Tony_Blair.jpg","TRUE","pictures/stimuli/P","pictures/stimuli/P","F","M","1","59497c498fb2140001afda85","04/26/2022, 07:20:30",-2.19980716977787,"29","Female","right",1,1,0,0,TRUE,"P_F_tehresy_may.jpg P_M_Tony_Blair.jpg"
4942,"E_F_angelina_jolie.jpg","E_M_robert_de_niro.jpg","TRUE","pictures/stimuli/E","pictures/stimuli/E","F","M","2","59497c498fb2140001afda85","04/26/2022, 07:20:30",-1.4691019910055,"29","Female","right",1,0,0,0,TRUE,"E_F_angelina_jolie.jpg E_M_robert_de_niro.jpg"
1875,"E_F_Kate_Winslet.jpg","P_M_bill_clinton.jpg","FALSE","pictures/stimuli/E","pictures/stimuli/P","F","M","4","59497c498fb2140001afda85","04/26/2022, 07:20:30",-0.0076916334607615,"29","Female","right",0,0,0,0,TRUE,"E_F_Kate_Winslet.jpg P_M_bill_clinton.jpg"
2360,"E_F_angelina_jolie.jpg","E_F_Judi_Dench.jpg","TRUE","pictures/stimuli/E","pictures/stimuli/E","F","F","4","59497c498fb2140001afda85","04/26/2022, 07:20:30",-0.0076916334607615,"29","Female","right",1,1,0,0,TRUE,"E_F_angelina_jolie.jpg E_F_Judi_Dench.jpg"
2552,"E_F_Judi_Dench.jpg","E_F_keira_knightley.jpg","TRUE","pictures/stimuli/E","pictures/stimuli/E","F","F","4","59497c498fb2140001afda85","04/26/2022, 07:20:30",-0.0076916334607615,"29","Female","right",1,0,0,0,TRUE,"E_F_Judi_Dench.jpg E_F_keira_knightley.jpg"
3847,"E_M_Hugh_Grant.jpg","P_F_nicola_sturgeon.jpg","FALSE","pictures/stimuli/E","pictures/stimuli/P","M","F","5","59497c498fb2140001afda85","04/26/2022, 07:20:30",0.72301354531161,"29","Female","right",1,1,0,0,TRUE,"E_M_Hugh_Grant.jpg P_F_nicola_sturgeon.jpg"
1555,"E_F_keira_knightley.jpg","E_M_Hugh_Grant.jpg","TRUE","pictures/stimuli/E","pictures/stimuli/E","F","M","4","59497c498fb2140001afda85","04/26/2022, 07:20:30",-0.0076916334607615,"29","Female","right",0,1,0,0,TRUE,"E_F_keira_knightley.jpg E_M_Hugh_Grant.jpg"
1602,"P_F_tehresy_may.jpg","P_M_bill_clinton.jpg","TRUE","pictures/stimuli/P","pictures/stimuli/P","F","M","4","59497c498fb2140001afda85","04/26/2022, 07:20:30",-0.0076916334607615,"29","Female","right",1,0,0,0,TRUE,"P_F_tehresy_may.jpg P_M_bill_clinton.jpg"
1228,"P_M_bill_clinton.jpg","P_M_david_cameron.jpg","TRUE","pictures/stimuli/P","pictures/stimuli/P","M","M","4","59497c498fb2140001afda85","04/26/2022, 07:20:30",-0.0076916334607615,"29","Female","right",0,1,0,0,TRUE,"P_M_bill_clinton.jpg P_M_david_cameron.jpg"
3642,"P_M_boris_johnson.jpg","P_M_george_Wbush.jpg","TRUE","pictures/stimuli/P","pictures/stimuli/P","M","M","1","59497c498fb2140001afda85","04/26/2022, 07:20:30",-2.19980716977787,"29","Female","right",1,1,0,0,TRUE,"P_M_boris_johnson.jpg P_M_george_Wbush.jpg"
1875,"E_M_nicolas_cage.jpg","P_F_nicola_sturgeon.jpg","FALSE","pictures/stimuli/E","pictures/stimuli/P","M","F","4","59497c498fb2140001afda85","04/26/2022, 07:20:30",-0.0076916334607615,"29","Female","right",0,1,0,0,TRUE,"E_M_nicolas_cage.jpg P_F_nicola_sturgeon.jpg"
2225,"E_F_angelina_jolie.jpg","P_F_tehresy_may.jpg","FALSE","pictures/stimuli/E","pictures/stimuli/P","F","F","4","59497c498fb2140001afda85","04/26/2022, 07:20:30",-0.0076916334607615,"29","Female","right",1,1,0,0,TRUE,"E_F_angelina_jolie.jpg P_F_tehresy_may.jpg"
6250,"E_F_sandra_bullock.jpg","E_M_michael_caine.jpg","TRUE","pictures/stimuli/E","pictures/stimuli/E","F","M","4","59497c498fb2140001afda85","04/26/2022, 07:20:30",-0.0076916334607615,"29","Female","right",1,0,0,0,TRUE,"E_F_sandra_bullock.jpg E_M_michael_caine.jpg"
2466,"E_F_Judi_Dench.jpg","P_M_donald_trump.jpg","FALSE","pictures/stimuli/E","pictures/stimuli/P","F","M","4","59497c498fb2140001afda85","04/26/2022, 07:20:30",-0.0076916334607615,"29","Female","right",1,1,0,0,TRUE,"E_F_Judi_Dench.jpg P_M_donald_trump.jpg"
2479,"E_M_Hugh_Grant.jpg","E_M_michael_caine.jpg","TRUE","pictures/stimuli/E","pictures/stimuli/E","M","M","4","59497c498fb2140001afda85","04/26/2022, 07:20:30",-0.0076916334607615,"29","Female","right",1,0,0,0,TRUE,"E_M_Hugh_Grant.jpg E_M_michael_caine.jpg"
3069,"E_F_sandra_bullock.jpg","E_M_Hugh_Grant.jpg","TRUE","pictures/stimuli/E","pictures/stimuli/E","F","M","3","59497c498fb2140001afda85","04/26/2022, 07:20:30",-0.738396812233132,"29","Female","right",1,1,0,0,TRUE,"E_F_sandra_bullock.jpg E_M_Hugh_Grant.jpg"
2118,"P_F_hillary_clinton.jpg","P_F_nicola_sturgeon.jpg","TRUE","pictures/stimuli/P","pictures/stimuli/P","F","F","4","59497c498fb2140001afda85","04/26/2022, 07:20:30",-0.0076916334607615,"29","Female","right",0,1,0,0,TRUE,"P_F_hillary_clinton.jpg P_F_nicola_sturgeon.jpg"
3454,"E_F_keira_knightley.jpg","P_M_david_cameron.jpg","FALSE","pictures/stimuli/E","pictures/stimuli/P","F","M","5","59497c498fb2140001afda85","04/26/2022, 07:20:30",0.72301354531161,"29","Female","right",0,1,0,0,TRUE,"E_F_keira_knightley.jpg P_M_david_cameron.jpg"
3436,"P_M_david_cameron.jpg","P_M_donald_trump.jpg","TRUE","pictures/stimuli/P","pictures/stimuli/P","M","M","1","59497c498fb2140001afda85","04/26/2022, 07:20:30",-2.19980716977787,"29","Female","right",1,1,0,0,TRUE,"P_M_david_cameron.jpg P_M_donald_trump.jpg"
3556,"E_F_angelina_jolie.jpg","E_F_jennifer_aniston.jpg","TRUE","pictures/stimuli/E","pictures/stimuli/E","F","F","1","59497c498fb2140001afda85","04/26/2022, 07:20:30",-2.19980716977787,"29","Female","right",1,1,0,0,TRUE,"E_F_angelina_jolie.jpg E_F_jennifer_aniston.jpg"
2164,"E_M_nicolas_cage.jpg","P_M_bill_clinton.jpg","FALSE","pictures/stimuli/E","pictures/stimuli/P","M","M","4","59497c498fb2140001afda85","04/26/2022, 07:20:30",-0.0076916334607615,"29","Female","right",0,0,0,0,TRUE,"E_M_nicolas_cage.jpg P_M_bill_clinton.jpg"
1764,"P_F_hillary_clinton.jpg","P_M_george_Wbush.jpg","TRUE","pictures/stimuli/P","pictures/stimuli/P","F","M","4","59497c498fb2140001afda85","04/26/2022, 07:20:30",-0.0076916334607615,"29","Female","right",0,1,0,0,TRUE,"P_F_hillary_clinton.jpg P_M_george_Wbush.jpg"
1937,"E_F_Judi_Dench.jpg","P_F_nicola_sturgeon.jpg","FALSE","pictures/stimuli/E","pictures/stimuli/P","F","F","4","59497c498fb2140001afda85","04/26/2022, 07:20:30",-0.0076916334607615,"29","Female","right",1,1,0,0,TRUE,"E_F_Judi_Dench.jpg P_F_nicola_sturgeon.jpg"
3737,"E_F_Kate_Winslet.jpg","P_M_boris_johnson.jpg","FALSE","pictures/stimuli/E","pictures/stimuli/P","F","M","6","59497c498fb2140001afda85","04/26/2022, 07:20:30",1.45371872408398,"29","Female","right",0,1,0,0,TRUE,"E_F_Kate_Winslet.jpg P_M_boris_johnson.jpg"
5521,"E_M_robert_de_niro.jpg","P_M_Tony_Blair.jpg","FALSE","pictures/stimuli/E","pictures/stimuli/P","M","M","6","59497c498fb2140001afda85","04/26/2022, 07:20:30",1.45371872408398,"29","Female","right",0,1,0,0,TRUE,"E_M_robert_de_niro.jpg P_M_Tony_Blair.jpg"
2485,"E_M_tom_hankes.jpg","P_M_boris_johnson.jpg","FALSE","pictures/stimuli/E","pictures/stimuli/P","M","M","4","59497c498fb2140001afda85","04/26/2022, 07:20:30",-0.0076916334607615,"29","Female","right",0,1,0,0,TRUE,"E_M_tom_hankes.jpg P_M_boris_johnson.jpg"
2109,"E_M_michael_caine.jpg","E_M_robert_de_niro.jpg","TRUE","pictures/stimuli/E","pictures/stimuli/E","M","M","4","59497c498fb2140001afda85","04/26/2022, 07:20:30",-0.0076916334607615,"29","Female","right",0,0,0,0,TRUE,"E_M_michael_caine.jpg E_M_robert_de_niro.jpg"
1920,"E_M_tom_hankes.jpg","P_M_bill_clinton.jpg","FALSE","pictures/stimuli/E","pictures/stimuli/P","M","M","4","59497c498fb2140001afda85","04/26/2022, 07:20:30",-0.0076916334607615,"29","Female","right",0,0,0,0,TRUE,"E_M_tom_hankes.jpg P_M_bill_clinton.jpg"
4520,"E_M_Hugh_Grant.jpg","P_M_boris_johnson.jpg","FALSE","pictures/stimuli/E","pictures/stimuli/P","M","M","6","59497c498fb2140001afda85","04/26/2022, 07:20:30",1.45371872408398,"29","Female","right",1,1,0,0,TRUE,"E_M_Hugh_Grant.jpg P_M_boris_johnson.jpg"
3838,"P_F_tehresy_may.jpg","P_M_george_Wbush.jpg","TRUE","pictures/stimuli/P","pictures/stimuli/P","F","M","2","59497c498fb2140001afda85","04/26/2022, 07:20:30",-1.4691019910055,"29","Female","right",1,1,0,0,TRUE,"P_F_tehresy_may.jpg P_M_george_Wbush.jpg"
2332,"E_M_michael_caine.jpg","P_F_tehresy_may.jpg","FALSE","pictures/stimuli/E","pictures/stimuli/P","M","F","4","59497c498fb2140001afda85","04/26/2022, 07:20:30",-0.0076916334607615,"29","Female","right",0,1,0,0,TRUE,"E_M_michael_caine.jpg P_F_tehresy_may.jpg"
3468,"E_F_Kate_Winslet.jpg","P_M_george_Wbush.jpg","FALSE","pictures/stimuli/E","pictures/stimuli/P","F","M","6","59497c498fb2140001afda85","04/26/2022, 07:20:30",1.45371872408398,"29","Female","right",0,1,0,0,TRUE,"E_F_Kate_Winslet.jpg P_M_george_Wbush.jpg"
5174,"E_F_sandra_bullock.jpg","P_M_boris_johnson.jpg","FALSE","pictures/stimuli/E","pictures/stimuli/P","F","M","6","59497c498fb2140001afda85","04/26/2022, 07:20:30",1.45371872408398,"29","Female","right",1,1,0,0,TRUE,"E_F_sandra_bullock.jpg P_M_boris_johnson.jpg"
4834,"E_F_jennifer_aniston.jpg","P_F_nicola_sturgeon.jpg","FALSE","pictures/stimuli/E","pictures/stimuli/P","F","F","5","59497c498fb2140001afda85","04/26/2022, 07:20:30",0.72301354531161,"29","Female","right",1,1,0,0,TRUE,"E_F_jennifer_aniston.jpg P_F_nicola_sturgeon.jpg"
3346,"E_F_keira_knightley.jpg","P_M_george_Wbush.jpg","FALSE","pictures/stimuli/E","pictures/stimuli/P","F","M","6","59497c498fb2140001afda85","04/26/2022, 07:20:30",1.45371872408398,"29","Female","right",0,1,0,0,TRUE,"E_F_keira_knightley.jpg P_M_george_Wbush.jpg"
2321,"E_F_jennifer_aniston.jpg","P_M_david_cameron.jpg","FALSE","pictures/stimuli/E","pictures/stimuli/P","F","M","6","59497c498fb2140001afda85","04/26/2022, 07:20:30",1.45371872408398,"29","Female","right",1,1,0,0,TRUE,"E_F_jennifer_aniston.jpg P_M_david_cameron.jpg"
3143,"E_F_Judi_Dench.jpg","E_F_Kate_Winslet.jpg","TRUE","pictures/stimuli/E","pictures/stimuli/E","F","F","4","59497c498fb2140001afda85","04/26/2022, 07:20:30",-0.0076916334607615,"29","Female","right",1,0,0,0,TRUE,"E_F_Judi_Dench.jpg E_F_Kate_Winslet.jpg"
5473,"E_F_angelina_jolie.jpg","E_M_michael_caine.jpg","TRUE","pictures/stimuli/E","pictures/stimuli/E","F","M","5","59497c498fb2140001afda85","04/26/2022, 07:20:30",0.72301354531161,"29","Female","right",1,0,0,0,TRUE,"E_F_angelina_jolie.jpg E_M_michael_caine.jpg"
3227,"E_M_Hugh_Grant.jpg","P_F_tehresy_may.jpg","FALSE","pictures/stimuli/E","pictures/stimuli/P","M","F","6","59497c498fb2140001afda85","04/26/2022, 07:20:30",1.45371872408398,"29","Female","right",1,1,0,0,TRUE,"E_M_Hugh_Grant.jpg P_F_tehresy_may.jpg"
1705,"E_F_jennifer_aniston.jpg","P_F_hillary_clinton.jpg","FALSE","pictures/stimuli/E","pictures/stimuli/P","F","F","5","59497c498fb2140001afda85","04/26/2022, 07:20:30",0.72301354531161,"29","Female","right",1,0,0,0,TRUE,"E_F_jennifer_aniston.jpg P_F_hillary_clinton.jpg"
4583,"E_F_Kate_Winslet.jpg","E_M_tom_hankes.jpg","TRUE","pictures/stimuli/E","pictures/stimuli/E","F","M","4","59497c498fb2140001afda85","04/26/2022, 07:20:30",-0.0076916334607615,"29","Female","right",0,0,0,0,TRUE,"E_F_Kate_Winslet.jpg E_M_tom_hankes.jpg"
1392,"E_F_angelina_jolie.jpg","E_M_nicolas_cage.jpg","TRUE","pictures/stimuli/E","pictures/stimuli/E","F","M","4","59497c498fb2140001afda85","04/26/2022, 07:20:30",-0.0076916334607615,"29","Female","right",1,0,0,0,TRUE,"E_F_angelina_jolie.jpg E_M_nicolas_cage.jpg"
2722,"E_F_keira_knightley.jpg","P_M_Tony_Blair.jpg","FALSE","pictures/stimuli/E","pictures/stimuli/P","F","M","6","59497c498fb2140001afda85","04/26/2022, 07:20:30",1.45371872408398,"29","Female","right",0,1,0,0,TRUE,"E_F_keira_knightley.jpg P_M_Tony_Blair.jpg"
2677,"E_M_michael_caine.jpg","P_M_donald_trump.jpg","FALSE","pictures/stimuli/E","pictures/stimuli/P","M","M","4","59497c498fb2140001afda85","04/26/2022, 07:20:30",-0.0076916334607615,"29","Female","right",0,1,0,0,TRUE,"E_M_michael_caine.jpg P_M_donald_trump.jpg"
1172,"E_M_tom_hankes.jpg","P_M_donald_trump.jpg","FALSE","pictures/stimuli/E","pictures/stimuli/P","M","M","4","59497c498fb2140001afda85","04/26/2022, 07:20:30",-0.0076916334607615,"29","Female","right",0,1,0,0,TRUE,"E_M_tom_hankes.jpg P_M_donald_trump.jpg"
2205,"P_M_donald_trump.jpg","P_M_george_Wbush.jpg","TRUE","pictures/stimuli/P","pictures/stimuli/P","M","M","6","59497c498fb2140001afda85","04/26/2022, 07:20:30",1.45371872408398,"29","Female","right",1,1,0,0,TRUE,"P_M_donald_trump.jpg P_M_george_Wbush.jpg"
6793,"E_F_jennifer_aniston.jpg","E_M_Hugh_Grant.jpg","TRUE","pictures/stimuli/E","pictures/stimuli/E","F","M","4","59497c498fb2140001afda85","04/26/2022, 07:20:30",-0.0076916334607615,"29","Female","right",1,1,0,0,TRUE,"E_F_jennifer_aniston.jpg E_M_Hugh_Grant.jpg"
3500,"E_M_Hugh_Grant.jpg","E_M_robert_de_niro.jpg","TRUE","pictures/stimuli/E","pictures/stimuli/E","M","M","4","59497c498fb2140001afda85","04/26/2022, 07:20:30",-0.0076916334607615,"29","Female","right",1,0,0,0,TRUE,"E_M_Hugh_Grant.jpg E_M_robert_de_niro.jpg"
4195,"E_F_Judi_Dench.jpg","P_M_Tony_Blair.jpg","FALSE","pictures/stimuli/E","pictures/stimuli/P","F","M","4","59497c498fb2140001afda85","04/26/2022, 07:20:30",-0.0076916334607615,"29","Female","right",1,1,0,0,TRUE,"E_F_Judi_Dench.jpg P_M_Tony_Blair.jpg"
4048,"E_F_keira_knightley.jpg","P_F_nicola_sturgeon.jpg","FALSE","pictures/stimuli/E","pictures/stimuli/P","F","F","4","59497c498fb2140001afda85","04/26/2022, 07:20:30",-0.0076916334607615,"29","Female","right",0,1,0,0,TRUE,"E_F_keira_knightley.jpg P_F_nicola_sturgeon.jpg"
2012,"P_F_hillary_clinton.jpg","P_M_david_cameron.jpg","TRUE","pictures/stimuli/P","pictures/stimuli/P","F","M","4","59497c498fb2140001afda85","04/26/2022, 07:20:30",-0.0076916334607615,"29","Female","right",0,1,0,0,TRUE,"P_F_hillary_clinton.jpg P_M_david_cameron.jpg"
2083,"E_M_nicolas_cage.jpg","P_M_boris_johnson.jpg","FALSE","pictures/stimuli/E","pictures/stimuli/P","M","M","4","59497c498fb2140001afda85","04/26/2022, 07:20:30",-0.0076916334607615,"29","Female","right",0,1,0,0,TRUE,"E_M_nicolas_cage.jpg P_M_boris_johnson.jpg"
1110,"P_F_hillary_clinton.jpg","P_M_bill_clinton.jpg","TRUE","pictures/stimuli/P","pictures/stimuli/P","F","M","4","59497c498fb2140001afda85","04/26/2022, 07:20:30",-0.0076916334607615,"29","Female","right",0,0,0,0,TRUE,"P_F_hillary_clinton.jpg P_M_bill_clinton.jpg"
1759,"E_F_jennifer_aniston.jpg","P_M_donald_trump.jpg","FALSE","pictures/stimuli/E","pictures/stimuli/P","F","M","4","59497c498fb2140001afda85","04/26/2022, 07:20:30",-0.0076916334607615,"29","Female","right",1,1,0,0,TRUE,"E_F_jennifer_aniston.jpg P_M_donald_trump.jpg"
1734,"E_M_Hugh_Grant.jpg","E_M_nicolas_cage.jpg","TRUE","pictures/stimuli/E","pictures/stimuli/E","M","M","4","59497c498fb2140001afda85","04/26/2022, 07:20:30",-0.0076916334607615,"29","Female","right",1,0,0,0,TRUE,"E_M_Hugh_Grant.jpg E_M_nicolas_cage.jpg"
965,"E_M_nicolas_cage.jpg","E_M_tom_hankes.jpg","TRUE","pictures/stimuli/E","pictures/stimuli/E","M","M","4","59497c498fb2140001afda85","04/26/2022, 07:20:30",-0.0076916334607615,"29","Female","right",0,0,0,0,TRUE,"E_M_nicolas_cage.jpg E_M_tom_hankes.jpg"
2716,"E_F_sandra_bullock.jpg","P_F_nicola_sturgeon.jpg","FALSE","pictures/stimuli/E","pictures/stimuli/P","F","F","5","59497c498fb2140001afda85","04/26/2022, 07:20:30",0.72301354531161,"29","Female","right",1,1,0,0,TRUE,"E_F_sandra_bullock.jpg P_F_nicola_sturgeon.jpg"
3336,"E_F_Kate_Winslet.jpg","E_F_keira_knightley.jpg","TRUE","pictures/stimuli/E","pictures/stimuli/E","F","F","4","59497c498fb2140001afda85","04/26/2022, 07:20:30",-0.0076916334607615,"29","Female","right",0,0,0,0,TRUE,"E_F_Kate_Winslet.jpg E_F_keira_knightley.jpg"
4568,"P_M_george_Wbush.jpg","P_M_Tony_Blair.jpg","TRUE","pictures/stimuli/P","pictures/stimuli/P","M","M","1","59497c498fb2140001afda85","04/26/2022, 07:20:30",-2.19980716977787,"29","Female","right",1,1,0,0,TRUE,"P_M_george_Wbush.jpg P_M_Tony_Blair.jpg"
1948,"P_M_david_cameron.jpg","P_M_george_Wbush.jpg","TRUE","pictures/stimuli/P","pictures/stimuli/P","M","M","1","59497c498fb2140001afda85","04/26/2022, 07:20:30",-2.19980716977787,"29","Female","right",1,1,0,0,TRUE,"P_M_david_cameron.jpg P_M_george_Wbush.jpg"
2740,"E_F_keira_knightley.jpg","P_M_boris_johnson.jpg","FALSE","pictures/stimuli/E","pictures/stimuli/P","F","M","6","59497c498fb2140001afda85","04/26/2022, 07:20:30",1.45371872408398,"29","Female","right",0,1,0,0,TRUE,"E_F_keira_knightley.jpg P_M_boris_johnson.jpg"
4421,"E_M_Hugh_Grant.jpg","P_M_david_cameron.jpg","FALSE","pictures/stimuli/E","pictures/stimuli/P","M","M","3","59497c498fb2140001afda85","04/26/2022, 07:20:30",-0.738396812233132,"29","Female","right",1,1,0,0,TRUE,"E_M_Hugh_Grant.jpg P_M_david_cameron.jpg"
2856,"E_F_angelina_jolie.jpg","E_F_sandra_bullock.jpg","TRUE","pictures/stimuli/E","pictures/stimuli/E","F","F","1","59497c498fb2140001afda85","04/26/2022, 07:20:30",-2.19980716977787,"29","Female","right",1,1,0,0,TRUE,"E_F_angelina_jolie.jpg E_F_sandra_bullock.jpg"
3096,"E_M_robert_de_niro.jpg","P_M_david_cameron.jpg","FALSE","pictures/stimuli/E","pictures/stimuli/P","M","M","3","59497c498fb2140001afda85","04/26/2022, 07:20:30",-0.738396812233132,"29","Female","right",0,1,0,0,TRUE,"E_M_robert_de_niro.jpg P_M_david_cameron.jpg"
3235,"E_F_keira_knightley.jpg","P_F_tehresy_may.jpg","FALSE","pictures/stimuli/E","pictures/stimuli/P","F","F","3","59497c498fb2140001afda85","04/26/2022, 07:20:30",-0.738396812233132,"29","Female","right",0,1,0,0,TRUE,"E_F_keira_knightley.jpg P_F_tehresy_may.jpg"
2372,"E_F_angelina_jolie.jpg","P_M_david_cameron.jpg","FALSE","pictures/stimuli/E","pictures/stimuli/P","F","M","6","59497c498fb2140001afda85","04/26/2022, 07:20:30",1.45371872408398,"29","Female","right",1,1,0,0,TRUE,"E_F_angelina_jolie.jpg P_M_david_cameron.jpg"
4785,"E_F_sandra_bullock.jpg","P_M_donald_trump.jpg","FALSE","pictures/stimuli/E","pictures/stimuli/P","F","M","6","59497c498fb2140001afda85","04/26/2022, 07:20:30",1.45371872408398,"29","Female","right",1,1,0,0,TRUE,"E_F_sandra_bullock.jpg P_M_donald_trump.jpg"
4433,"E_F_sandra_bullock.jpg","P_M_bill_clinton.jpg","FALSE","pictures/stimuli/E","pictures/stimuli/P","F","M","5","59497c498fb2140001afda85","04/26/2022, 07:20:30",0.72301354531161,"29","Female","right",1,0,0,0,TRUE,"E_F_sandra_bullock.jpg P_M_bill_clinton.jpg"
2840,"E_F_angelina_jolie.jpg","E_F_keira_knightley.jpg","TRUE","pictures/stimuli/E","pictures/stimuli/E","F","F","3","59497c498fb2140001afda85","04/26/2022, 07:20:30",-0.738396812233132,"29","Female","right",1,0,0,0,TRUE,"E_F_angelina_jolie.jpg E_F_keira_knightley.jpg"
4772,"E_M_Hugh_Grant.jpg","P_M_george_Wbush.jpg","FALSE","pictures/stimuli/E","pictures/stimuli/P","M","M","3","59497c498fb2140001afda85","04/26/2022, 07:20:30",-0.738396812233132,"29","Female","right",1,1,0,0,TRUE,"E_M_Hugh_Grant.jpg P_M_george_Wbush.jpg"
1978,"P_F_nicola_sturgeon.jpg","P_M_george_Wbush.jpg","TRUE","pictures/stimuli/P","pictures/stimuli/P","F","M","1","59497c498fb2140001afda85","04/26/2022, 07:20:30",-2.19980716977787,"29","Female","right",1,1,0,0,TRUE,"P_F_nicola_sturgeon.jpg P_M_george_Wbush.jpg"
2432,"E_F_jennifer_aniston.jpg","P_F_tehresy_may.jpg","FALSE","pictures/stimuli/E","pictures/stimuli/P","F","F","3","59497c498fb2140001afda85","04/26/2022, 07:20:30",-0.738396812233132,"29","Female","right",1,1,0,0,TRUE,"E_F_jennifer_aniston.jpg P_F_tehresy_may.jpg"
2850,"E_F_jennifer_aniston.jpg","E_F_Judi_Dench.jpg","TRUE","pictures/stimuli/E","pictures/stimuli/E","F","F","3","59497c498fb2140001afda85","04/26/2022, 07:20:30",-0.738396812233132,"29","Female","right",1,1,0,0,TRUE,"E_F_jennifer_aniston.jpg E_F_Judi_Dench.jpg"
2445,"E_M_nicolas_cage.jpg","P_M_donald_trump.jpg","FALSE","pictures/stimuli/E","pictures/stimuli/P","M","M","3","59497c498fb2140001afda85","04/26/2022, 07:20:30",-0.738396812233132,"29","Female","right",0,1,0,0,TRUE,"E_M_nicolas_cage.jpg P_M_donald_trump.jpg"
1644,"E_M_Hugh_Grant.jpg","P_M_Tony_Blair.jpg","FALSE","pictures/stimuli/E","pictures/stimuli/P","M","M","3","59497c498fb2140001afda85","04/26/2022, 07:20:30",-0.738396812233132,"29","Female","right",1,1,0,0,TRUE,"E_M_Hugh_Grant.jpg P_M_Tony_Blair.jpg"
2103,"E_M_robert_de_niro.jpg","P_M_bill_clinton.jpg","FALSE","pictures/stimuli/E","pictures/stimuli/P","M","M","3","59497c498fb2140001afda85","04/26/2022, 07:20:30",-0.738396812233132,"29","Female","right",0,0,0,0,TRUE,"E_M_robert_de_niro.jpg P_M_bill_clinton.jpg"
2233,"P_F_nicola_sturgeon.jpg","P_M_donald_trump.jpg","TRUE","pictures/stimuli/P","pictures/stimuli/P","F","M","2","59497c498fb2140001afda85","04/26/2022, 07:20:30",-1.4691019910055,"29","Female","right",1,1,0,0,TRUE,"P_F_nicola_sturgeon.jpg P_M_donald_trump.jpg"
3273,"E_F_Kate_Winslet.jpg","E_M_nicolas_cage.jpg","TRUE","pictures/stimuli/E","pictures/stimuli/E","F","M","4","59497c498fb2140001afda85","04/26/2022, 07:20:30",-0.0076916334607615,"29","Female","right",0,0,0,0,TRUE,"E_F_Kate_Winslet.jpg E_M_nicolas_cage.jpg"
3974,"P_F_nicola_sturgeon.jpg","P_M_bill_clinton.jpg","TRUE","pictures/stimuli/P","pictures/stimuli/P","F","M","5","59497c498fb2140001afda85","04/26/2022, 07:20:30",0.72301354531161,"29","Female","right",1,0,0,0,TRUE,"P_F_nicola_sturgeon.jpg P_M_bill_clinton.jpg"
2623,"E_M_tom_hankes.jpg","P_M_Tony_Blair.jpg","FALSE","pictures/stimuli/E","pictures/stimuli/P","M","M","4","59497c498fb2140001afda85","04/26/2022, 07:20:30",-0.0076916334607615,"29","Female","right",0,1,0,0,TRUE,"E_M_tom_hankes.jpg P_M_Tony_Blair.jpg"
3526,"P_F_nicola_sturgeon.jpg","P_M_boris_johnson.jpg","TRUE","pictures/stimuli/P","pictures/stimuli/P","F","M","2","59497c498fb2140001afda85","04/26/2022, 07:20:30",-1.4691019910055,"29","Female","right",1,1,0,0,TRUE,"P_F_nicola_sturgeon.jpg P_M_boris_johnson.jpg"
1979,"E_F_Judi_Dench.jpg","E_M_robert_de_niro.jpg","TRUE","pictures/stimuli/E","pictures/stimuli/E","F","M","4","59497c498fb2140001afda85","04/26/2022, 07:20:30",-0.0076916334607615,"29","Female","right",1,0,0,0,TRUE,"E_F_Judi_Dench.jpg E_M_robert_de_niro.jpg"
3152,"E_M_tom_hankes.jpg","P_M_george_Wbush.jpg","FALSE","pictures/stimuli/E","pictures/stimuli/P","M","M","4","59497c498fb2140001afda85","04/26/2022, 07:20:30",-0.0076916334607615,"29","Female","right",0,1,0,0,TRUE,"E_M_tom_hankes.jpg P_M_george_Wbush.jpg"
2643,"E_M_Hugh_Grant.jpg","P_F_hillary_clinton.jpg","FALSE","pictures/stimuli/E","pictures/stimuli/P","M","F","4","59497c498fb2140001afda85","04/26/2022, 07:20:30",-0.0076916334607615,"29","Female","right",1,0,0,0,TRUE,"E_M_Hugh_Grant.jpg P_F_hillary_clinton.jpg"
4324,"E_F_sandra_bullock.jpg","P_M_Tony_Blair.jpg","FALSE","pictures/stimuli/E","pictures/stimuli/P","F","M","6","59497c498fb2140001afda85","04/26/2022, 07:20:30",1.45371872408398,"29","Female","right",1,1,0,0,TRUE,"E_F_sandra_bullock.jpg P_M_Tony_Blair.jpg"
3177,"E_F_Judi_Dench.jpg","E_F_sandra_bullock.jpg","TRUE","pictures/stimuli/E","pictures/stimuli/E","F","F","4","59497c498fb2140001afda85","04/26/2022, 07:20:30",-0.0076916334607615,"29","Female","right",1,1,0,0,TRUE,"E_F_Judi_Dench.jpg E_F_sandra_bullock.jpg"
3102,"E_F_Kate_Winslet.jpg","P_M_Tony_Blair.jpg","FALSE","pictures/stimuli/E","pictures/stimuli/P","F","M","6","59497c498fb2140001afda85","04/26/2022, 07:20:30",1.45371872408398,"29","Female","right",0,1,0,0,TRUE,"E_F_Kate_Winslet.jpg P_M_Tony_Blair.jpg"
2913,"P_F_tehresy_may.jpg","P_M_boris_johnson.jpg","TRUE","pictures/stimuli/P","pictures/stimuli/P","F","M","2","59497c498fb2140001afda85","04/26/2022, 07:20:30",-1.4691019910055,"29","Female","right",1,1,0,0,TRUE,"P_F_tehresy_may.jpg P_M_boris_johnson.jpg"
2137,"E_M_nicolas_cage.jpg","P_M_david_cameron.jpg","FALSE","pictures/stimuli/E","pictures/stimuli/P","M","M","4","59497c498fb2140001afda85","04/26/2022, 07:20:30",-0.0076916334607615,"29","Female","right",0,1,0,0,TRUE,"E_M_nicolas_cage.jpg P_M_david_cameron.jpg"
6107,"E_M_robert_de_niro.jpg","P_F_nicola_sturgeon.jpg","FALSE","pictures/stimuli/E","pictures/stimuli/P","M","F","6","59497c498fb2140001afda85","04/26/2022, 07:20:30",1.45371872408398,"29","Female","right",0,1,0,0,TRUE,"E_M_robert_de_niro.jpg P_F_nicola_sturgeon.jpg"
2996,"E_F_sandra_bullock.jpg","E_M_nicolas_cage.jpg","TRUE","pictures/stimuli/E","pictures/stimuli/E","F","M","4","59497c498fb2140001afda85","04/26/2022, 07:20:30",-0.0076916334607615,"29","Female","right",1,0,0,0,TRUE,"E_F_sandra_bullock.jpg E_M_nicolas_cage.jpg"
4915,"E_F_keira_knightley.jpg","E_M_robert_de_niro.jpg","TRUE","pictures/stimuli/E","pictures/stimuli/E","F","M","5","59497c498fb2140001afda85","04/26/2022, 07:20:30",0.72301354531161,"29","Female","right",0,0,0,0,TRUE,"E_F_keira_knightley.jpg E_M_robert_de_niro.jpg"
2558,"P_M_bill_clinton.jpg","P_M_boris_johnson.jpg","TRUE","pictures/stimuli/P","pictures/stimuli/P","M","M","4","59497c498fb2140001afda85","04/26/2022, 07:20:30",-0.0076916334607615,"29","Female","right",0,1,0,0,TRUE,"P_M_bill_clinton.jpg P_M_boris_johnson.jpg"
4093,"E_M_tom_hankes.jpg","P_F_nicola_sturgeon.jpg","FALSE","pictures/stimuli/E","pictures/stimuli/P","M","F","4","59497c498fb2140001afda85","04/26/2022, 07:20:30",-0.0076916334607615,"29","Female","right",0,1,0,0,TRUE,"E_M_tom_hankes.jpg P_F_nicola_sturgeon.jpg"
2698,"E_M_nicolas_cage.jpg","P_M_george_Wbush.jpg","FALSE","pictures/stimuli/E","pictures/stimuli/P","M","M","5","59497c498fb2140001afda85","04/26/2022, 07:20:30",0.72301354531161,"29","Female","right",0,1,0,0,TRUE,"E_M_nicolas_cage.jpg P_M_george_Wbush.jpg"
3157,"E_F_Judi_Dench.jpg","E_M_nicolas_cage.jpg","TRUE","pictures/stimuli/E","pictures/stimuli/E","F","M","4","59497c498fb2140001afda85","04/26/2022, 07:20:30",-0.0076916334607615,"29","Female","right",1,0,0,0,TRUE,"E_F_Judi_Dench.jpg E_M_nicolas_cage.jpg"
3717,"E_F_Kate_Winslet.jpg","E_M_michael_caine.jpg","TRUE","pictures/stimuli/E","pictures/stimuli/E","F","M","4","59497c498fb2140001afda85","04/26/2022, 07:20:30",-0.0076916334607615,"29","Female","right",0,0,0,0,TRUE,"E_F_Kate_Winslet.jpg E_M_michael_caine.jpg"
2200,"E_F_sandra_bullock.jpg","E_M_robert_de_niro.jpg","TRUE","pictures/stimuli/E","pictures/stimuli/E","F","M","4","59497c498fb2140001afda85","04/26/2022, 07:20:30",-0.0076916334607615,"29","Female","right",1,0,0,0,TRUE,"E_F_sandra_bullock.jpg E_M_robert_de_niro.jpg"
2188,"E_M_tom_hankes.jpg","P_F_tehresy_may.jpg","FALSE","pictures/stimuli/E","pictures/stimuli/P","M","F","4","59497c498fb2140001afda85","04/26/2022, 07:20:30",-0.0076916334607615,"29","Female","right",0,1,0,0,TRUE,"E_M_tom_hankes.jpg P_F_tehresy_may.jpg"
2308,"E_F_jennifer_aniston.jpg","E_F_sandra_bullock.jpg","TRUE","pictures/stimuli/E","pictures/stimuli/E","F","F","1","59497c498fb2140001afda85","04/26/2022, 07:20:30",-2.19980716977787,"29","Female","right",1,1,0,0,TRUE,"E_F_jennifer_aniston.jpg E_F_sandra_bullock.jpg"
2805,"P_F_hillary_clinton.jpg","P_F_tehresy_may.jpg","TRUE","pictures/stimuli/P","pictures/stimuli/P","F","F","4","59497c498fb2140001afda85","04/26/2022, 07:20:30",-0.0076916334607615,"29","Female","right",0,1,0,0,TRUE,"P_F_hillary_clinton.jpg P_F_tehresy_may.jpg"
4202,"P_F_tehresy_may.jpg","P_M_donald_trump.jpg","TRUE","pictures/stimuli/P","pictures/stimuli/P","F","M","2","59497c498fb2140001afda85","04/26/2022, 07:20:30",-1.4691019910055,"29","Female","right",1,1,0,0,TRUE,"P_F_tehresy_may.jpg P_M_donald_trump.jpg"
5234,"E_M_tom_hankes.jpg","P_M_donald_trump.jpg","FALSE","pictures/stimuli/E","pictures/stimuli/P","M","M","3","59a734ce0c87a000017481ed","04/26/2022, 07:26:27",-0.592177042622274,"33","Female","right",1,1,0,0,FALSE,"E_M_tom_hankes.jpg P_M_donald_trump.jpg"
