"RT","img_1","img_2","isSameProffesion","img1proffesion","img2proffesion","img1Gender","img2Gender","keyPressed","participant","time","normlised_keyPress","age","gender","handedness","isFamiliar_img1","isFamiliar_img2","vividness_img1","vividness_img2","reject_trial","pair"
5019,"E_F_angelina_jolie.jpg","P_F_tehresy_may.jpg","FALSE","pictures/stimuli/E","pictures/stimuli/P","F","F","6","57acc170c6bab4000172a42e","04/25/2022, 19:39:34",0.987383795554003,"30","Female","right",1,1,0,0,FALSE,"E_F_angelina_jolie.jpg P_F_tehresy_may.jpg"
5572,"E_F_jennifer_aniston.jpg","P_M_bill_clinton.jpg","FALSE","pictures/stimuli/E","pictures/stimuli/P","F","M","6","57acc170c6bab4000172a42e","04/25/2022, 19:39:34",0.987383795554003,"30","Female","right",1,1,0,0,FALSE,"E_F_jennifer_aniston.jpg P_M_bill_clinton.jpg"
3087,"E_M_nicolas_cage.jpg","P_M_boris_johnson.jpg","FALSE","pictures/stimuli/E","pictures/stimuli/P","M","M","4","57acc170c6bab4000172a42e","04/25/2022, 19:39:34",-0.0755222733143287,"30","Female","right",1,1,0,0,FALSE,"E_M_nicolas_cage.jpg P_M_boris_johnson.jpg"
4521,"E_M_Hugh_Grant.jpg","P_F_nicola_sturgeon.jpg","FALSE","pictures/stimuli/E","pictures/stimuli/P","M","F","6","57acc170c6bab4000172a42e","04/25/2022, 19:39:34",0.987383795554003,"30","Female","right",1,1,0,0,FALSE,"E_M_Hugh_Grant.jpg P_F_nicola_sturgeon.jpg"
6757,"E_F_angelina_jolie.jpg","P_F_hillary_clinton.jpg","FALSE","pictures/stimuli/E","pictures/stimuli/P","F","F","3","57acc170c6bab4000172a42e","04/25/2022, 19:39:34",-0.606975307748495,"30","Female","right",1,1,0,0,FALSE,"E_F_angelina_jolie.jpg P_F_hillary_clinton.jpg"
3378,"E_F_Judi_Dench.jpg","E_F_keira_knightley.jpg","TRUE","pictures/stimuli/E","pictures/stimuli/E","F","F","3","57acc170c6bab4000172a42e","04/25/2022, 19:39:34",-0.606975307748495,"30","Female","right",1,1,0,0,FALSE,"E_F_Judi_Dench.jpg E_F_keira_knightley.jpg"
6033,"P_M_david_cameron.jpg","P_M_Tony_Blair.jpg","TRUE","pictures/stimuli/P","pictures/stimuli/P","M","M","1","57acc170c6bab4000172a42e","04/25/2022, 19:39:34",-1.66988137661683,"30","Female","right",1,1,0,0,FALSE,"P_M_david_cameron.jpg P_M_Tony_Blair.jpg"
3066,"E_F_Judi_Dench.jpg","P_F_tehresy_may.jpg","FALSE","pictures/stimuli/E","pictures/stimuli/P","F","F","2","57acc170c6bab4000172a42e","04/25/2022, 19:39:34",-1.13842834218266,"30","Female","right",1,1,0,0,FALSE,"E_F_Judi_Dench.jpg P_F_tehresy_may.jpg"
2921,"E_F_keira_knightley.jpg","E_M_robert_de_niro.jpg","TRUE","pictures/stimuli/E","pictures/stimuli/E","F","M","6","57acc170c6bab4000172a42e","04/25/2022, 19:39:34",0.987383795554003,"30","Female","right",1,1,0,0,FALSE,"E_F_keira_knightley.jpg E_M_robert_de_niro.jpg"
4316,"E_F_jennifer_aniston.jpg","E_F_sandra_bullock.jpg","TRUE","pictures/stimuli/E","pictures/stimuli/E","F","F","1","57acc170c6bab4000172a42e","04/25/2022, 19:39:34",-1.66988137661683,"30","Female","right",1,1,0,0,FALSE,"E_F_jennifer_aniston.jpg E_F_sandra_bullock.jpg"
3009,"E_M_nicolas_cage.jpg","P_F_tehresy_may.jpg","FALSE","pictures/stimuli/E","pictures/stimuli/P","M","F","6","57acc170c6bab4000172a42e","04/25/2022, 19:39:34",0.987383795554003,"30","Female","right",1,1,0,0,FALSE,"E_M_nicolas_cage.jpg P_F_tehresy_may.jpg"
4565,"E_F_Kate_Winslet.jpg","E_M_tom_hankes.jpg","TRUE","pictures/stimuli/E","pictures/stimuli/E","F","M","6","57acc170c6bab4000172a42e","04/25/2022, 19:39:34",0.987383795554003,"30","Female","right",1,1,0,0,FALSE,"E_F_Kate_Winslet.jpg E_M_tom_hankes.jpg"
2734,"E_M_robert_de_niro.jpg","P_M_boris_johnson.jpg","FALSE","pictures/stimuli/E","pictures/stimuli/P","M","M","2","57acc170c6bab4000172a42e","04/25/2022, 19:39:34",-1.13842834218266,"30","Female","right",1,1,0,0,FALSE,"E_M_robert_de_niro.jpg P_M_boris_johnson.jpg"
4044,"E_M_nicolas_cage.jpg","P_M_david_cameron.jpg","FALSE","pictures/stimuli/E","pictures/stimuli/P","M","M","2","57acc170c6bab4000172a42e","04/25/2022, 19:39:34",-1.13842834218266,"30","Female","right",1,1,0,0,FALSE,"E_M_nicolas_cage.jpg P_M_david_cameron.jpg"
3338,"P_M_boris_johnson.jpg","P_M_david_cameron.jpg","TRUE","pictures/stimuli/P","pictures/stimuli/P","M","M","1","57acc170c6bab4000172a42e","04/25/2022, 19:39:34",-1.66988137661683,"30","Female","right",1,1,0,0,FALSE,"P_M_boris_johnson.jpg P_M_david_cameron.jpg"
3092,"E_F_angelina_jolie.jpg","E_M_Hugh_Grant.jpg","TRUE","pictures/stimuli/E","pictures/stimuli/E","F","M","6","57acc170c6bab4000172a42e","04/25/2022, 19:39:34",0.987383795554003,"30","Female","right",1,1,0,0,FALSE,"E_F_angelina_jolie.jpg E_M_Hugh_Grant.jpg"
2488,"E_F_keira_knightley.jpg","P_F_hillary_clinton.jpg","FALSE","pictures/stimuli/E","pictures/stimuli/P","F","F","3","57acc170c6bab4000172a42e","04/25/2022, 19:39:34",-0.606975307748495,"30","Female","right",1,1,0,0,FALSE,"E_F_keira_knightley.jpg P_F_hillary_clinton.jpg"
2696,"E_F_Kate_Winslet.jpg","P_M_donald_trump.jpg","FALSE","pictures/stimuli/E","pictures/stimuli/P","F","M","6","57acc170c6bab4000172a42e","04/25/2022, 19:39:34",0.987383795554003,"30","Female","right",1,1,0,0,FALSE,"E_F_Kate_Winslet.jpg P_M_donald_trump.jpg"
3740,"E_F_Kate_Winslet.jpg","P_F_nicola_sturgeon.jpg","FALSE","pictures/stimuli/E","pictures/stimuli/P","F","F","3","57acc170c6bab4000172a42e","04/25/2022, 19:39:34",-0.606975307748495,"30","Female","right",1,1,0,0,FALSE,"E_F_Kate_Winslet.jpg P_F_nicola_sturgeon.jpg"
2699,"E_F_angelina_jolie.jpg","P_M_Tony_Blair.jpg","FALSE","pictures/stimuli/E","pictures/stimuli/P","F","M","6","57acc170c6bab4000172a42e","04/25/2022, 19:39:34",0.987383795554003,"30","Female","right",1,1,0,0,FALSE,"E_F_angelina_jolie.jpg P_M_Tony_Blair.jpg"
3193,"E_M_tom_hankes.jpg","P_F_nicola_sturgeon.jpg","FALSE","pictures/stimuli/E","pictures/stimuli/P","M","F","6","57acc170c6bab4000172a42e","04/25/2022, 19:39:34",0.987383795554003,"30","Female","right",1,1,0,0,FALSE,"E_M_tom_hankes.jpg P_F_nicola_sturgeon.jpg"
3256,"E_F_Kate_Winslet.jpg","E_M_michael_caine.jpg","TRUE","pictures/stimuli/E","pictures/stimuli/E","F","M","6","57acc170c6bab4000172a42e","04/25/2022, 19:39:34",0.987383795554003,"30","Female","right",1,1,0,0,FALSE,"E_F_Kate_Winslet.jpg E_M_michael_caine.jpg"
2929,"P_M_bill_clinton.jpg","P_M_david_cameron.jpg","TRUE","pictures/stimuli/P","pictures/stimuli/P","M","M","2","57acc170c6bab4000172a42e","04/25/2022, 19:39:34",-1.13842834218266,"30","Female","right",1,1,0,0,FALSE,"P_M_bill_clinton.jpg P_M_david_cameron.jpg"
3267,"E_F_sandra_bullock.jpg","P_M_george_Wbush.jpg","FALSE","pictures/stimuli/E","pictures/stimuli/P","F","M","6","57acc170c6bab4000172a42e","04/25/2022, 19:39:34",0.987383795554003,"30","Female","right",1,1,0,0,FALSE,"E_F_sandra_bullock.jpg P_M_george_Wbush.jpg"
2520,"E_F_angelina_jolie.jpg","P_M_boris_johnson.jpg","FALSE","pictures/stimuli/E","pictures/stimuli/P","F","M","6","57acc170c6bab4000172a42e","04/25/2022, 19:39:34",0.987383795554003,"30","Female","right",1,1,0,0,FALSE,"E_F_angelina_jolie.jpg P_M_boris_johnson.jpg"
2483,"E_F_jennifer_aniston.jpg","P_M_boris_johnson.jpg","FALSE","pictures/stimuli/E","pictures/stimuli/P","F","M","6","57acc170c6bab4000172a42e","04/25/2022, 19:39:34",0.987383795554003,"30","Female","right",1,1,0,0,FALSE,"E_F_jennifer_aniston.jpg P_M_boris_johnson.jpg"
3740,"E_F_keira_knightley.jpg","E_M_nicolas_cage.jpg","TRUE","pictures/stimuli/E","pictures/stimuli/E","F","M","6","57acc170c6bab4000172a42e","04/25/2022, 19:39:34",0.987383795554003,"30","Female","right",1,1,0,0,FALSE,"E_F_keira_knightley.jpg E_M_nicolas_cage.jpg"
3154,"P_M_david_cameron.jpg","P_M_donald_trump.jpg","TRUE","pictures/stimuli/P","pictures/stimuli/P","M","M","2","57acc170c6bab4000172a42e","04/25/2022, 19:39:34",-1.13842834218266,"30","Female","right",1,1,0,0,FALSE,"P_M_david_cameron.jpg P_M_donald_trump.jpg"
3002,"E_M_michael_caine.jpg","P_M_donald_trump.jpg","FALSE","pictures/stimuli/E","pictures/stimuli/P","M","M","2","57acc170c6bab4000172a42e","04/25/2022, 19:39:34",-1.13842834218266,"30","Female","right",1,1,0,0,FALSE,"E_M_michael_caine.jpg P_M_donald_trump.jpg"
2919,"E_F_keira_knightley.jpg","P_M_Tony_Blair.jpg","FALSE","pictures/stimuli/E","pictures/stimuli/P","F","M","6","57acc170c6bab4000172a42e","04/25/2022, 19:39:34",0.987383795554003,"30","Female","right",1,1,0,0,FALSE,"E_F_keira_knightley.jpg P_M_Tony_Blair.jpg"
4167,"E_M_michael_caine.jpg","P_F_tehresy_may.jpg","FALSE","pictures/stimuli/E","pictures/stimuli/P","M","F","5","57acc170c6bab4000172a42e","04/25/2022, 19:39:34",0.455930761119837,"30","Female","right",1,1,0,0,FALSE,"E_M_michael_caine.jpg P_F_tehresy_may.jpg"
2785,"E_M_michael_caine.jpg","P_M_david_cameron.jpg","FALSE","pictures/stimuli/E","pictures/stimuli/P","M","M","2","57acc170c6bab4000172a42e","04/25/2022, 19:39:34",-1.13842834218266,"30","Female","right",1,1,0,0,FALSE,"E_M_michael_caine.jpg P_M_david_cameron.jpg"
2708,"P_M_boris_johnson.jpg","P_M_george_Wbush.jpg","TRUE","pictures/stimuli/P","pictures/stimuli/P","M","M","2","57acc170c6bab4000172a42e","04/25/2022, 19:39:34",-1.13842834218266,"30","Female","right",1,1,0,0,FALSE,"P_M_boris_johnson.jpg P_M_george_Wbush.jpg"
3231,"P_F_nicola_sturgeon.jpg","P_M_boris_johnson.jpg","TRUE","pictures/stimuli/P","pictures/stimuli/P","F","M","6","57acc170c6bab4000172a42e","04/25/2022, 19:39:34",0.987383795554003,"30","Female","right",1,1,0,0,FALSE,"P_F_nicola_sturgeon.jpg P_M_boris_johnson.jpg"
2552,"E_F_keira_knightley.jpg","P_M_bill_clinton.jpg","FALSE","pictures/stimuli/E","pictures/stimuli/P","F","M","6","57acc170c6bab4000172a42e","04/25/2022, 19:39:34",0.987383795554003,"30","Female","right",1,1,0,0,FALSE,"E_F_keira_knightley.jpg P_M_bill_clinton.jpg"
2565,"E_F_keira_knightley.jpg","P_M_george_Wbush.jpg","FALSE","pictures/stimuli/E","pictures/stimuli/P","F","M","6","57acc170c6bab4000172a42e","04/25/2022, 19:39:34",0.987383795554003,"30","Female","right",1,1,0,0,FALSE,"E_F_keira_knightley.jpg P_M_george_Wbush.jpg"
2678,"E_M_tom_hankes.jpg","P_M_boris_johnson.jpg","FALSE","pictures/stimuli/E","pictures/stimuli/P","M","M","2","57acc170c6bab4000172a42e","04/25/2022, 19:39:34",-1.13842834218266,"30","Female","right",1,1,0,0,FALSE,"E_M_tom_hankes.jpg P_M_boris_johnson.jpg"
3165,"E_F_Judi_Dench.jpg","E_M_michael_caine.jpg","TRUE","pictures/stimuli/E","pictures/stimuli/E","F","M","5","57acc170c6bab4000172a42e","04/25/2022, 19:39:34",0.455930761119837,"30","Female","right",1,1,0,0,FALSE,"E_F_Judi_Dench.jpg E_M_michael_caine.jpg"
5164,"E_M_nicolas_cage.jpg","P_F_hillary_clinton.jpg","FALSE","pictures/stimuli/E","pictures/stimuli/P","M","F","6","57acc170c6bab4000172a42e","04/25/2022, 19:39:34",0.987383795554003,"30","Female","right",1,1,0,0,FALSE,"E_M_nicolas_cage.jpg P_F_hillary_clinton.jpg"
3918,"P_M_bill_clinton.jpg","P_M_donald_trump.jpg","TRUE","pictures/stimuli/P","pictures/stimuli/P","M","M","1","57acc170c6bab4000172a42e","04/25/2022, 19:39:34",-1.66988137661683,"30","Female","right",1,1,0,0,FALSE,"P_M_bill_clinton.jpg P_M_donald_trump.jpg"
2473,"E_F_sandra_bullock.jpg","P_M_david_cameron.jpg","FALSE","pictures/stimuli/E","pictures/stimuli/P","F","M","6","57acc170c6bab4000172a42e","04/25/2022, 19:39:34",0.987383795554003,"30","Female","right",1,1,0,0,FALSE,"E_F_sandra_bullock.jpg P_M_david_cameron.jpg"
2403,"E_F_sandra_bullock.jpg","E_M_nicolas_cage.jpg","TRUE","pictures/stimuli/E","pictures/stimuli/E","F","M","6","57acc170c6bab4000172a42e","04/25/2022, 19:39:34",0.987383795554003,"30","Female","right",1,1,0,0,FALSE,"E_F_sandra_bullock.jpg E_M_nicolas_cage.jpg"
2765,"E_F_sandra_bullock.jpg","E_M_Hugh_Grant.jpg","TRUE","pictures/stimuli/E","pictures/stimuli/E","F","M","6","57acc170c6bab4000172a42e","04/25/2022, 19:39:34",0.987383795554003,"30","Female","right",1,1,0,0,FALSE,"E_F_sandra_bullock.jpg E_M_Hugh_Grant.jpg"
3057,"E_F_sandra_bullock.jpg","P_F_tehresy_may.jpg","FALSE","pictures/stimuli/E","pictures/stimuli/P","F","F","3","57acc170c6bab4000172a42e","04/25/2022, 19:39:34",-0.606975307748495,"30","Female","right",1,1,0,0,FALSE,"E_F_sandra_bullock.jpg P_F_tehresy_may.jpg"
3481,"E_F_angelina_jolie.jpg","E_F_jennifer_aniston.jpg","TRUE","pictures/stimuli/E","pictures/stimuli/E","F","F","1","57acc170c6bab4000172a42e","04/25/2022, 19:39:34",-1.66988137661683,"30","Female","right",1,1,0,0,FALSE,"E_F_angelina_jolie.jpg E_F_jennifer_aniston.jpg"
2527,"E_F_Judi_Dench.jpg","P_M_donald_trump.jpg","FALSE","pictures/stimuli/E","pictures/stimuli/P","F","M","6","57acc170c6bab4000172a42e","04/25/2022, 19:39:34",0.987383795554003,"30","Female","right",1,1,0,0,FALSE,"E_F_Judi_Dench.jpg P_M_donald_trump.jpg"
2551,"P_F_hillary_clinton.jpg","P_M_Tony_Blair.jpg","TRUE","pictures/stimuli/P","pictures/stimuli/P","F","M","6","57acc170c6bab4000172a42e","04/25/2022, 19:39:34",0.987383795554003,"30","Female","right",1,1,0,0,FALSE,"P_F_hillary_clinton.jpg P_M_Tony_Blair.jpg"
2498,"E_M_nicolas_cage.jpg","P_F_nicola_sturgeon.jpg","FALSE","pictures/stimuli/E","pictures/stimuli/P","M","F","6","57acc170c6bab4000172a42e","04/25/2022, 19:39:34",0.987383795554003,"30","Female","right",1,1,0,0,FALSE,"E_M_nicolas_cage.jpg P_F_nicola_sturgeon.jpg"
2626,"E_F_jennifer_aniston.jpg","P_M_david_cameron.jpg","FALSE","pictures/stimuli/E","pictures/stimuli/P","F","M","6","57acc170c6bab4000172a42e","04/25/2022, 19:39:34",0.987383795554003,"30","Female","right",1,1,0,0,FALSE,"E_F_jennifer_aniston.jpg P_M_david_cameron.jpg"
2776,"E_M_robert_de_niro.jpg","E_M_tom_hankes.jpg","TRUE","pictures/stimuli/E","pictures/stimuli/E","M","M","2","57acc170c6bab4000172a42e","04/25/2022, 19:39:34",-1.13842834218266,"30","Female","right",1,1,0,0,FALSE,"E_M_robert_de_niro.jpg E_M_tom_hankes.jpg"
2802,"P_F_tehresy_may.jpg","P_M_boris_johnson.jpg","TRUE","pictures/stimuli/P","pictures/stimuli/P","F","M","6","57acc170c6bab4000172a42e","04/25/2022, 19:39:34",0.987383795554003,"30","Female","right",1,1,0,0,FALSE,"P_F_tehresy_may.jpg P_M_boris_johnson.jpg"
2809,"P_F_tehresy_may.jpg","P_M_donald_trump.jpg","TRUE","pictures/stimuli/P","pictures/stimuli/P","F","M","6","57acc170c6bab4000172a42e","04/25/2022, 19:39:34",0.987383795554003,"30","Female","right",1,1,0,0,FALSE,"P_F_tehresy_may.jpg P_M_donald_trump.jpg"
2686,"E_F_jennifer_aniston.jpg","E_M_nicolas_cage.jpg","TRUE","pictures/stimuli/E","pictures/stimuli/E","F","M","6","57acc170c6bab4000172a42e","04/25/2022, 19:39:34",0.987383795554003,"30","Female","right",1,1,0,0,FALSE,"E_F_jennifer_aniston.jpg E_M_nicolas_cage.jpg"
5546,"E_F_jennifer_aniston.jpg","E_F_Judi_Dench.jpg","TRUE","pictures/stimuli/E","pictures/stimuli/E","F","F","3","57acc170c6bab4000172a42e","04/25/2022, 19:39:34",-0.606975307748495,"30","Female","right",1,1,0,0,FALSE,"E_F_jennifer_aniston.jpg E_F_Judi_Dench.jpg"
4272,"E_F_Judi_Dench.jpg","E_F_Kate_Winslet.jpg","TRUE","pictures/stimuli/E","pictures/stimuli/E","F","F","2","57acc170c6bab4000172a42e","04/25/2022, 19:39:34",-1.13842834218266,"30","Female","right",1,1,0,0,FALSE,"E_F_Judi_Dench.jpg E_F_Kate_Winslet.jpg"
3868,"P_F_nicola_sturgeon.jpg","P_M_george_Wbush.jpg","TRUE","pictures/stimuli/P","pictures/stimuli/P","F","M","6","57acc170c6bab4000172a42e","04/25/2022, 19:39:34",0.987383795554003,"30","Female","right",1,1,0,0,FALSE,"P_F_nicola_sturgeon.jpg P_M_george_Wbush.jpg"
2655,"E_F_Kate_Winslet.jpg","E_M_nicolas_cage.jpg","TRUE","pictures/stimuli/E","pictures/stimuli/E","F","M","6","57acc170c6bab4000172a42e","04/25/2022, 19:39:34",0.987383795554003,"30","Female","right",1,1,0,0,FALSE,"E_F_Kate_Winslet.jpg E_M_nicolas_cage.jpg"
2710,"E_M_michael_caine.jpg","P_M_bill_clinton.jpg","FALSE","pictures/stimuli/E","pictures/stimuli/P","M","M","2","57acc170c6bab4000172a42e","04/25/2022, 19:39:34",-1.13842834218266,"30","Female","right",1,1,0,0,FALSE,"E_M_michael_caine.jpg P_M_bill_clinton.jpg"
3404,"E_F_Judi_Dench.jpg","E_M_Hugh_Grant.jpg","TRUE","pictures/stimuli/E","pictures/stimuli/E","F","M","6","57acc170c6bab4000172a42e","04/25/2022, 19:39:34",0.987383795554003,"30","Female","right",1,1,0,0,FALSE,"E_F_Judi_Dench.jpg E_M_Hugh_Grant.jpg"
2940,"E_M_robert_de_niro.jpg","P_F_tehresy_may.jpg","FALSE","pictures/stimuli/E","pictures/stimuli/P","M","F","6","57acc170c6bab4000172a42e","04/25/2022, 19:39:34",0.987383795554003,"30","Female","right",1,1,0,0,FALSE,"E_M_robert_de_niro.jpg P_F_tehresy_may.jpg"
2776,"E_F_jennifer_aniston.jpg","E_M_tom_hankes.jpg","TRUE","pictures/stimuli/E","pictures/stimuli/E","F","M","6","57acc170c6bab4000172a42e","04/25/2022, 19:39:34",0.987383795554003,"30","Female","right",1,1,0,0,FALSE,"E_F_jennifer_aniston.jpg E_M_tom_hankes.jpg"
3727,"E_M_michael_caine.jpg","P_M_boris_johnson.jpg","FALSE","pictures/stimuli/E","pictures/stimuli/P","M","M","2","57acc170c6bab4000172a42e","04/25/2022, 19:39:34",-1.13842834218266,"30","Female","right",1,1,0,0,FALSE,"E_M_michael_caine.jpg P_M_boris_johnson.jpg"
2622,"E_M_michael_caine.jpg","P_F_nicola_sturgeon.jpg","FALSE","pictures/stimuli/E","pictures/stimuli/P","M","F","6","57acc170c6bab4000172a42e","04/25/2022, 19:39:34",0.987383795554003,"30","Female","right",1,1,0,0,FALSE,"E_M_michael_caine.jpg P_F_nicola_sturgeon.jpg"
5286,"E_M_Hugh_Grant.jpg","P_M_david_cameron.jpg","FALSE","pictures/stimuli/E","pictures/stimuli/P","M","M","1","57acc170c6bab4000172a42e","04/25/2022, 19:39:34",-1.66988137661683,"30","Female","right",1,1,0,0,FALSE,"E_M_Hugh_Grant.jpg P_M_david_cameron.jpg"
2716,"P_F_tehresy_may.jpg","P_M_george_Wbush.jpg","TRUE","pictures/stimuli/P","pictures/stimuli/P","F","M","6","57acc170c6bab4000172a42e","04/25/2022, 19:39:34",0.987383795554003,"30","Female","right",1,1,0,0,FALSE,"P_F_tehresy_may.jpg P_M_george_Wbush.jpg"
2895,"E_F_angelina_jolie.jpg","P_M_david_cameron.jpg","FALSE","pictures/stimuli/E","pictures/stimuli/P","F","M","6","57acc170c6bab4000172a42e","04/25/2022, 19:39:34",0.987383795554003,"30","Female","right",1,1,0,0,FALSE,"E_F_angelina_jolie.jpg P_M_david_cameron.jpg"
4077,"P_M_bill_clinton.jpg","P_M_boris_johnson.jpg","TRUE","pictures/stimuli/P","pictures/stimuli/P","M","M","3","57acc170c6bab4000172a42e","04/25/2022, 19:39:34",-0.606975307748495,"30","Female","right",1,1,0,0,FALSE,"P_M_bill_clinton.jpg P_M_boris_johnson.jpg"
2426,"E_F_sandra_bullock.jpg","E_M_robert_de_niro.jpg","TRUE","pictures/stimuli/E","pictures/stimuli/E","F","M","6","57acc170c6bab4000172a42e","04/25/2022, 19:39:34",0.987383795554003,"30","Female","right",1,1,0,0,FALSE,"E_F_sandra_bullock.jpg E_M_robert_de_niro.jpg"
3037,"E_F_keira_knightley.jpg","P_M_donald_trump.jpg","FALSE","pictures/stimuli/E","pictures/stimuli/P","F","M","6","57acc170c6bab4000172a42e","04/25/2022, 19:39:34",0.987383795554003,"30","Female","right",1,1,0,0,FALSE,"E_F_keira_knightley.jpg P_M_donald_trump.jpg"
2381,"E_F_sandra_bullock.jpg","P_M_donald_trump.jpg","FALSE","pictures/stimuli/E","pictures/stimuli/P","F","M","6","57acc170c6bab4000172a42e","04/25/2022, 19:39:34",0.987383795554003,"30","Female","right",1,1,0,0,FALSE,"E_F_sandra_bullock.jpg P_M_donald_trump.jpg"
2588,"E_M_michael_caine.jpg","P_F_hillary_clinton.jpg","FALSE","pictures/stimuli/E","pictures/stimuli/P","M","F","6","57acc170c6bab4000172a42e","04/25/2022, 19:39:34",0.987383795554003,"30","Female","right",1,1,0,0,FALSE,"E_M_michael_caine.jpg P_F_hillary_clinton.jpg"
3681,"E_M_nicolas_cage.jpg","E_M_tom_hankes.jpg","TRUE","pictures/stimuli/E","pictures/stimuli/E","M","M","1","57acc170c6bab4000172a42e","04/25/2022, 19:39:34",-1.66988137661683,"30","Female","right",1,1,0,0,FALSE,"E_M_nicolas_cage.jpg E_M_tom_hankes.jpg"
3228,"E_M_Hugh_Grant.jpg","E_M_robert_de_niro.jpg","TRUE","pictures/stimuli/E","pictures/stimuli/E","M","M","3","57acc170c6bab4000172a42e","04/25/2022, 19:39:34",-0.606975307748495,"30","Female","right",1,1,0,0,FALSE,"E_M_Hugh_Grant.jpg E_M_robert_de_niro.jpg"
3495,"E_F_sandra_bullock.jpg","P_M_boris_johnson.jpg","FALSE","pictures/stimuli/E","pictures/stimuli/P","F","M","6","57acc170c6bab4000172a42e","04/25/2022, 19:39:34",0.987383795554003,"30","Female","right",1,1,0,0,FALSE,"E_F_sandra_bullock.jpg P_M_boris_johnson.jpg"
3296,"E_F_sandra_bullock.jpg","P_F_nicola_sturgeon.jpg","FALSE","pictures/stimuli/E","pictures/stimuli/P","F","F","4","57acc170c6bab4000172a42e","04/25/2022, 19:39:34",-0.0755222733143287,"30","Female","right",1,1,0,0,FALSE,"E_F_sandra_bullock.jpg P_F_nicola_sturgeon.jpg"
4749,"P_M_boris_johnson.jpg","P_M_donald_trump.jpg","TRUE","pictures/stimuli/P","pictures/stimuli/P","M","M","2","57acc170c6bab4000172a42e","04/25/2022, 19:39:34",-1.13842834218266,"30","Female","right",1,1,0,0,FALSE,"P_M_boris_johnson.jpg P_M_donald_trump.jpg"
2887,"E_F_angelina_jolie.jpg","E_M_nicolas_cage.jpg","TRUE","pictures/stimuli/E","pictures/stimuli/E","F","M","6","57acc170c6bab4000172a42e","04/25/2022, 19:39:34",0.987383795554003,"30","Female","right",1,1,0,0,FALSE,"E_F_angelina_jolie.jpg E_M_nicolas_cage.jpg"
2727,"P_F_nicola_sturgeon.jpg","P_M_bill_clinton.jpg","TRUE","pictures/stimuli/P","pictures/stimuli/P","F","M","6","57acc170c6bab4000172a42e","04/25/2022, 19:39:34",0.987383795554003,"30","Female","right",1,1,0,0,FALSE,"P_F_nicola_sturgeon.jpg P_M_bill_clinton.jpg"
4438,"P_M_boris_johnson.jpg","P_M_Tony_Blair.jpg","TRUE","pictures/stimuli/P","pictures/stimuli/P","M","M","1","57acc170c6bab4000172a42e","04/25/2022, 19:39:34",-1.66988137661683,"30","Female","right",1,1,0,0,FALSE,"P_M_boris_johnson.jpg P_M_Tony_Blair.jpg"
4168,"E_M_tom_hankes.jpg","P_M_donald_trump.jpg","FALSE","pictures/stimuli/E","pictures/stimuli/P","M","M","2","57acc170c6bab4000172a42e","04/25/2022, 19:39:34",-1.13842834218266,"30","Female","right",1,1,0,0,FALSE,"E_M_tom_hankes.jpg P_M_donald_trump.jpg"
3160,"E_M_robert_de_niro.jpg","P_F_hillary_clinton.jpg","FALSE","pictures/stimuli/E","pictures/stimuli/P","M","F","6","57acc170c6bab4000172a42e","04/25/2022, 19:39:34",0.987383795554003,"30","Female","right",1,1,0,0,FALSE,"E_M_robert_de_niro.jpg P_F_hillary_clinton.jpg"
2821,"E_F_Judi_Dench.jpg","E_M_nicolas_cage.jpg","TRUE","pictures/stimuli/E","pictures/stimuli/E","F","M","6","57acc170c6bab4000172a42e","04/25/2022, 19:39:34",0.987383795554003,"30","Female","right",1,1,0,0,FALSE,"E_F_Judi_Dench.jpg E_M_nicolas_cage.jpg"
2420,"E_M_tom_hankes.jpg","P_F_hillary_clinton.jpg","FALSE","pictures/stimuli/E","pictures/stimuli/P","M","F","6","57acc170c6bab4000172a42e","04/25/2022, 19:39:34",0.987383795554003,"30","Female","right",1,1,0,0,FALSE,"E_M_tom_hankes.jpg P_F_hillary_clinton.jpg"
3954,"E_F_angelina_jolie.jpg","P_M_donald_trump.jpg","FALSE","pictures/stimuli/E","pictures/stimuli/P","F","M","6","57acc170c6bab4000172a42e","04/25/2022, 19:39:34",0.987383795554003,"30","Female","right",1,1,0,0,FALSE,"E_F_angelina_jolie.jpg P_M_donald_trump.jpg"
2692,"E_F_Kate_Winslet.jpg","P_M_david_cameron.jpg","FALSE","pictures/stimuli/E","pictures/stimuli/P","F","M","6","57acc170c6bab4000172a42e","04/25/2022, 19:39:34",0.987383795554003,"30","Female","right",1,1,0,0,FALSE,"E_F_Kate_Winslet.jpg P_M_david_cameron.jpg"
4301,"P_F_hillary_clinton.jpg","P_F_nicola_sturgeon.jpg","TRUE","pictures/stimuli/P","pictures/stimuli/P","F","F","2","57acc170c6bab4000172a42e","04/25/2022, 19:39:34",-1.13842834218266,"30","Female","right",1,1,0,0,FALSE,"P_F_hillary_clinton.jpg P_F_nicola_sturgeon.jpg"
2555,"E_F_Judi_Dench.jpg","E_F_sandra_bullock.jpg","TRUE","pictures/stimuli/E","pictures/stimuli/E","F","F","2","57acc170c6bab4000172a42e","04/25/2022, 19:39:34",-1.13842834218266,"30","Female","right",1,1,0,0,FALSE,"E_F_Judi_Dench.jpg E_F_sandra_bullock.jpg"
2626,"E_F_Kate_Winslet.jpg","E_M_robert_de_niro.jpg","TRUE","pictures/stimuli/E","pictures/stimuli/E","F","M","6","57acc170c6bab4000172a42e","04/25/2022, 19:39:34",0.987383795554003,"30","Female","right",1,1,0,0,FALSE,"E_F_Kate_Winslet.jpg E_M_robert_de_niro.jpg"
2832,"E_F_Kate_Winslet.jpg","P_M_boris_johnson.jpg","FALSE","pictures/stimuli/E","pictures/stimuli/P","F","M","6","57acc170c6bab4000172a42e","04/25/2022, 19:39:34",0.987383795554003,"30","Female","right",1,1,0,0,FALSE,"E_F_Kate_Winslet.jpg P_M_boris_johnson.jpg"
4467,"E_M_robert_de_niro.jpg","P_M_george_Wbush.jpg","FALSE","pictures/stimuli/E","pictures/stimuli/P","M","M","2","57acc170c6bab4000172a42e","04/25/2022, 19:39:34",-1.13842834218266,"30","Female","right",1,1,0,0,FALSE,"E_M_robert_de_niro.jpg P_M_george_Wbush.jpg"
2775,"E_F_angelina_jolie.jpg","E_M_michael_caine.jpg","TRUE","pictures/stimuli/E","pictures/stimuli/E","F","M","6","57acc170c6bab4000172a42e","04/25/2022, 19:39:34",0.987383795554003,"30","Female","right",1,1,0,0,FALSE,"E_F_angelina_jolie.jpg E_M_michael_caine.jpg"
2563,"E_F_Judi_Dench.jpg","P_M_george_Wbush.jpg","FALSE","pictures/stimuli/E","pictures/stimuli/P","F","M","6","57acc170c6bab4000172a42e","04/25/2022, 19:39:34",0.987383795554003,"30","Female","right",1,1,0,0,FALSE,"E_F_Judi_Dench.jpg P_M_george_Wbush.jpg"
3606,"E_M_Hugh_Grant.jpg","P_M_bill_clinton.jpg","FALSE","pictures/stimuli/E","pictures/stimuli/P","M","M","2","57acc170c6bab4000172a42e","04/25/2022, 19:39:34",-1.13842834218266,"30","Female","right",1,1,0,0,FALSE,"E_M_Hugh_Grant.jpg P_M_bill_clinton.jpg"
2472,"E_M_Hugh_Grant.jpg","E_M_tom_hankes.jpg","TRUE","pictures/stimuli/E","pictures/stimuli/E","M","M","2","57acc170c6bab4000172a42e","04/25/2022, 19:39:34",-1.13842834218266,"30","Female","right",1,1,0,0,FALSE,"E_M_Hugh_Grant.jpg E_M_tom_hankes.jpg"
2696,"E_F_jennifer_aniston.jpg","E_M_michael_caine.jpg","TRUE","pictures/stimuli/E","pictures/stimuli/E","F","M","6","57acc170c6bab4000172a42e","04/25/2022, 19:39:34",0.987383795554003,"30","Female","right",1,1,0,0,FALSE,"E_F_jennifer_aniston.jpg E_M_michael_caine.jpg"
3045,"P_F_hillary_clinton.jpg","P_M_george_Wbush.jpg","TRUE","pictures/stimuli/P","pictures/stimuli/P","F","M","6","57acc170c6bab4000172a42e","04/25/2022, 19:39:34",0.987383795554003,"30","Female","right",1,1,0,0,FALSE,"P_F_hillary_clinton.jpg P_M_george_Wbush.jpg"
3038,"E_F_Kate_Winslet.jpg","P_M_bill_clinton.jpg","FALSE","pictures/stimuli/E","pictures/stimuli/P","F","M","6","57acc170c6bab4000172a42e","04/25/2022, 19:39:34",0.987383795554003,"30","Female","right",1,1,0,0,FALSE,"E_F_Kate_Winslet.jpg P_M_bill_clinton.jpg"
2788,"E_M_tom_hankes.jpg","P_M_bill_clinton.jpg","FALSE","pictures/stimuli/E","pictures/stimuli/P","M","M","2","57acc170c6bab4000172a42e","04/25/2022, 19:39:34",-1.13842834218266,"30","Female","right",1,1,0,0,FALSE,"E_M_tom_hankes.jpg P_M_bill_clinton.jpg"
5549,"E_F_keira_knightley.jpg","P_M_david_cameron.jpg","FALSE","pictures/stimuli/E","pictures/stimuli/P","F","M","5","57acc170c6bab4000172a42e","04/25/2022, 19:39:34",0.455930761119837,"30","Female","right",1,1,0,0,FALSE,"E_F_keira_knightley.jpg P_M_david_cameron.jpg"
2904,"P_F_tehresy_may.jpg","P_M_bill_clinton.jpg","TRUE","pictures/stimuli/P","pictures/stimuli/P","F","M","6","57acc170c6bab4000172a42e","04/25/2022, 19:39:34",0.987383795554003,"30","Female","right",1,1,0,0,FALSE,"P_F_tehresy_may.jpg P_M_bill_clinton.jpg"
2456,"P_F_hillary_clinton.jpg","P_M_david_cameron.jpg","TRUE","pictures/stimuli/P","pictures/stimuli/P","F","M","6","57acc170c6bab4000172a42e","04/25/2022, 19:39:34",0.987383795554003,"30","Female","right",1,1,0,0,FALSE,"P_F_hillary_clinton.jpg P_M_david_cameron.jpg"
2510,"E_F_sandra_bullock.jpg","E_M_michael_caine.jpg","TRUE","pictures/stimuli/E","pictures/stimuli/E","F","M","6","57acc170c6bab4000172a42e","04/25/2022, 19:39:34",0.987383795554003,"30","Female","right",1,1,0,0,FALSE,"E_F_sandra_bullock.jpg E_M_michael_caine.jpg"
3762,"P_F_tehresy_may.jpg","P_M_Tony_Blair.jpg","TRUE","pictures/stimuli/P","pictures/stimuli/P","F","M","5","57acc170c6bab4000172a42e","04/25/2022, 19:39:34",0.455930761119837,"30","Female","right",1,1,0,0,FALSE,"P_F_tehresy_may.jpg P_M_Tony_Blair.jpg"
2449,"E_F_jennifer_aniston.jpg","E_M_Hugh_Grant.jpg","TRUE","pictures/stimuli/E","pictures/stimuli/E","F","M","6","57acc170c6bab4000172a42e","04/25/2022, 19:39:34",0.987383795554003,"30","Female","right",1,1,0,0,FALSE,"E_F_jennifer_aniston.jpg E_M_Hugh_Grant.jpg"
3715,"E_M_nicolas_cage.jpg","P_M_donald_trump.jpg","FALSE","pictures/stimuli/E","pictures/stimuli/P","M","M","2","57acc170c6bab4000172a42e","04/25/2022, 19:39:34",-1.13842834218266,"30","Female","right",1,1,0,0,FALSE,"E_M_nicolas_cage.jpg P_M_donald_trump.jpg"
2567,"E_F_keira_knightley.jpg","P_F_nicola_sturgeon.jpg","FALSE","pictures/stimuli/E","pictures/stimuli/P","F","F","4","57acc170c6bab4000172a42e","04/25/2022, 19:39:34",-0.0755222733143287,"30","Female","right",1,1,0,0,FALSE,"E_F_keira_knightley.jpg P_F_nicola_sturgeon.jpg"
3845,"P_F_nicola_sturgeon.jpg","P_F_tehresy_may.jpg","TRUE","pictures/stimuli/P","pictures/stimuli/P","F","F","1","57acc170c6bab4000172a42e","04/25/2022, 19:39:34",-1.66988137661683,"30","Female","right",1,1,0,0,FALSE,"P_F_nicola_sturgeon.jpg P_F_tehresy_may.jpg"
3752,"E_F_jennifer_aniston.jpg","E_F_keira_knightley.jpg","TRUE","pictures/stimuli/E","pictures/stimuli/E","F","F","2","57acc170c6bab4000172a42e","04/25/2022, 19:39:34",-1.13842834218266,"30","Female","right",1,1,0,0,FALSE,"E_F_jennifer_aniston.jpg E_F_keira_knightley.jpg"
3030,"P_F_hillary_clinton.jpg","P_F_tehresy_may.jpg","TRUE","pictures/stimuli/P","pictures/stimuli/P","F","F","2","57acc170c6bab4000172a42e","04/25/2022, 19:39:34",-1.13842834218266,"30","Female","right",1,1,0,0,FALSE,"P_F_hillary_clinton.jpg P_F_tehresy_may.jpg"
4166,"P_F_hillary_clinton.jpg","P_M_bill_clinton.jpg","TRUE","pictures/stimuli/P","pictures/stimuli/P","F","M","5","57acc170c6bab4000172a42e","04/25/2022, 19:39:34",0.455930761119837,"30","Female","right",1,1,0,0,FALSE,"P_F_hillary_clinton.jpg P_M_bill_clinton.jpg"
3254,"E_F_Judi_Dench.jpg","P_M_Tony_Blair.jpg","FALSE","pictures/stimuli/E","pictures/stimuli/P","F","M","6","57acc170c6bab4000172a42e","04/25/2022, 19:39:34",0.987383795554003,"30","Female","right",1,1,0,0,FALSE,"E_F_Judi_Dench.jpg P_M_Tony_Blair.jpg"
2389,"E_M_nicolas_cage.jpg","P_M_george_Wbush.jpg","FALSE","pictures/stimuli/E","pictures/stimuli/P","M","M","2","57acc170c6bab4000172a42e","04/25/2022, 19:39:34",-1.13842834218266,"30","Female","right",1,1,0,0,FALSE,"E_M_nicolas_cage.jpg P_M_george_Wbush.jpg"
3830,"E_M_michael_caine.jpg","E_M_nicolas_cage.jpg","TRUE","pictures/stimuli/E","pictures/stimuli/E","M","M","2","57acc170c6bab4000172a42e","04/25/2022, 19:39:34",-1.13842834218266,"30","Female","right",1,1,0,0,FALSE,"E_M_michael_caine.jpg E_M_nicolas_cage.jpg"
3100,"E_M_Hugh_Grant.jpg","P_M_donald_trump.jpg","FALSE","pictures/stimuli/E","pictures/stimuli/P","M","M","3","57acc170c6bab4000172a42e","04/25/2022, 19:39:34",-0.606975307748495,"30","Female","right",1,1,0,0,FALSE,"E_M_Hugh_Grant.jpg P_M_donald_trump.jpg"
5926,"P_F_hillary_clinton.jpg","P_M_donald_trump.jpg","TRUE","pictures/stimuli/P","pictures/stimuli/P","F","M","5","57acc170c6bab4000172a42e","04/25/2022, 19:39:34",0.455930761119837,"30","Female","right",1,1,0,0,FALSE,"P_F_hillary_clinton.jpg P_M_donald_trump.jpg"
3676,"E_F_Judi_Dench.jpg","E_M_tom_hankes.jpg","TRUE","pictures/stimuli/E","pictures/stimuli/E","F","M","6","57acc170c6bab4000172a42e","04/25/2022, 19:39:34",0.987383795554003,"30","Female","right",1,1,0,0,FALSE,"E_F_Judi_Dench.jpg E_M_tom_hankes.jpg"
3145,"E_M_Hugh_Grant.jpg","P_F_hillary_clinton.jpg","FALSE","pictures/stimuli/E","pictures/stimuli/P","M","F","6","57acc170c6bab4000172a42e","04/25/2022, 19:39:34",0.987383795554003,"30","Female","right",1,1,0,0,FALSE,"E_M_Hugh_Grant.jpg P_F_hillary_clinton.jpg"
4381,"P_F_nicola_sturgeon.jpg","P_M_Tony_Blair.jpg","TRUE","pictures/stimuli/P","pictures/stimuli/P","F","M","5","57acc170c6bab4000172a42e","04/25/2022, 19:39:34",0.455930761119837,"30","Female","right",1,1,0,0,FALSE,"P_F_nicola_sturgeon.jpg P_M_Tony_Blair.jpg"
3374,"E_M_tom_hankes.jpg","P_M_Tony_Blair.jpg","FALSE","pictures/stimuli/E","pictures/stimuli/P","M","M","3","57acc170c6bab4000172a42e","04/25/2022, 19:39:34",-0.606975307748495,"30","Female","right",1,1,0,0,FALSE,"E_M_tom_hankes.jpg P_M_Tony_Blair.jpg"
3681,"E_M_michael_caine.jpg","E_M_robert_de_niro.jpg","TRUE","pictures/stimuli/E","pictures/stimuli/E","M","M","2","57acc170c6bab4000172a42e","04/25/2022, 19:39:34",-1.13842834218266,"30","Female","right",1,1,0,0,FALSE,"E_M_michael_caine.jpg E_M_robert_de_niro.jpg"
3263,"E_F_angelina_jolie.jpg","E_M_robert_de_niro.jpg","TRUE","pictures/stimuli/E","pictures/stimuli/E","F","M","6","57acc170c6bab4000172a42e","04/25/2022, 19:39:34",0.987383795554003,"30","Female","right",1,1,0,0,FALSE,"E_F_angelina_jolie.jpg E_M_robert_de_niro.jpg"
2695,"E_M_michael_caine.jpg","P_M_Tony_Blair.jpg","FALSE","pictures/stimuli/E","pictures/stimuli/P","M","M","2","57acc170c6bab4000172a42e","04/25/2022, 19:39:34",-1.13842834218266,"30","Female","right",1,1,0,0,FALSE,"E_M_michael_caine.jpg P_M_Tony_Blair.jpg"
3453,"P_F_tehresy_may.jpg","P_M_david_cameron.jpg","TRUE","pictures/stimuli/P","pictures/stimuli/P","F","M","5","57acc170c6bab4000172a42e","04/25/2022, 19:39:34",0.455930761119837,"30","Female","right",1,1,0,0,FALSE,"P_F_tehresy_may.jpg P_M_david_cameron.jpg"
2968,"P_F_nicola_sturgeon.jpg","P_M_donald_trump.jpg","TRUE","pictures/stimuli/P","pictures/stimuli/P","F","M","6","57acc170c6bab4000172a42e","04/25/2022, 19:39:34",0.987383795554003,"30","Female","right",1,1,0,0,FALSE,"P_F_nicola_sturgeon.jpg P_M_donald_trump.jpg"
2744,"E_M_Hugh_Grant.jpg","E_M_nicolas_cage.jpg","TRUE","pictures/stimuli/E","pictures/stimuli/E","M","M","2","57acc170c6bab4000172a42e","04/25/2022, 19:39:34",-1.13842834218266,"30","Female","right",1,1,0,0,FALSE,"E_M_Hugh_Grant.jpg E_M_nicolas_cage.jpg"
3307,"E_F_angelina_jolie.jpg","E_M_tom_hankes.jpg","TRUE","pictures/stimuli/E","pictures/stimuli/E","F","M","5","57acc170c6bab4000172a42e","04/25/2022, 19:39:34",0.455930761119837,"30","Female","right",1,1,0,0,FALSE,"E_F_angelina_jolie.jpg E_M_tom_hankes.jpg"
3059,"E_F_Judi_Dench.jpg","P_M_david_cameron.jpg","FALSE","pictures/stimuli/E","pictures/stimuli/P","F","M","3","57acc170c6bab4000172a42e","04/25/2022, 19:39:34",-0.606975307748495,"30","Female","right",1,1,0,0,FALSE,"E_F_Judi_Dench.jpg P_M_david_cameron.jpg"
4002,"E_F_Judi_Dench.jpg","P_F_nicola_sturgeon.jpg","FALSE","pictures/stimuli/E","pictures/stimuli/P","F","F","4","57acc170c6bab4000172a42e","04/25/2022, 19:39:34",-0.0755222733143287,"30","Female","right",1,1,0,0,FALSE,"E_F_Judi_Dench.jpg P_F_nicola_sturgeon.jpg"
3308,"E_M_michael_caine.jpg","P_M_george_Wbush.jpg","FALSE","pictures/stimuli/E","pictures/stimuli/P","M","M","3","57acc170c6bab4000172a42e","04/25/2022, 19:39:34",-0.606975307748495,"30","Female","right",1,1,0,0,FALSE,"E_M_michael_caine.jpg P_M_george_Wbush.jpg"
2861,"E_F_Kate_Winslet.jpg","E_F_sandra_bullock.jpg","TRUE","pictures/stimuli/E","pictures/stimuli/E","F","F","2","57acc170c6bab4000172a42e","04/25/2022, 19:39:34",-1.13842834218266,"30","Female","right",1,1,0,0,FALSE,"E_F_Kate_Winslet.jpg E_F_sandra_bullock.jpg"
5494,"E_M_Hugh_Grant.jpg","P_M_boris_johnson.jpg","FALSE","pictures/stimuli/E","pictures/stimuli/P","M","M","2","57acc170c6bab4000172a42e","04/25/2022, 19:39:34",-1.13842834218266,"30","Female","right",1,1,0,0,FALSE,"E_M_Hugh_Grant.jpg P_M_boris_johnson.jpg"
2474,"E_F_Kate_Winslet.jpg","P_F_hillary_clinton.jpg","FALSE","pictures/stimuli/E","pictures/stimuli/P","F","F","3","57acc170c6bab4000172a42e","04/25/2022, 19:39:34",-0.606975307748495,"30","Female","right",1,1,0,0,FALSE,"E_F_Kate_Winslet.jpg P_F_hillary_clinton.jpg"
2704,"E_F_angelina_jolie.jpg","P_M_george_Wbush.jpg","FALSE","pictures/stimuli/E","pictures/stimuli/P","F","M","6","57acc170c6bab4000172a42e","04/25/2022, 19:39:34",0.987383795554003,"30","Female","right",1,1,0,0,FALSE,"E_F_angelina_jolie.jpg P_M_george_Wbush.jpg"
4106,"E_F_Judi_Dench.jpg","P_M_boris_johnson.jpg","FALSE","pictures/stimuli/E","pictures/stimuli/P","F","M","6","57acc170c6bab4000172a42e","04/25/2022, 19:39:34",0.987383795554003,"30","Female","right",1,1,0,0,FALSE,"E_F_Judi_Dench.jpg P_M_boris_johnson.jpg"
2166,"E_F_jennifer_aniston.jpg","P_F_tehresy_may.jpg","FALSE","pictures/stimuli/E","pictures/stimuli/P","F","F","3","57acc170c6bab4000172a42e","04/25/2022, 19:39:34",-0.606975307748495,"30","Female","right",1,1,0,0,FALSE,"E_F_jennifer_aniston.jpg P_F_tehresy_may.jpg"
2919,"E_F_Judi_Dench.jpg","P_M_bill_clinton.jpg","FALSE","pictures/stimuli/E","pictures/stimuli/P","F","M","6","57acc170c6bab4000172a42e","04/25/2022, 19:39:34",0.987383795554003,"30","Female","right",1,1,0,0,FALSE,"E_F_Judi_Dench.jpg P_M_bill_clinton.jpg"
3039,"E_M_tom_hankes.jpg","P_M_george_Wbush.jpg","FALSE","pictures/stimuli/E","pictures/stimuli/P","M","M","2","57acc170c6bab4000172a42e","04/25/2022, 19:39:34",-1.13842834218266,"30","Female","right",1,1,0,0,FALSE,"E_M_tom_hankes.jpg P_M_george_Wbush.jpg"
3436,"E_M_robert_de_niro.jpg","P_F_nicola_sturgeon.jpg","FALSE","pictures/stimuli/E","pictures/stimuli/P","M","F","6","57acc170c6bab4000172a42e","04/25/2022, 19:39:34",0.987383795554003,"30","Female","right",1,1,0,0,FALSE,"E_M_robert_de_niro.jpg P_F_nicola_sturgeon.jpg"
2755,"E_M_Hugh_Grant.jpg","P_M_george_Wbush.jpg","FALSE","pictures/stimuli/E","pictures/stimuli/P","M","M","3","57acc170c6bab4000172a42e","04/25/2022, 19:39:34",-0.606975307748495,"30","Female","right",1,1,0,0,FALSE,"E_M_Hugh_Grant.jpg P_M_george_Wbush.jpg"
2325,"E_F_jennifer_aniston.jpg","E_M_robert_de_niro.jpg","TRUE","pictures/stimuli/E","pictures/stimuli/E","F","M","6","57acc170c6bab4000172a42e","04/25/2022, 19:39:34",0.987383795554003,"30","Female","right",1,1,0,0,FALSE,"E_F_jennifer_aniston.jpg E_M_robert_de_niro.jpg"
2652,"P_M_donald_trump.jpg","P_M_Tony_Blair.jpg","TRUE","pictures/stimuli/P","pictures/stimuli/P","M","M","2","57acc170c6bab4000172a42e","04/25/2022, 19:39:34",-1.13842834218266,"30","Female","right",1,1,0,0,FALSE,"P_M_donald_trump.jpg P_M_Tony_Blair.jpg"
3391,"E_F_sandra_bullock.jpg","P_M_Tony_Blair.jpg","FALSE","pictures/stimuli/E","pictures/stimuli/P","F","M","6","57acc170c6bab4000172a42e","04/25/2022, 19:39:34",0.987383795554003,"30","Female","right",1,1,0,0,FALSE,"E_F_sandra_bullock.jpg P_M_Tony_Blair.jpg"
2931,"P_F_nicola_sturgeon.jpg","P_M_david_cameron.jpg","TRUE","pictures/stimuli/P","pictures/stimuli/P","F","M","5","57acc170c6bab4000172a42e","04/25/2022, 19:39:34",0.455930761119837,"30","Female","right",1,1,0,0,FALSE,"P_F_nicola_sturgeon.jpg P_M_david_cameron.jpg"
4543,"P_F_hillary_clinton.jpg","P_M_boris_johnson.jpg","TRUE","pictures/stimuli/P","pictures/stimuli/P","F","M","5","57acc170c6bab4000172a42e","04/25/2022, 19:39:34",0.455930761119837,"30","Female","right",1,1,0,0,FALSE,"P_F_hillary_clinton.jpg P_M_boris_johnson.jpg"
5913,"E_F_keira_knightley.jpg","P_M_boris_johnson.jpg","FALSE","pictures/stimuli/E","pictures/stimuli/P","F","M","6","57acc170c6bab4000172a42e","04/25/2022, 19:39:34",0.987383795554003,"30","Female","right",1,1,0,0,FALSE,"E_F_keira_knightley.jpg P_M_boris_johnson.jpg"
3833,"E_M_robert_de_niro.jpg","P_M_donald_trump.jpg","FALSE","pictures/stimuli/E","pictures/stimuli/P","M","M","2","57acc170c6bab4000172a42e","04/25/2022, 19:39:34",-1.13842834218266,"30","Female","right",1,1,0,0,FALSE,"E_M_robert_de_niro.jpg P_M_donald_trump.jpg"
4236,"E_M_nicolas_cage.jpg","P_M_Tony_Blair.jpg","FALSE","pictures/stimuli/E","pictures/stimuli/P","M","M","3","57acc170c6bab4000172a42e","04/25/2022, 19:39:34",-0.606975307748495,"30","Female","right",1,1,0,0,FALSE,"E_M_nicolas_cage.jpg P_M_Tony_Blair.jpg"
3962,"E_F_keira_knightley.jpg","E_F_sandra_bullock.jpg","TRUE","pictures/stimuli/E","pictures/stimuli/E","F","F","3","57acc170c6bab4000172a42e","04/25/2022, 19:39:34",-0.606975307748495,"30","Female","right",1,1,0,0,FALSE,"E_F_keira_knightley.jpg E_F_sandra_bullock.jpg"
3643,"E_F_jennifer_aniston.jpg","P_M_Tony_Blair.jpg","FALSE","pictures/stimuli/E","pictures/stimuli/P","F","M","6","57acc170c6bab4000172a42e","04/25/2022, 19:39:34",0.987383795554003,"30","Female","right",1,1,0,0,FALSE,"E_F_jennifer_aniston.jpg P_M_Tony_Blair.jpg"
2666,"E_F_angelina_jolie.jpg","P_F_nicola_sturgeon.jpg","FALSE","pictures/stimuli/E","pictures/stimuli/P","F","F","5","57acc170c6bab4000172a42e","04/25/2022, 19:39:34",0.455930761119837,"30","Female","right",1,1,0,0,FALSE,"E_F_angelina_jolie.jpg P_F_nicola_sturgeon.jpg"
2551,"P_M_george_Wbush.jpg","P_M_Tony_Blair.jpg","TRUE","pictures/stimuli/P","pictures/stimuli/P","M","M","2","57acc170c6bab4000172a42e","04/25/2022, 19:39:34",-1.13842834218266,"30","Female","right",1,1,0,0,FALSE,"P_M_george_Wbush.jpg P_M_Tony_Blair.jpg"
3395,"E_M_Hugh_Grant.jpg","E_M_michael_caine.jpg","TRUE","pictures/stimuli/E","pictures/stimuli/E","M","M","2","57acc170c6bab4000172a42e","04/25/2022, 19:39:34",-1.13842834218266,"30","Female","right",1,1,0,0,FALSE,"E_M_Hugh_Grant.jpg E_M_michael_caine.jpg"
3719,"P_M_bill_clinton.jpg","P_M_george_Wbush.jpg","TRUE","pictures/stimuli/P","pictures/stimuli/P","M","M","1","57acc170c6bab4000172a42e","04/25/2022, 19:39:34",-1.66988137661683,"30","Female","right",1,1,0,0,FALSE,"P_M_bill_clinton.jpg P_M_george_Wbush.jpg"
2565,"E_F_angelina_jolie.jpg","E_F_Judi_Dench.jpg","TRUE","pictures/stimuli/E","pictures/stimuli/E","F","F","3","57acc170c6bab4000172a42e","04/25/2022, 19:39:34",-0.606975307748495,"30","Female","right",1,1,0,0,FALSE,"E_F_angelina_jolie.jpg E_F_Judi_Dench.jpg"
4647,"P_M_bill_clinton.jpg","P_M_Tony_Blair.jpg","TRUE","pictures/stimuli/P","pictures/stimuli/P","M","M","2","57acc170c6bab4000172a42e","04/25/2022, 19:39:34",-1.13842834218266,"30","Female","right",1,1,0,0,FALSE,"P_M_bill_clinton.jpg P_M_Tony_Blair.jpg"
2848,"E_M_robert_de_niro.jpg","P_M_david_cameron.jpg","FALSE","pictures/stimuli/E","pictures/stimuli/P","M","M","3","57acc170c6bab4000172a42e","04/25/2022, 19:39:34",-0.606975307748495,"30","Female","right",1,1,0,0,FALSE,"E_M_robert_de_niro.jpg P_M_david_cameron.jpg"
3946,"E_M_Hugh_Grant.jpg","P_M_Tony_Blair.jpg","FALSE","pictures/stimuli/E","pictures/stimuli/P","M","M","2","57acc170c6bab4000172a42e","04/25/2022, 19:39:34",-1.13842834218266,"30","Female","right",1,1,0,0,FALSE,"E_M_Hugh_Grant.jpg P_M_Tony_Blair.jpg"
4798,"E_F_keira_knightley.jpg","E_M_michael_caine.jpg","TRUE","pictures/stimuli/E","pictures/stimuli/E","F","M","5","57acc170c6bab4000172a42e","04/25/2022, 19:39:34",0.455930761119837,"30","Female","right",1,1,0,0,FALSE,"E_F_keira_knightley.jpg E_M_michael_caine.jpg"
4053,"P_M_david_cameron.jpg","P_M_george_Wbush.jpg","TRUE","pictures/stimuli/P","pictures/stimuli/P","M","M","3","57acc170c6bab4000172a42e","04/25/2022, 19:39:34",-0.606975307748495,"30","Female","right",1,1,0,0,FALSE,"P_M_david_cameron.jpg P_M_george_Wbush.jpg"
4238,"E_F_keira_knightley.jpg","E_M_tom_hankes.jpg","TRUE","pictures/stimuli/E","pictures/stimuli/E","F","M","6","57acc170c6bab4000172a42e","04/25/2022, 19:39:34",0.987383795554003,"30","Female","right",1,1,0,0,FALSE,"E_F_keira_knightley.jpg E_M_tom_hankes.jpg"
2589,"E_M_robert_de_niro.jpg","P_M_Tony_Blair.jpg","FALSE","pictures/stimuli/E","pictures/stimuli/P","M","M","3","57acc170c6bab4000172a42e","04/25/2022, 19:39:34",-0.606975307748495,"30","Female","right",1,1,0,0,FALSE,"E_M_robert_de_niro.jpg P_M_Tony_Blair.jpg"
3038,"E_F_angelina_jolie.jpg","E_F_Kate_Winslet.jpg","TRUE","pictures/stimuli/E","pictures/stimuli/E","F","F","2","57acc170c6bab4000172a42e","04/25/2022, 19:39:34",-1.13842834218266,"30","Female","right",1,1,0,0,FALSE,"E_F_angelina_jolie.jpg E_F_Kate_Winslet.jpg"
2426,"E_M_robert_de_niro.jpg","P_M_bill_clinton.jpg","FALSE","pictures/stimuli/E","pictures/stimuli/P","M","M","2","57acc170c6bab4000172a42e","04/25/2022, 19:39:34",-1.13842834218266,"30","Female","right",1,1,0,0,FALSE,"E_M_robert_de_niro.jpg P_M_bill_clinton.jpg"
2908,"E_M_nicolas_cage.jpg","P_M_bill_clinton.jpg","FALSE","pictures/stimuli/E","pictures/stimuli/P","M","M","2","57acc170c6bab4000172a42e","04/25/2022, 19:39:34",-1.13842834218266,"30","Female","right",1,1,0,0,FALSE,"E_M_nicolas_cage.jpg P_M_bill_clinton.jpg"
4113,"E_F_jennifer_aniston.jpg","P_F_hillary_clinton.jpg","FALSE","pictures/stimuli/E","pictures/stimuli/P","F","F","2","57acc170c6bab4000172a42e","04/25/2022, 19:39:34",-1.13842834218266,"30","Female","right",1,1,0,0,FALSE,"E_F_jennifer_aniston.jpg P_F_hillary_clinton.jpg"
2430,"E_F_jennifer_aniston.jpg","P_M_donald_trump.jpg","FALSE","pictures/stimuli/E","pictures/stimuli/P","F","M","6","57acc170c6bab4000172a42e","04/25/2022, 19:39:34",0.987383795554003,"30","Female","right",1,1,0,0,FALSE,"E_F_jennifer_aniston.jpg P_M_donald_trump.jpg"
4537,"E_F_jennifer_aniston.jpg","P_F_nicola_sturgeon.jpg","FALSE","pictures/stimuli/E","pictures/stimuli/P","F","F","4","57acc170c6bab4000172a42e","04/25/2022, 19:39:34",-0.0755222733143287,"30","Female","right",1,1,0,0,FALSE,"E_F_jennifer_aniston.jpg P_F_nicola_sturgeon.jpg"
3078,"E_F_sandra_bullock.jpg","E_M_tom_hankes.jpg","TRUE","pictures/stimuli/E","pictures/stimuli/E","F","M","5","57acc170c6bab4000172a42e","04/25/2022, 19:39:34",0.455930761119837,"30","Female","right",1,1,0,0,FALSE,"E_F_sandra_bullock.jpg E_M_tom_hankes.jpg"
6808,"E_M_Hugh_Grant.jpg","P_F_tehresy_may.jpg","FALSE","pictures/stimuli/E","pictures/stimuli/P","M","F","5","57acc170c6bab4000172a42e","04/25/2022, 19:39:34",0.455930761119837,"30","Female","right",1,1,0,0,FALSE,"E_M_Hugh_Grant.jpg P_F_tehresy_may.jpg"
3599,"E_M_tom_hankes.jpg","P_F_tehresy_may.jpg","FALSE","pictures/stimuli/E","pictures/stimuli/P","M","F","6","57acc170c6bab4000172a42e","04/25/2022, 19:39:34",0.987383795554003,"30","Female","right",1,1,0,0,FALSE,"E_M_tom_hankes.jpg P_F_tehresy_may.jpg"
3407,"E_F_Kate_Winslet.jpg","P_F_tehresy_may.jpg","FALSE","pictures/stimuli/E","pictures/stimuli/P","F","F","3","57acc170c6bab4000172a42e","04/25/2022, 19:39:34",-0.606975307748495,"30","Female","right",1,1,0,0,FALSE,"E_F_Kate_Winslet.jpg P_F_tehresy_may.jpg"
4419,"E_F_Kate_Winslet.jpg","P_M_Tony_Blair.jpg","FALSE","pictures/stimuli/E","pictures/stimuli/P","F","M","6","57acc170c6bab4000172a42e","04/25/2022, 19:39:34",0.987383795554003,"30","Female","right",1,1,0,0,FALSE,"E_F_Kate_Winslet.jpg P_M_Tony_Blair.jpg"
3221,"P_M_donald_trump.jpg","P_M_george_Wbush.jpg","TRUE","pictures/stimuli/P","pictures/stimuli/P","M","M","1","57acc170c6bab4000172a42e","04/25/2022, 19:39:34",-1.66988137661683,"30","Female","right",1,1,0,0,FALSE,"P_M_donald_trump.jpg P_M_george_Wbush.jpg"
3127,"E_M_michael_caine.jpg","E_M_tom_hankes.jpg","TRUE","pictures/stimuli/E","pictures/stimuli/E","M","M","2","57acc170c6bab4000172a42e","04/25/2022, 19:39:34",-1.13842834218266,"30","Female","right",1,1,0,0,FALSE,"E_M_michael_caine.jpg E_M_tom_hankes.jpg"
3059,"E_F_jennifer_aniston.jpg","P_M_george_Wbush.jpg","FALSE","pictures/stimuli/E","pictures/stimuli/P","F","M","6","57acc170c6bab4000172a42e","04/25/2022, 19:39:34",0.987383795554003,"30","Female","right",1,1,0,0,FALSE,"E_F_jennifer_aniston.jpg P_M_george_Wbush.jpg"
5101,"E_M_nicolas_cage.jpg","E_M_robert_de_niro.jpg","TRUE","pictures/stimuli/E","pictures/stimuli/E","M","M","2","57acc170c6bab4000172a42e","04/25/2022, 19:39:34",-1.13842834218266,"30","Female","right",1,1,0,0,FALSE,"E_M_nicolas_cage.jpg E_M_robert_de_niro.jpg"
2363,"E_F_jennifer_aniston.jpg","E_F_Kate_Winslet.jpg","TRUE","pictures/stimuli/E","pictures/stimuli/E","F","F","2","57acc170c6bab4000172a42e","04/25/2022, 19:39:34",-1.13842834218266,"30","Female","right",1,1,0,0,FALSE,"E_F_jennifer_aniston.jpg E_F_Kate_Winslet.jpg"
3680,"E_M_tom_hankes.jpg","P_M_david_cameron.jpg","FALSE","pictures/stimuli/E","pictures/stimuli/P","M","M","2","57acc170c6bab4000172a42e","04/25/2022, 19:39:34",-1.13842834218266,"30","Female","right",1,1,0,0,FALSE,"E_M_tom_hankes.jpg P_M_david_cameron.jpg"
3288,"E_F_angelina_jolie.jpg","E_F_keira_knightley.jpg","TRUE","pictures/stimuli/E","pictures/stimuli/E","F","F","2","57acc170c6bab4000172a42e","04/25/2022, 19:39:34",-1.13842834218266,"30","Female","right",1,1,0,0,FALSE,"E_F_angelina_jolie.jpg E_F_keira_knightley.jpg"
2979,"E_F_sandra_bullock.jpg","P_F_hillary_clinton.jpg","FALSE","pictures/stimuli/E","pictures/stimuli/P","F","F","3","57acc170c6bab4000172a42e","04/25/2022, 19:39:34",-0.606975307748495,"30","Female","right",1,1,0,0,FALSE,"E_F_sandra_bullock.jpg P_F_hillary_clinton.jpg"
2654,"E_F_Judi_Dench.jpg","P_F_hillary_clinton.jpg","FALSE","pictures/stimuli/E","pictures/stimuli/P","F","F","3","57acc170c6bab4000172a42e","04/25/2022, 19:39:34",-0.606975307748495,"30","Female","right",1,1,0,0,FALSE,"E_F_Judi_Dench.jpg P_F_hillary_clinton.jpg"
2539,"E_F_Kate_Winslet.jpg","E_F_keira_knightley.jpg","TRUE","pictures/stimuli/E","pictures/stimuli/E","F","F","2","57acc170c6bab4000172a42e","04/25/2022, 19:39:34",-1.13842834218266,"30","Female","right",1,1,0,0,FALSE,"E_F_Kate_Winslet.jpg E_F_keira_knightley.jpg"
3472,"E_F_keira_knightley.jpg","E_M_Hugh_Grant.jpg","TRUE","pictures/stimuli/E","pictures/stimuli/E","F","M","6","57acc170c6bab4000172a42e","04/25/2022, 19:39:34",0.987383795554003,"30","Female","right",1,1,0,0,FALSE,"E_F_keira_knightley.jpg E_M_Hugh_Grant.jpg"
2414,"E_F_Kate_Winslet.jpg","P_M_george_Wbush.jpg","FALSE","pictures/stimuli/E","pictures/stimuli/P","F","M","6","57acc170c6bab4000172a42e","04/25/2022, 19:39:34",0.987383795554003,"30","Female","right",1,1,0,0,FALSE,"E_F_Kate_Winslet.jpg P_M_george_Wbush.jpg"
2273,"E_F_sandra_bullock.jpg","P_M_bill_clinton.jpg","FALSE","pictures/stimuli/E","pictures/stimuli/P","F","M","6","57acc170c6bab4000172a42e","04/25/2022, 19:39:34",0.987383795554003,"30","Female","right",1,1,0,0,FALSE,"E_F_sandra_bullock.jpg P_M_bill_clinton.jpg"
2895,"E_F_keira_knightley.jpg","P_F_tehresy_may.jpg","FALSE","pictures/stimuli/E","pictures/stimuli/P","F","F","4","57acc170c6bab4000172a42e","04/25/2022, 19:39:34",-0.0755222733143287,"30","Female","right",1,1,0,0,FALSE,"E_F_keira_knightley.jpg P_F_tehresy_may.jpg"
3651,"E_F_Judi_Dench.jpg","E_M_robert_de_niro.jpg","TRUE","pictures/stimuli/E","pictures/stimuli/E","F","M","5","57acc170c6bab4000172a42e","04/25/2022, 19:39:34",0.455930761119837,"30","Female","right",1,1,0,0,FALSE,"E_F_Judi_Dench.jpg E_M_robert_de_niro.jpg"
4397,"E_F_angelina_jolie.jpg","E_F_sandra_bullock.jpg","TRUE","pictures/stimuli/E","pictures/stimuli/E","F","F","1","57acc170c6bab4000172a42e","04/25/2022, 19:39:34",-1.66988137661683,"30","Female","right",1,1,0,0,FALSE,"E_F_angelina_jolie.jpg E_F_sandra_bullock.jpg"
3046,"E_F_Kate_Winslet.jpg","E_M_Hugh_Grant.jpg","TRUE","pictures/stimuli/E","pictures/stimuli/E","F","M","6","57acc170c6bab4000172a42e","04/25/2022, 19:39:34",0.987383795554003,"30","Female","right",1,1,0,0,FALSE,"E_F_Kate_Winslet.jpg E_M_Hugh_Grant.jpg"
4556,"E_F_angelina_jolie.jpg","P_M_bill_clinton.jpg","FALSE","pictures/stimuli/E","pictures/stimuli/P","F","M","5","57acc170c6bab4000172a42e","04/25/2022, 19:39:34",0.455930761119837,"30","Female","right",1,1,0,0,FALSE,"E_F_angelina_jolie.jpg P_M_bill_clinton.jpg"
4498,"E_M_Hugh_Grant.jpg","P_F_tehresy_may.jpg","FALSE","pictures/stimuli/E","pictures/stimuli/P","M","F","2","57c975a8648ff40001666439","04/25/2022, 19:51:33",-0.915590861352163,"34","Female","right",1,1,0,0,FALSE,"E_M_Hugh_Grant.jpg P_F_tehresy_may.jpg"
5059,"E_M_michael_caine.jpg","E_M_robert_de_niro.jpg","TRUE","pictures/stimuli/E","pictures/stimuli/E","M","M","5","57c975a8648ff40001666439","04/25/2022, 19:51:33",0.498736485451991,"34","Female","right",1,1,0,0,FALSE,"E_M_michael_caine.jpg E_M_robert_de_niro.jpg"
4635,"E_M_nicolas_cage.jpg","P_F_nicola_sturgeon.jpg","FALSE","pictures/stimuli/E","pictures/stimuli/P","M","F","6","57c975a8648ff40001666439","04/25/2022, 19:51:33",0.970178934386709,"34","Female","right",1,1,0,0,FALSE,"E_M_nicolas_cage.jpg P_F_nicola_sturgeon.jpg"
5552,"P_M_bill_clinton.jpg","P_M_boris_johnson.jpg","TRUE","pictures/stimuli/P","pictures/stimuli/P","M","M","3","57c975a8648ff40001666439","04/25/2022, 19:51:33",-0.444148412417445,"34","Female","right",1,1,0,0,FALSE,"P_M_bill_clinton.jpg P_M_boris_johnson.jpg"
4135,"E_M_nicolas_cage.jpg","P_F_hillary_clinton.jpg","FALSE","pictures/stimuli/E","pictures/stimuli/P","M","F","6","57c975a8648ff40001666439","04/25/2022, 19:51:33",0.970178934386709,"34","Female","right",1,1,0,0,FALSE,"E_M_nicolas_cage.jpg P_F_hillary_clinton.jpg"
7740,"E_M_nicolas_cage.jpg","E_M_robert_de_niro.jpg","TRUE","pictures/stimuli/E","pictures/stimuli/E","M","M","1","57c975a8648ff40001666439","04/25/2022, 19:51:33",-1.38703331028688,"34","Female","right",1,1,0,0,FALSE,"E_M_nicolas_cage.jpg E_M_robert_de_niro.jpg"
5253,"E_F_Judi_Dench.jpg","E_F_Kate_Winslet.jpg","TRUE","pictures/stimuli/E","pictures/stimuli/E","F","F","1","57c975a8648ff40001666439","04/25/2022, 19:51:33",-1.38703331028688,"34","Female","right",1,1,0,0,FALSE,"E_F_Judi_Dench.jpg E_F_Kate_Winslet.jpg"
2990,"E_F_sandra_bullock.jpg","P_M_boris_johnson.jpg","FALSE","pictures/stimuli/E","pictures/stimuli/P","F","M","6","57c975a8648ff40001666439","04/25/2022, 19:51:33",0.970178934386709,"34","Female","right",1,1,0,0,FALSE,"E_F_sandra_bullock.jpg P_M_boris_johnson.jpg"
4617,"E_M_michael_caine.jpg","P_M_boris_johnson.jpg","FALSE","pictures/stimuli/E","pictures/stimuli/P","M","M","5","57c975a8648ff40001666439","04/25/2022, 19:51:33",0.498736485451991,"34","Female","right",1,1,0,0,FALSE,"E_M_michael_caine.jpg P_M_boris_johnson.jpg"
6035,"E_M_Hugh_Grant.jpg","P_M_boris_johnson.jpg","FALSE","pictures/stimuli/E","pictures/stimuli/P","M","M","4","57c975a8648ff40001666439","04/25/2022, 19:51:33",0.0272940365172731,"34","Female","right",1,1,0,0,FALSE,"E_M_Hugh_Grant.jpg P_M_boris_johnson.jpg"
3664,"E_F_sandra_bullock.jpg","E_M_michael_caine.jpg","TRUE","pictures/stimuli/E","pictures/stimuli/E","F","M","2","57c975a8648ff40001666439","04/25/2022, 19:51:33",-0.915590861352163,"34","Female","right",1,1,0,0,FALSE,"E_F_sandra_bullock.jpg E_M_michael_caine.jpg"
4887,"E_F_Judi_Dench.jpg","P_M_george_Wbush.jpg","FALSE","pictures/stimuli/E","pictures/stimuli/P","F","M","6","57c975a8648ff40001666439","04/25/2022, 19:51:33",0.970178934386709,"34","Female","right",1,1,0,0,FALSE,"E_F_Judi_Dench.jpg P_M_george_Wbush.jpg"
7048,"P_F_tehresy_may.jpg","P_M_bill_clinton.jpg","TRUE","pictures/stimuli/P","pictures/stimuli/P","F","M","5","57c975a8648ff40001666439","04/25/2022, 19:51:33",0.498736485451991,"34","Female","right",1,1,0,0,FALSE,"P_F_tehresy_may.jpg P_M_bill_clinton.jpg"
3790,"P_F_hillary_clinton.jpg","P_F_tehresy_may.jpg","TRUE","pictures/stimuli/P","pictures/stimuli/P","F","F","2","57c975a8648ff40001666439","04/25/2022, 19:51:33",-0.915590861352163,"34","Female","right",1,1,0,0,FALSE,"P_F_hillary_clinton.jpg P_F_tehresy_may.jpg"
3558,"E_F_keira_knightley.jpg","P_M_Tony_Blair.jpg","FALSE","pictures/stimuli/E","pictures/stimuli/P","F","M","6","57c975a8648ff40001666439","04/25/2022, 19:51:33",0.970178934386709,"34","Female","right",1,1,0,0,FALSE,"E_F_keira_knightley.jpg P_M_Tony_Blair.jpg"
4918,"P_M_bill_clinton.jpg","P_M_donald_trump.jpg","TRUE","pictures/stimuli/P","pictures/stimuli/P","M","M","3","57c975a8648ff40001666439","04/25/2022, 19:51:33",-0.444148412417445,"34","Female","right",1,1,0,0,FALSE,"P_M_bill_clinton.jpg P_M_donald_trump.jpg"
5989,"E_M_robert_de_niro.jpg","E_M_tom_hankes.jpg","TRUE","pictures/stimuli/E","pictures/stimuli/E","M","M","1","57c975a8648ff40001666439","04/25/2022, 19:51:33",-1.38703331028688,"34","Female","right",1,1,0,0,FALSE,"E_M_robert_de_niro.jpg E_M_tom_hankes.jpg"
4339,"P_M_bill_clinton.jpg","P_M_george_Wbush.jpg","TRUE","pictures/stimuli/P","pictures/stimuli/P","M","M","1","57c975a8648ff40001666439","04/25/2022, 19:51:33",-1.38703331028688,"34","Female","right",1,1,0,0,FALSE,"P_M_bill_clinton.jpg P_M_george_Wbush.jpg"
3357,"E_F_jennifer_aniston.jpg","P_M_Tony_Blair.jpg","FALSE","pictures/stimuli/E","pictures/stimuli/P","F","M","6","57c975a8648ff40001666439","04/25/2022, 19:51:33",0.970178934386709,"34","Female","right",1,1,0,0,FALSE,"E_F_jennifer_aniston.jpg P_M_Tony_Blair.jpg"
3347,"E_F_Kate_Winslet.jpg","E_M_Hugh_Grant.jpg","TRUE","pictures/stimuli/E","pictures/stimuli/E","F","M","2","57c975a8648ff40001666439","04/25/2022, 19:51:33",-0.915590861352163,"34","Female","right",1,1,0,0,FALSE,"E_F_Kate_Winslet.jpg E_M_Hugh_Grant.jpg"
4282,"P_M_boris_johnson.jpg","P_M_david_cameron.jpg","TRUE","pictures/stimuli/P","pictures/stimuli/P","M","M","1","57c975a8648ff40001666439","04/25/2022, 19:51:33",-1.38703331028688,"34","Female","right",1,1,0,0,FALSE,"P_M_boris_johnson.jpg P_M_david_cameron.jpg"
4532,"E_F_jennifer_aniston.jpg","P_F_nicola_sturgeon.jpg","FALSE","pictures/stimuli/E","pictures/stimuli/P","F","F","6","57c975a8648ff40001666439","04/25/2022, 19:51:33",0.970178934386709,"34","Female","right",1,1,0,0,FALSE,"E_F_jennifer_aniston.jpg P_F_nicola_sturgeon.jpg"
3635,"P_M_george_Wbush.jpg","P_M_Tony_Blair.jpg","TRUE","pictures/stimuli/P","pictures/stimuli/P","M","M","3","57c975a8648ff40001666439","04/25/2022, 19:51:33",-0.444148412417445,"34","Female","right",1,1,0,0,FALSE,"P_M_george_Wbush.jpg P_M_Tony_Blair.jpg"
2873,"E_F_sandra_bullock.jpg","P_F_nicola_sturgeon.jpg","FALSE","pictures/stimuli/E","pictures/stimuli/P","F","F","6","57c975a8648ff40001666439","04/25/2022, 19:51:33",0.970178934386709,"34","Female","right",1,1,0,0,FALSE,"E_F_sandra_bullock.jpg P_F_nicola_sturgeon.jpg"
3356,"E_F_jennifer_aniston.jpg","E_M_tom_hankes.jpg","TRUE","pictures/stimuli/E","pictures/stimuli/E","F","M","2","57c975a8648ff40001666439","04/25/2022, 19:51:33",-0.915590861352163,"34","Female","right",1,1,0,0,FALSE,"E_F_jennifer_aniston.jpg E_M_tom_hankes.jpg"
3829,"E_F_Judi_Dench.jpg","E_M_nicolas_cage.jpg","TRUE","pictures/stimuli/E","pictures/stimuli/E","F","M","5","57c975a8648ff40001666439","04/25/2022, 19:51:33",0.498736485451991,"34","Female","right",1,1,0,0,FALSE,"E_F_Judi_Dench.jpg E_M_nicolas_cage.jpg"
8185,"E_F_angelina_jolie.jpg","E_M_michael_caine.jpg","TRUE","pictures/stimuli/E","pictures/stimuli/E","F","M","2","57c975a8648ff40001666439","04/25/2022, 19:51:33",-0.915590861352163,"34","Female","right",1,1,0,0,FALSE,"E_F_angelina_jolie.jpg E_M_michael_caine.jpg"
6605,"E_F_jennifer_aniston.jpg","E_F_keira_knightley.jpg","TRUE","pictures/stimuli/E","pictures/stimuli/E","F","F","1","57c975a8648ff40001666439","04/25/2022, 19:51:33",-1.38703331028688,"34","Female","right",1,1,0,0,FALSE,"E_F_jennifer_aniston.jpg E_F_keira_knightley.jpg"
7568,"E_F_Judi_Dench.jpg","E_M_tom_hankes.jpg","TRUE","pictures/stimuli/E","pictures/stimuli/E","F","M","4","57c975a8648ff40001666439","04/25/2022, 19:51:33",0.0272940365172731,"34","Female","right",1,1,0,0,FALSE,"E_F_Judi_Dench.jpg E_M_tom_hankes.jpg"
5736,"E_F_Kate_Winslet.jpg","P_M_donald_trump.jpg","FALSE","pictures/stimuli/E","pictures/stimuli/P","F","M","6","57c975a8648ff40001666439","04/25/2022, 19:51:33",0.970178934386709,"34","Female","right",1,1,0,0,FALSE,"E_F_Kate_Winslet.jpg P_M_donald_trump.jpg"
20664,"E_F_Kate_Winslet.jpg","P_M_boris_johnson.jpg","FALSE","pictures/stimuli/E","pictures/stimuli/P","F","M","6","57c975a8648ff40001666439","04/25/2022, 19:51:33",0.970178934386709,"34","Female","right",1,1,0,0,FALSE,"E_F_Kate_Winslet.jpg P_M_boris_johnson.jpg"
6062,"P_F_nicola_sturgeon.jpg","P_M_boris_johnson.jpg","TRUE","pictures/stimuli/P","pictures/stimuli/P","F","M","5","57c975a8648ff40001666439","04/25/2022, 19:51:33",0.498736485451991,"34","Female","right",1,1,0,0,FALSE,"P_F_nicola_sturgeon.jpg P_M_boris_johnson.jpg"
32206,"E_F_Judi_Dench.jpg","P_F_nicola_sturgeon.jpg","FALSE","pictures/stimuli/E","pictures/stimuli/P","F","F","6","57c975a8648ff40001666439","04/25/2022, 19:51:33",0.970178934386709,"34","Female","right",1,1,0,0,TRUE,"E_F_Judi_Dench.jpg P_F_nicola_sturgeon.jpg"
5762,"E_F_Kate_Winslet.jpg","E_M_michael_caine.jpg","TRUE","pictures/stimuli/E","pictures/stimuli/E","F","M","2","57c975a8648ff40001666439","04/25/2022, 19:51:33",-0.915590861352163,"34","Female","right",1,1,0,0,FALSE,"E_F_Kate_Winslet.jpg E_M_michael_caine.jpg"
10998,"E_F_Kate_Winslet.jpg","E_F_sandra_bullock.jpg","TRUE","pictures/stimuli/E","pictures/stimuli/E","F","F","2","57c975a8648ff40001666439","04/25/2022, 19:51:33",-0.915590861352163,"34","Female","right",1,1,0,0,FALSE,"E_F_Kate_Winslet.jpg E_F_sandra_bullock.jpg"
9696,"E_M_Hugh_Grant.jpg","P_M_Tony_Blair.jpg","FALSE","pictures/stimuli/E","pictures/stimuli/P","M","M","2","57c975a8648ff40001666439","04/25/2022, 19:51:33",-0.915590861352163,"34","Female","right",1,1,0,0,FALSE,"E_M_Hugh_Grant.jpg P_M_Tony_Blair.jpg"
6603,"E_M_nicolas_cage.jpg","P_M_david_cameron.jpg","FALSE","pictures/stimuli/E","pictures/stimuli/P","M","M","6","57c975a8648ff40001666439","04/25/2022, 19:51:33",0.970178934386709,"34","Female","right",1,1,0,0,FALSE,"E_M_nicolas_cage.jpg P_M_david_cameron.jpg"
8116,"P_F_hillary_clinton.jpg","P_M_boris_johnson.jpg","TRUE","pictures/stimuli/P","pictures/stimuli/P","F","M","4","57c975a8648ff40001666439","04/25/2022, 19:51:33",0.0272940365172731,"34","Female","right",1,1,0,0,FALSE,"P_F_hillary_clinton.jpg P_M_boris_johnson.jpg"
5878,"E_M_Hugh_Grant.jpg","E_M_nicolas_cage.jpg","TRUE","pictures/stimuli/E","pictures/stimuli/E","M","M","2","57c975a8648ff40001666439","04/25/2022, 19:51:33",-0.915590861352163,"34","Female","right",1,1,0,0,FALSE,"E_M_Hugh_Grant.jpg E_M_nicolas_cage.jpg"
3616,"E_F_angelina_jolie.jpg","E_F_Judi_Dench.jpg","TRUE","pictures/stimuli/E","pictures/stimuli/E","F","F","2","57c975a8648ff40001666439","04/25/2022, 19:51:33",-0.915590861352163,"34","Female","right",1,1,0,0,FALSE,"E_F_angelina_jolie.jpg E_F_Judi_Dench.jpg"
3759,"E_F_jennifer_aniston.jpg","E_F_sandra_bullock.jpg","TRUE","pictures/stimuli/E","pictures/stimuli/E","F","F","1","57c975a8648ff40001666439","04/25/2022, 19:51:33",-1.38703331028688,"34","Female","right",1,1,0,0,FALSE,"E_F_jennifer_aniston.jpg E_F_sandra_bullock.jpg"
5235,"E_M_michael_caine.jpg","P_M_donald_trump.jpg","FALSE","pictures/stimuli/E","pictures/stimuli/P","M","M","6","57c975a8648ff40001666439","04/25/2022, 19:51:33",0.970178934386709,"34","Female","right",1,1,0,0,FALSE,"E_M_michael_caine.jpg P_M_donald_trump.jpg"
11545,"E_M_tom_hankes.jpg","P_F_nicola_sturgeon.jpg","FALSE","pictures/stimuli/E","pictures/stimuli/P","M","F","6","57c975a8648ff40001666439","04/25/2022, 19:51:33",0.970178934386709,"34","Female","right",1,1,0,0,FALSE,"E_M_tom_hankes.jpg P_F_nicola_sturgeon.jpg"
5658,"E_F_Kate_Winslet.jpg","P_F_tehresy_may.jpg","FALSE","pictures/stimuli/E","pictures/stimuli/P","F","F","5","57c975a8648ff40001666439","04/25/2022, 19:51:33",0.498736485451991,"34","Female","right",1,1,0,0,FALSE,"E_F_Kate_Winslet.jpg P_F_tehresy_may.jpg"
10552,"E_F_Judi_Dench.jpg","P_F_hillary_clinton.jpg","FALSE","pictures/stimuli/E","pictures/stimuli/P","F","F","6","57c975a8648ff40001666439","04/25/2022, 19:51:33",0.970178934386709,"34","Female","right",1,1,0,0,FALSE,"E_F_Judi_Dench.jpg P_F_hillary_clinton.jpg"
18385,"P_F_nicola_sturgeon.jpg","P_M_bill_clinton.jpg","TRUE","pictures/stimuli/P","pictures/stimuli/P","F","M","3","57c975a8648ff40001666439","04/25/2022, 19:51:33",-0.444148412417445,"34","Female","right",1,1,0,0,FALSE,"P_F_nicola_sturgeon.jpg P_M_bill_clinton.jpg"
6110,"E_F_jennifer_aniston.jpg","E_M_robert_de_niro.jpg","TRUE","pictures/stimuli/E","pictures/stimuli/E","F","M","2","57c975a8648ff40001666439","04/25/2022, 19:51:33",-0.915590861352163,"34","Female","right",1,1,0,0,FALSE,"E_F_jennifer_aniston.jpg E_M_robert_de_niro.jpg"
4098,"E_F_keira_knightley.jpg","P_M_donald_trump.jpg","FALSE","pictures/stimuli/E","pictures/stimuli/P","F","M","6","57c975a8648ff40001666439","04/25/2022, 19:51:33",0.970178934386709,"34","Female","right",1,1,0,0,FALSE,"E_F_keira_knightley.jpg P_M_donald_trump.jpg"
2930,"E_F_angelina_jolie.jpg","E_M_tom_hankes.jpg","TRUE","pictures/stimuli/E","pictures/stimuli/E","F","M","1","57c975a8648ff40001666439","04/25/2022, 19:51:33",-1.38703331028688,"34","Female","right",1,1,0,0,FALSE,"E_F_angelina_jolie.jpg E_M_tom_hankes.jpg"
18078,"E_M_michael_caine.jpg","P_M_bill_clinton.jpg","FALSE","pictures/stimuli/E","pictures/stimuli/P","M","M","6","57c975a8648ff40001666439","04/25/2022, 19:51:33",0.970178934386709,"34","Female","right",1,1,0,0,FALSE,"E_M_michael_caine.jpg P_M_bill_clinton.jpg"
5253,"E_F_Judi_Dench.jpg","P_M_boris_johnson.jpg","FALSE","pictures/stimuli/E","pictures/stimuli/P","F","M","6","57c975a8648ff40001666439","04/25/2022, 19:51:33",0.970178934386709,"34","Female","right",1,1,0,0,FALSE,"E_F_Judi_Dench.jpg P_M_boris_johnson.jpg"
3441,"E_F_sandra_bullock.jpg","E_M_robert_de_niro.jpg","TRUE","pictures/stimuli/E","pictures/stimuli/E","F","M","1","57c975a8648ff40001666439","04/25/2022, 19:51:33",-1.38703331028688,"34","Female","right",1,1,0,0,FALSE,"E_F_sandra_bullock.jpg E_M_robert_de_niro.jpg"
3401,"E_F_sandra_bullock.jpg","P_M_Tony_Blair.jpg","FALSE","pictures/stimuli/E","pictures/stimuli/P","F","M","6","57c975a8648ff40001666439","04/25/2022, 19:51:33",0.970178934386709,"34","Female","right",1,1,0,0,FALSE,"E_F_sandra_bullock.jpg P_M_Tony_Blair.jpg"
4018,"E_F_angelina_jolie.jpg","P_M_george_Wbush.jpg","FALSE","pictures/stimuli/E","pictures/stimuli/P","F","M","6","57c975a8648ff40001666439","04/25/2022, 19:51:33",0.970178934386709,"34","Female","right",1,1,0,0,FALSE,"E_F_angelina_jolie.jpg P_M_george_Wbush.jpg"
3856,"E_F_keira_knightley.jpg","E_M_robert_de_niro.jpg","TRUE","pictures/stimuli/E","pictures/stimuli/E","F","M","2","57c975a8648ff40001666439","04/25/2022, 19:51:33",-0.915590861352163,"34","Female","right",1,1,0,0,FALSE,"E_F_keira_knightley.jpg E_M_robert_de_niro.jpg"
3857,"E_M_tom_hankes.jpg","P_F_tehresy_may.jpg","FALSE","pictures/stimuli/E","pictures/stimuli/P","M","F","6","57c975a8648ff40001666439","04/25/2022, 19:51:33",0.970178934386709,"34","Female","right",1,1,0,0,FALSE,"E_M_tom_hankes.jpg P_F_tehresy_may.jpg"
4925,"E_F_Kate_Winslet.jpg","P_F_hillary_clinton.jpg","FALSE","pictures/stimuli/E","pictures/stimuli/P","F","F","6","57c975a8648ff40001666439","04/25/2022, 19:51:33",0.970178934386709,"34","Female","right",1,1,0,0,FALSE,"E_F_Kate_Winslet.jpg P_F_hillary_clinton.jpg"
4454,"E_F_Judi_Dench.jpg","P_F_tehresy_may.jpg","FALSE","pictures/stimuli/E","pictures/stimuli/P","F","F","4","57c975a8648ff40001666439","04/25/2022, 19:51:33",0.0272940365172731,"34","Female","right",1,1,0,0,FALSE,"E_F_Judi_Dench.jpg P_F_tehresy_may.jpg"
5822,"E_M_tom_hankes.jpg","P_F_hillary_clinton.jpg","FALSE","pictures/stimuli/E","pictures/stimuli/P","M","F","5","57c975a8648ff40001666439","04/25/2022, 19:51:33",0.498736485451991,"34","Female","right",1,1,0,0,FALSE,"E_M_tom_hankes.jpg P_F_hillary_clinton.jpg"
4406,"E_F_Judi_Dench.jpg","P_M_Tony_Blair.jpg","FALSE","pictures/stimuli/E","pictures/stimuli/P","F","M","5","57c975a8648ff40001666439","04/25/2022, 19:51:33",0.498736485451991,"34","Female","right",1,1,0,0,FALSE,"E_F_Judi_Dench.jpg P_M_Tony_Blair.jpg"
3221,"P_F_nicola_sturgeon.jpg","P_M_Tony_Blair.jpg","TRUE","pictures/stimuli/P","pictures/stimuli/P","F","M","2","57c975a8648ff40001666439","04/25/2022, 19:51:33",-0.915590861352163,"34","Female","right",1,1,0,0,FALSE,"P_F_nicola_sturgeon.jpg P_M_Tony_Blair.jpg"
4444,"E_M_nicolas_cage.jpg","P_M_donald_trump.jpg","FALSE","pictures/stimuli/E","pictures/stimuli/P","M","M","6","57c975a8648ff40001666439","04/25/2022, 19:51:33",0.970178934386709,"34","Female","right",1,1,0,0,FALSE,"E_M_nicolas_cage.jpg P_M_donald_trump.jpg"
3617,"E_M_robert_de_niro.jpg","P_M_bill_clinton.jpg","FALSE","pictures/stimuli/E","pictures/stimuli/P","M","M","6","57c975a8648ff40001666439","04/25/2022, 19:51:33",0.970178934386709,"34","Female","right",1,1,0,0,FALSE,"E_M_robert_de_niro.jpg P_M_bill_clinton.jpg"
3116,"E_M_michael_caine.jpg","P_F_hillary_clinton.jpg","FALSE","pictures/stimuli/E","pictures/stimuli/P","M","F","6","57c975a8648ff40001666439","04/25/2022, 19:51:33",0.970178934386709,"34","Female","right",1,1,0,0,FALSE,"E_M_michael_caine.jpg P_F_hillary_clinton.jpg"
11549,"E_M_tom_hankes.jpg","P_M_david_cameron.jpg","FALSE","pictures/stimuli/E","pictures/stimuli/P","M","M","6","57c975a8648ff40001666439","04/25/2022, 19:51:33",0.970178934386709,"34","Female","right",1,1,0,0,FALSE,"E_M_tom_hankes.jpg P_M_david_cameron.jpg"
8551,"E_F_angelina_jolie.jpg","E_F_keira_knightley.jpg","TRUE","pictures/stimuli/E","pictures/stimuli/E","F","F","2","57c975a8648ff40001666439","04/25/2022, 19:51:33",-0.915590861352163,"34","Female","right",1,1,0,0,FALSE,"E_F_angelina_jolie.jpg E_F_keira_knightley.jpg"
26465,"E_F_Judi_Dench.jpg","P_M_donald_trump.jpg","FALSE","pictures/stimuli/E","pictures/stimuli/P","F","M","6","57c975a8648ff40001666439","04/25/2022, 19:51:33",0.970178934386709,"34","Female","right",1,1,0,0,FALSE,"E_F_Judi_Dench.jpg P_M_donald_trump.jpg"
7373,"E_M_robert_de_niro.jpg","P_F_tehresy_may.jpg","FALSE","pictures/stimuli/E","pictures/stimuli/P","M","F","6","57c975a8648ff40001666439","04/25/2022, 19:51:33",0.970178934386709,"34","Female","right",1,1,0,0,FALSE,"E_M_robert_de_niro.jpg P_F_tehresy_may.jpg"
5938,"E_M_nicolas_cage.jpg","P_M_boris_johnson.jpg","FALSE","pictures/stimuli/E","pictures/stimuli/P","M","M","6","57c975a8648ff40001666439","04/25/2022, 19:51:33",0.970178934386709,"34","Female","right",1,1,0,0,FALSE,"E_M_nicolas_cage.jpg P_M_boris_johnson.jpg"
3394,"E_M_tom_hankes.jpg","P_M_bill_clinton.jpg","FALSE","pictures/stimuli/E","pictures/stimuli/P","M","M","5","57c975a8648ff40001666439","04/25/2022, 19:51:33",0.498736485451991,"34","Female","right",1,1,0,0,FALSE,"E_M_tom_hankes.jpg P_M_bill_clinton.jpg"
7798,"P_F_nicola_sturgeon.jpg","P_F_tehresy_may.jpg","TRUE","pictures/stimuli/P","pictures/stimuli/P","F","F","1","57c975a8648ff40001666439","04/25/2022, 19:51:33",-1.38703331028688,"34","Female","right",1,1,0,0,FALSE,"P_F_nicola_sturgeon.jpg P_F_tehresy_may.jpg"
4521,"E_M_Hugh_Grant.jpg","P_M_david_cameron.jpg","FALSE","pictures/stimuli/E","pictures/stimuli/P","M","M","3","57c975a8648ff40001666439","04/25/2022, 19:51:33",-0.444148412417445,"34","Female","right",1,1,0,0,FALSE,"E_M_Hugh_Grant.jpg P_M_david_cameron.jpg"
3761,"P_M_bill_clinton.jpg","P_M_Tony_Blair.jpg","TRUE","pictures/stimuli/P","pictures/stimuli/P","M","M","2","57c975a8648ff40001666439","04/25/2022, 19:51:33",-0.915590861352163,"34","Female","right",1,1,0,0,FALSE,"P_M_bill_clinton.jpg P_M_Tony_Blair.jpg"
10748,"E_F_Kate_Winslet.jpg","E_M_nicolas_cage.jpg","TRUE","pictures/stimuli/E","pictures/stimuli/E","F","M","3","57c975a8648ff40001666439","04/25/2022, 19:51:33",-0.444148412417445,"34","Female","right",1,1,0,0,FALSE,"E_F_Kate_Winslet.jpg E_M_nicolas_cage.jpg"
3589,"P_F_nicola_sturgeon.jpg","P_M_donald_trump.jpg","TRUE","pictures/stimuli/P","pictures/stimuli/P","F","M","5","57c975a8648ff40001666439","04/25/2022, 19:51:33",0.498736485451991,"34","Female","right",1,1,0,0,FALSE,"P_F_nicola_sturgeon.jpg P_M_donald_trump.jpg"
18032,"E_F_keira_knightley.jpg","P_F_tehresy_may.jpg","FALSE","pictures/stimuli/E","pictures/stimuli/P","F","F","6","57c975a8648ff40001666439","04/25/2022, 19:51:33",0.970178934386709,"34","Female","right",1,1,0,0,FALSE,"E_F_keira_knightley.jpg P_F_tehresy_may.jpg"
3932,"E_F_Kate_Winslet.jpg","P_M_Tony_Blair.jpg","FALSE","pictures/stimuli/E","pictures/stimuli/P","F","M","5","57c975a8648ff40001666439","04/25/2022, 19:51:33",0.498736485451991,"34","Female","right",1,1,0,0,FALSE,"E_F_Kate_Winslet.jpg P_M_Tony_Blair.jpg"
47677,"E_M_michael_caine.jpg","P_F_tehresy_may.jpg","FALSE","pictures/stimuli/E","pictures/stimuli/P","M","F","5","57c975a8648ff40001666439","04/25/2022, 19:51:33",0.498736485451991,"34","Female","right",1,1,0,0,TRUE,"E_M_michael_caine.jpg P_F_tehresy_may.jpg"
3895,"E_M_michael_caine.jpg","E_M_nicolas_cage.jpg","TRUE","pictures/stimuli/E","pictures/stimuli/E","M","M","2","57c975a8648ff40001666439","04/25/2022, 19:51:33",-0.915590861352163,"34","Female","right",1,1,0,0,FALSE,"E_M_michael_caine.jpg E_M_nicolas_cage.jpg"
16702,"E_M_tom_hankes.jpg","P_M_boris_johnson.jpg","FALSE","pictures/stimuli/E","pictures/stimuli/P","M","M","6","57c975a8648ff40001666439","04/25/2022, 19:51:33",0.970178934386709,"34","Female","right",1,1,0,0,FALSE,"E_M_tom_hankes.jpg P_M_boris_johnson.jpg"
3407,"E_M_Hugh_Grant.jpg","E_M_robert_de_niro.jpg","TRUE","pictures/stimuli/E","pictures/stimuli/E","M","M","2","57c975a8648ff40001666439","04/25/2022, 19:51:33",-0.915590861352163,"34","Female","right",1,1,0,0,FALSE,"E_M_Hugh_Grant.jpg E_M_robert_de_niro.jpg"
3681,"E_F_sandra_bullock.jpg","P_M_george_Wbush.jpg","FALSE","pictures/stimuli/E","pictures/stimuli/P","F","M","6","57c975a8648ff40001666439","04/25/2022, 19:51:33",0.970178934386709,"34","Female","right",1,1,0,0,FALSE,"E_F_sandra_bullock.jpg P_M_george_Wbush.jpg"
4394,"P_M_boris_johnson.jpg","P_M_donald_trump.jpg","TRUE","pictures/stimuli/P","pictures/stimuli/P","M","M","2","57c975a8648ff40001666439","04/25/2022, 19:51:33",-0.915590861352163,"34","Female","right",1,1,0,0,FALSE,"P_M_boris_johnson.jpg P_M_donald_trump.jpg"
3951,"P_F_tehresy_may.jpg","P_M_boris_johnson.jpg","TRUE","pictures/stimuli/P","pictures/stimuli/P","F","M","1","57c975a8648ff40001666439","04/25/2022, 19:51:33",-1.38703331028688,"34","Female","right",1,1,0,0,FALSE,"P_F_tehresy_may.jpg P_M_boris_johnson.jpg"
2517,"E_F_keira_knightley.jpg","E_F_sandra_bullock.jpg","TRUE","pictures/stimuli/E","pictures/stimuli/E","F","F","1","57c975a8648ff40001666439","04/25/2022, 19:51:33",-1.38703331028688,"34","Female","right",1,1,0,0,FALSE,"E_F_keira_knightley.jpg E_F_sandra_bullock.jpg"
3644,"E_M_Hugh_Grant.jpg","P_M_donald_trump.jpg","FALSE","pictures/stimuli/E","pictures/stimuli/P","M","M","6","57c975a8648ff40001666439","04/25/2022, 19:51:33",0.970178934386709,"34","Female","right",1,1,0,0,FALSE,"E_M_Hugh_Grant.jpg P_M_donald_trump.jpg"
3499,"P_F_tehresy_may.jpg","P_M_david_cameron.jpg","TRUE","pictures/stimuli/P","pictures/stimuli/P","F","M","1","57c975a8648ff40001666439","04/25/2022, 19:51:33",-1.38703331028688,"34","Female","right",1,1,0,0,FALSE,"P_F_tehresy_may.jpg P_M_david_cameron.jpg"
2843,"E_F_Kate_Winslet.jpg","P_F_nicola_sturgeon.jpg","FALSE","pictures/stimuli/E","pictures/stimuli/P","F","F","6","57c975a8648ff40001666439","04/25/2022, 19:51:33",0.970178934386709,"34","Female","right",1,1,0,0,FALSE,"E_F_Kate_Winslet.jpg P_F_nicola_sturgeon.jpg"
5658,"E_M_Hugh_Grant.jpg","P_M_bill_clinton.jpg","FALSE","pictures/stimuli/E","pictures/stimuli/P","M","M","6","57c975a8648ff40001666439","04/25/2022, 19:51:33",0.970178934386709,"34","Female","right",1,1,0,0,FALSE,"E_M_Hugh_Grant.jpg P_M_bill_clinton.jpg"
6834,"P_F_tehresy_may.jpg","P_M_george_Wbush.jpg","TRUE","pictures/stimuli/P","pictures/stimuli/P","F","M","3","57c975a8648ff40001666439","04/25/2022, 19:51:33",-0.444148412417445,"34","Female","right",1,1,0,0,FALSE,"P_F_tehresy_may.jpg P_M_george_Wbush.jpg"
3326,"E_F_keira_knightley.jpg","P_M_bill_clinton.jpg","FALSE","pictures/stimuli/E","pictures/stimuli/P","F","M","6","57c975a8648ff40001666439","04/25/2022, 19:51:33",0.970178934386709,"34","Female","right",1,1,0,0,FALSE,"E_F_keira_knightley.jpg P_M_bill_clinton.jpg"
2537,"E_F_keira_knightley.jpg","P_M_david_cameron.jpg","FALSE","pictures/stimuli/E","pictures/stimuli/P","F","M","6","57c975a8648ff40001666439","04/25/2022, 19:51:33",0.970178934386709,"34","Female","right",1,1,0,0,FALSE,"E_F_keira_knightley.jpg P_M_david_cameron.jpg"
5427,"P_M_donald_trump.jpg","P_M_george_Wbush.jpg","TRUE","pictures/stimuli/P","pictures/stimuli/P","M","M","3","57c975a8648ff40001666439","04/25/2022, 19:51:33",-0.444148412417445,"34","Female","right",1,1,0,0,FALSE,"P_M_donald_trump.jpg P_M_george_Wbush.jpg"
3877,"E_M_michael_caine.jpg","E_M_tom_hankes.jpg","TRUE","pictures/stimuli/E","pictures/stimuli/E","M","M","2","57c975a8648ff40001666439","04/25/2022, 19:51:33",-0.915590861352163,"34","Female","right",1,1,0,0,FALSE,"E_M_michael_caine.jpg E_M_tom_hankes.jpg"
2970,"E_F_Kate_Winslet.jpg","P_M_david_cameron.jpg","FALSE","pictures/stimuli/E","pictures/stimuli/P","F","M","6","57c975a8648ff40001666439","04/25/2022, 19:51:33",0.970178934386709,"34","Female","right",1,1,0,0,FALSE,"E_F_Kate_Winslet.jpg P_M_david_cameron.jpg"
3722,"E_F_Kate_Winslet.jpg","E_F_keira_knightley.jpg","TRUE","pictures/stimuli/E","pictures/stimuli/E","F","F","1","57c975a8648ff40001666439","04/25/2022, 19:51:33",-1.38703331028688,"34","Female","right",1,1,0,0,FALSE,"E_F_Kate_Winslet.jpg E_F_keira_knightley.jpg"
3814,"E_F_keira_knightley.jpg","P_F_hillary_clinton.jpg","FALSE","pictures/stimuli/E","pictures/stimuli/P","F","F","6","57c975a8648ff40001666439","04/25/2022, 19:51:33",0.970178934386709,"34","Female","right",1,1,0,0,FALSE,"E_F_keira_knightley.jpg P_F_hillary_clinton.jpg"
4213,"E_F_jennifer_aniston.jpg","P_F_tehresy_may.jpg","FALSE","pictures/stimuli/E","pictures/stimuli/P","F","F","6","57c975a8648ff40001666439","04/25/2022, 19:51:33",0.970178934386709,"34","Female","right",1,1,0,0,FALSE,"E_F_jennifer_aniston.jpg P_F_tehresy_may.jpg"
2738,"E_M_robert_de_niro.jpg","P_F_hillary_clinton.jpg","FALSE","pictures/stimuli/E","pictures/stimuli/P","M","F","6","57c975a8648ff40001666439","04/25/2022, 19:51:33",0.970178934386709,"34","Female","right",1,1,0,0,FALSE,"E_M_robert_de_niro.jpg P_F_hillary_clinton.jpg"
3885,"E_M_michael_caine.jpg","P_M_Tony_Blair.jpg","FALSE","pictures/stimuli/E","pictures/stimuli/P","M","M","5","57c975a8648ff40001666439","04/25/2022, 19:51:33",0.498736485451991,"34","Female","right",1,1,0,0,FALSE,"E_M_michael_caine.jpg P_M_Tony_Blair.jpg"
3403,"E_F_sandra_bullock.jpg","P_F_hillary_clinton.jpg","FALSE","pictures/stimuli/E","pictures/stimuli/P","F","F","5","57c975a8648ff40001666439","04/25/2022, 19:51:33",0.498736485451991,"34","Female","right",1,1,0,0,FALSE,"E_F_sandra_bullock.jpg P_F_hillary_clinton.jpg"
3875,"E_F_angelina_jolie.jpg","P_F_hillary_clinton.jpg","FALSE","pictures/stimuli/E","pictures/stimuli/P","F","F","6","57c975a8648ff40001666439","04/25/2022, 19:51:33",0.970178934386709,"34","Female","right",1,1,0,0,FALSE,"E_F_angelina_jolie.jpg P_F_hillary_clinton.jpg"
6149,"P_M_boris_johnson.jpg","P_M_george_Wbush.jpg","TRUE","pictures/stimuli/P","pictures/stimuli/P","M","M","2","57c975a8648ff40001666439","04/25/2022, 19:51:33",-0.915590861352163,"34","Female","right",1,1,0,0,FALSE,"P_M_boris_johnson.jpg P_M_george_Wbush.jpg"
156657,"E_F_jennifer_aniston.jpg","E_M_Hugh_Grant.jpg","TRUE","pictures/stimuli/E","pictures/stimuli/E","F","M","2","57c975a8648ff40001666439","04/25/2022, 19:51:33",-0.915590861352163,"34","Female","right",1,1,0,0,TRUE,"E_F_jennifer_aniston.jpg E_M_Hugh_Grant.jpg"
2919,"E_F_Judi_Dench.jpg","E_M_michael_caine.jpg","TRUE","pictures/stimuli/E","pictures/stimuli/E","F","M","1","57c975a8648ff40001666439","04/25/2022, 19:51:33",-1.38703331028688,"34","Female","right",1,1,0,0,FALSE,"E_F_Judi_Dench.jpg E_M_michael_caine.jpg"
2679,"E_F_sandra_bullock.jpg","P_M_donald_trump.jpg","FALSE","pictures/stimuli/E","pictures/stimuli/P","F","M","6","57c975a8648ff40001666439","04/25/2022, 19:51:33",0.970178934386709,"34","Female","right",1,1,0,0,FALSE,"E_F_sandra_bullock.jpg P_M_donald_trump.jpg"
3565,"E_F_jennifer_aniston.jpg","P_F_hillary_clinton.jpg","FALSE","pictures/stimuli/E","pictures/stimuli/P","F","F","6","57c975a8648ff40001666439","04/25/2022, 19:51:33",0.970178934386709,"34","Female","right",1,1,0,0,FALSE,"E_F_jennifer_aniston.jpg P_F_hillary_clinton.jpg"
6379,"E_M_michael_caine.jpg","P_F_nicola_sturgeon.jpg","FALSE","pictures/stimuli/E","pictures/stimuli/P","M","F","6","57c975a8648ff40001666439","04/25/2022, 19:51:33",0.970178934386709,"34","Female","right",1,1,0,0,FALSE,"E_M_michael_caine.jpg P_F_nicola_sturgeon.jpg"
2901,"E_M_robert_de_niro.jpg","P_M_david_cameron.jpg","FALSE","pictures/stimuli/E","pictures/stimuli/P","M","M","6","57c975a8648ff40001666439","04/25/2022, 19:51:33",0.970178934386709,"34","Female","right",1,1,0,0,FALSE,"E_M_robert_de_niro.jpg P_M_david_cameron.jpg"
3268,"E_F_angelina_jolie.jpg","P_M_donald_trump.jpg","FALSE","pictures/stimuli/E","pictures/stimuli/P","F","M","6","57c975a8648ff40001666439","04/25/2022, 19:51:33",0.970178934386709,"34","Female","right",1,1,0,0,FALSE,"E_F_angelina_jolie.jpg P_M_donald_trump.jpg"
8576,"E_M_nicolas_cage.jpg","P_M_bill_clinton.jpg","FALSE","pictures/stimuli/E","pictures/stimuli/P","M","M","6","57c975a8648ff40001666439","04/25/2022, 19:51:33",0.970178934386709,"34","Female","right",1,1,0,0,FALSE,"E_M_nicolas_cage.jpg P_M_bill_clinton.jpg"
9858,"E_M_Hugh_Grant.jpg","E_M_michael_caine.jpg","TRUE","pictures/stimuli/E","pictures/stimuli/E","M","M","3","57c975a8648ff40001666439","04/25/2022, 19:51:33",-0.444148412417445,"34","Female","right",1,1,0,0,FALSE,"E_M_Hugh_Grant.jpg E_M_michael_caine.jpg"
94685,"E_M_nicolas_cage.jpg","E_M_tom_hankes.jpg","TRUE","pictures/stimuli/E","pictures/stimuli/E","M","M","1","57c975a8648ff40001666439","04/25/2022, 19:51:33",-1.38703331028688,"34","Female","right",1,1,0,0,TRUE,"E_M_nicolas_cage.jpg E_M_tom_hankes.jpg"
9101,"E_F_jennifer_aniston.jpg","E_M_michael_caine.jpg","TRUE","pictures/stimuli/E","pictures/stimuli/E","F","M","3","57c975a8648ff40001666439","04/25/2022, 19:51:33",-0.444148412417445,"34","Female","right",1,1,0,0,FALSE,"E_F_jennifer_aniston.jpg E_M_michael_caine.jpg"
3797,"E_M_nicolas_cage.jpg","P_M_george_Wbush.jpg","FALSE","pictures/stimuli/E","pictures/stimuli/P","M","M","6","57c975a8648ff40001666439","04/25/2022, 19:51:33",0.970178934386709,"34","Female","right",1,1,0,0,FALSE,"E_M_nicolas_cage.jpg P_M_george_Wbush.jpg"
6070,"E_F_Judi_Dench.jpg","E_M_robert_de_niro.jpg","TRUE","pictures/stimuli/E","pictures/stimuli/E","F","M","5","57c975a8648ff40001666439","04/25/2022, 19:51:33",0.498736485451991,"34","Female","right",1,1,0,0,FALSE,"E_F_Judi_Dench.jpg E_M_robert_de_niro.jpg"
3893,"E_F_sandra_bullock.jpg","P_M_bill_clinton.jpg","FALSE","pictures/stimuli/E","pictures/stimuli/P","F","M","5","57c975a8648ff40001666439","04/25/2022, 19:51:33",0.498736485451991,"34","Female","right",1,1,0,0,FALSE,"E_F_sandra_bullock.jpg P_M_bill_clinton.jpg"
3691,"E_F_angelina_jolie.jpg","E_M_robert_de_niro.jpg","TRUE","pictures/stimuli/E","pictures/stimuli/E","F","M","1","57c975a8648ff40001666439","04/25/2022, 19:51:33",-1.38703331028688,"34","Female","right",1,1,0,0,FALSE,"E_F_angelina_jolie.jpg E_M_robert_de_niro.jpg"
2495,"P_M_david_cameron.jpg","P_M_Tony_Blair.jpg","TRUE","pictures/stimuli/P","pictures/stimuli/P","M","M","1","57c975a8648ff40001666439","04/25/2022, 19:51:33",-1.38703331028688,"34","Female","right",1,1,0,0,FALSE,"P_M_david_cameron.jpg P_M_Tony_Blair.jpg"
4416,"P_F_tehresy_may.jpg","P_M_donald_trump.jpg","TRUE","pictures/stimuli/P","pictures/stimuli/P","F","M","5","57c975a8648ff40001666439","04/25/2022, 19:51:33",0.498736485451991,"34","Female","right",1,1,0,0,FALSE,"P_F_tehresy_may.jpg P_M_donald_trump.jpg"
2977,"E_M_Hugh_Grant.jpg","P_F_hillary_clinton.jpg","FALSE","pictures/stimuli/E","pictures/stimuli/P","M","F","6","57c975a8648ff40001666439","04/25/2022, 19:51:33",0.970178934386709,"34","Female","right",1,1,0,0,FALSE,"E_M_Hugh_Grant.jpg P_F_hillary_clinton.jpg"
3152,"P_M_boris_johnson.jpg","P_M_Tony_Blair.jpg","TRUE","pictures/stimuli/P","pictures/stimuli/P","M","M","1","57c975a8648ff40001666439","04/25/2022, 19:51:33",-1.38703331028688,"34","Female","right",1,1,0,0,FALSE,"P_M_boris_johnson.jpg P_M_Tony_Blair.jpg"
3556,"E_M_Hugh_Grant.jpg","P_F_nicola_sturgeon.jpg","FALSE","pictures/stimuli/E","pictures/stimuli/P","M","F","6","57c975a8648ff40001666439","04/25/2022, 19:51:33",0.970178934386709,"34","Female","right",1,1,0,0,FALSE,"E_M_Hugh_Grant.jpg P_F_nicola_sturgeon.jpg"
3644,"E_F_angelina_jolie.jpg","E_M_nicolas_cage.jpg","TRUE","pictures/stimuli/E","pictures/stimuli/E","F","M","1","57c975a8648ff40001666439","04/25/2022, 19:51:33",-1.38703331028688,"34","Female","right",1,1,0,0,FALSE,"E_F_angelina_jolie.jpg E_M_nicolas_cage.jpg"
3470,"E_F_sandra_bullock.jpg","E_M_nicolas_cage.jpg","TRUE","pictures/stimuli/E","pictures/stimuli/E","F","M","1","57c975a8648ff40001666439","04/25/2022, 19:51:33",-1.38703331028688,"34","Female","right",1,1,0,0,FALSE,"E_F_sandra_bullock.jpg E_M_nicolas_cage.jpg"
3132,"E_M_robert_de_niro.jpg","P_F_nicola_sturgeon.jpg","FALSE","pictures/stimuli/E","pictures/stimuli/P","M","F","6","57c975a8648ff40001666439","04/25/2022, 19:51:33",0.970178934386709,"34","Female","right",1,1,0,0,FALSE,"E_M_robert_de_niro.jpg P_F_nicola_sturgeon.jpg"
6880,"E_F_keira_knightley.jpg","E_M_nicolas_cage.jpg","TRUE","pictures/stimuli/E","pictures/stimuli/E","F","M","2","57c975a8648ff40001666439","04/25/2022, 19:51:33",-0.915590861352163,"34","Female","right",1,1,0,0,FALSE,"E_F_keira_knightley.jpg E_M_nicolas_cage.jpg"
6813,"E_M_tom_hankes.jpg","P_M_Tony_Blair.jpg","FALSE","pictures/stimuli/E","pictures/stimuli/P","M","M","6","57c975a8648ff40001666439","04/25/2022, 19:51:33",0.970178934386709,"34","Female","right",1,1,0,0,FALSE,"E_M_tom_hankes.jpg P_M_Tony_Blair.jpg"
3691,"E_F_keira_knightley.jpg","P_F_nicola_sturgeon.jpg","FALSE","pictures/stimuli/E","pictures/stimuli/P","F","F","6","57c975a8648ff40001666439","04/25/2022, 19:51:33",0.970178934386709,"34","Female","right",1,1,0,0,FALSE,"E_F_keira_knightley.jpg P_F_nicola_sturgeon.jpg"
3233,"E_F_keira_knightley.jpg","E_M_Hugh_Grant.jpg","TRUE","pictures/stimuli/E","pictures/stimuli/E","F","M","1","57c975a8648ff40001666439","04/25/2022, 19:51:33",-1.38703331028688,"34","Female","right",1,1,0,0,FALSE,"E_F_keira_knightley.jpg E_M_Hugh_Grant.jpg"
4430,"E_F_jennifer_aniston.jpg","P_M_george_Wbush.jpg","FALSE","pictures/stimuli/E","pictures/stimuli/P","F","M","6","57c975a8648ff40001666439","04/25/2022, 19:51:33",0.970178934386709,"34","Female","right",1,1,0,0,FALSE,"E_F_jennifer_aniston.jpg P_M_george_Wbush.jpg"
4153,"E_F_Kate_Winslet.jpg","P_M_george_Wbush.jpg","FALSE","pictures/stimuli/E","pictures/stimuli/P","F","M","6","57c975a8648ff40001666439","04/25/2022, 19:51:33",0.970178934386709,"34","Female","right",1,1,0,0,FALSE,"E_F_Kate_Winslet.jpg P_M_george_Wbush.jpg"
3537,"P_M_donald_trump.jpg","P_M_Tony_Blair.jpg","TRUE","pictures/stimuli/P","pictures/stimuli/P","M","M","4","57c975a8648ff40001666439","04/25/2022, 19:51:33",0.0272940365172731,"34","Female","right",1,1,0,0,FALSE,"P_M_donald_trump.jpg P_M_Tony_Blair.jpg"
5743,"P_M_david_cameron.jpg","P_M_george_Wbush.jpg","TRUE","pictures/stimuli/P","pictures/stimuli/P","M","M","2","57c975a8648ff40001666439","04/25/2022, 19:51:33",-0.915590861352163,"34","Female","right",1,1,0,0,FALSE,"P_M_david_cameron.jpg P_M_george_Wbush.jpg"
8125,"E_M_nicolas_cage.jpg","P_F_tehresy_may.jpg","FALSE","pictures/stimuli/E","pictures/stimuli/P","M","F","6","57c975a8648ff40001666439","04/25/2022, 19:51:33",0.970178934386709,"34","Female","right",1,1,0,0,FALSE,"E_M_nicolas_cage.jpg P_F_tehresy_may.jpg"
5126,"E_F_sandra_bullock.jpg","P_F_tehresy_may.jpg","FALSE","pictures/stimuli/E","pictures/stimuli/P","F","F","6","57c975a8648ff40001666439","04/25/2022, 19:51:33",0.970178934386709,"34","Female","right",1,1,0,0,FALSE,"E_F_sandra_bullock.jpg P_F_tehresy_may.jpg"
3103,"E_F_angelina_jolie.jpg","P_M_david_cameron.jpg","FALSE","pictures/stimuli/E","pictures/stimuli/P","F","M","6","57c975a8648ff40001666439","04/25/2022, 19:51:33",0.970178934386709,"34","Female","right",1,1,0,0,FALSE,"E_F_angelina_jolie.jpg P_M_david_cameron.jpg"
2419,"E_F_jennifer_aniston.jpg","E_M_nicolas_cage.jpg","TRUE","pictures/stimuli/E","pictures/stimuli/E","F","M","1","57c975a8648ff40001666439","04/25/2022, 19:51:33",-1.38703331028688,"34","Female","right",1,1,0,0,FALSE,"E_F_jennifer_aniston.jpg E_M_nicolas_cage.jpg"
3007,"E_F_Kate_Winslet.jpg","E_M_robert_de_niro.jpg","TRUE","pictures/stimuli/E","pictures/stimuli/E","F","M","1","57c975a8648ff40001666439","04/25/2022, 19:51:33",-1.38703331028688,"34","Female","right",1,1,0,0,FALSE,"E_F_Kate_Winslet.jpg E_M_robert_de_niro.jpg"
3865,"P_F_hillary_clinton.jpg","P_M_david_cameron.jpg","TRUE","pictures/stimuli/P","pictures/stimuli/P","F","M","2","57c975a8648ff40001666439","04/25/2022, 19:51:33",-0.915590861352163,"34","Female","right",1,1,0,0,FALSE,"P_F_hillary_clinton.jpg P_M_david_cameron.jpg"
5340,"E_M_Hugh_Grant.jpg","E_M_tom_hankes.jpg","TRUE","pictures/stimuli/E","pictures/stimuli/E","M","M","1","57c975a8648ff40001666439","04/25/2022, 19:51:33",-1.38703331028688,"34","Female","right",1,1,0,0,FALSE,"E_M_Hugh_Grant.jpg E_M_tom_hankes.jpg"
2527,"E_F_Judi_Dench.jpg","E_F_keira_knightley.jpg","TRUE","pictures/stimuli/E","pictures/stimuli/E","F","F","1","57c975a8648ff40001666439","04/25/2022, 19:51:33",-1.38703331028688,"34","Female","right",1,1,0,0,FALSE,"E_F_Judi_Dench.jpg E_F_keira_knightley.jpg"
2584,"E_F_Judi_Dench.jpg","E_M_Hugh_Grant.jpg","TRUE","pictures/stimuli/E","pictures/stimuli/E","F","M","1","57c975a8648ff40001666439","04/25/2022, 19:51:33",-1.38703331028688,"34","Female","right",1,1,0,0,FALSE,"E_F_Judi_Dench.jpg E_M_Hugh_Grant.jpg"
4039,"E_F_keira_knightley.jpg","E_M_michael_caine.jpg","TRUE","pictures/stimuli/E","pictures/stimuli/E","F","M","1","57c975a8648ff40001666439","04/25/2022, 19:51:33",-1.38703331028688,"34","Female","right",1,1,0,0,FALSE,"E_F_keira_knightley.jpg E_M_michael_caine.jpg"
2546,"P_F_tehresy_may.jpg","P_M_Tony_Blair.jpg","TRUE","pictures/stimuli/P","pictures/stimuli/P","F","M","1","57c975a8648ff40001666439","04/25/2022, 19:51:33",-1.38703331028688,"34","Female","right",1,1,0,0,FALSE,"P_F_tehresy_may.jpg P_M_Tony_Blair.jpg"
4117,"E_F_keira_knightley.jpg","P_M_george_Wbush.jpg","FALSE","pictures/stimuli/E","pictures/stimuli/P","F","M","6","57c975a8648ff40001666439","04/25/2022, 19:51:33",0.970178934386709,"34","Female","right",1,1,0,0,FALSE,"E_F_keira_knightley.jpg P_M_george_Wbush.jpg"
3866,"E_F_Kate_Winslet.jpg","E_M_tom_hankes.jpg","TRUE","pictures/stimuli/E","pictures/stimuli/E","F","M","2","57c975a8648ff40001666439","04/25/2022, 19:51:33",-0.915590861352163,"34","Female","right",1,1,0,0,FALSE,"E_F_Kate_Winslet.jpg E_M_tom_hankes.jpg"
4723,"E_F_angelina_jolie.jpg","E_M_Hugh_Grant.jpg","TRUE","pictures/stimuli/E","pictures/stimuli/E","F","M","3","57c975a8648ff40001666439","04/25/2022, 19:51:33",-0.444148412417445,"34","Female","right",1,1,0,0,FALSE,"E_F_angelina_jolie.jpg E_M_Hugh_Grant.jpg"
4106,"E_F_angelina_jolie.jpg","E_F_jennifer_aniston.jpg","TRUE","pictures/stimuli/E","pictures/stimuli/E","F","F","1","57c975a8648ff40001666439","04/25/2022, 19:51:33",-1.38703331028688,"34","Female","right",1,1,0,0,FALSE,"E_F_angelina_jolie.jpg E_F_jennifer_aniston.jpg"
3218,"E_M_Hugh_Grant.jpg","P_M_george_Wbush.jpg","FALSE","pictures/stimuli/E","pictures/stimuli/P","M","M","6","57c975a8648ff40001666439","04/25/2022, 19:51:33",0.970178934386709,"34","Female","right",1,1,0,0,FALSE,"E_M_Hugh_Grant.jpg P_M_george_Wbush.jpg"
3276,"E_F_keira_knightley.jpg","P_M_boris_johnson.jpg","FALSE","pictures/stimuli/E","pictures/stimuli/P","F","M","6","57c975a8648ff40001666439","04/25/2022, 19:51:33",0.970178934386709,"34","Female","right",1,1,0,0,FALSE,"E_F_keira_knightley.jpg P_M_boris_johnson.jpg"
2717,"E_F_Judi_Dench.jpg","P_M_bill_clinton.jpg","FALSE","pictures/stimuli/E","pictures/stimuli/P","F","M","6","57c975a8648ff40001666439","04/25/2022, 19:51:33",0.970178934386709,"34","Female","right",1,1,0,0,FALSE,"E_F_Judi_Dench.jpg P_M_bill_clinton.jpg"
4510,"E_F_sandra_bullock.jpg","P_M_david_cameron.jpg","FALSE","pictures/stimuli/E","pictures/stimuli/P","F","M","6","57c975a8648ff40001666439","04/25/2022, 19:51:33",0.970178934386709,"34","Female","right",1,1,0,0,FALSE,"E_F_sandra_bullock.jpg P_M_david_cameron.jpg"
4980,"E_M_robert_de_niro.jpg","P_M_boris_johnson.jpg","FALSE","pictures/stimuli/E","pictures/stimuli/P","M","M","6","57c975a8648ff40001666439","04/25/2022, 19:51:33",0.970178934386709,"34","Female","right",1,1,0,0,FALSE,"E_M_robert_de_niro.jpg P_M_boris_johnson.jpg"
5385,"E_M_tom_hankes.jpg","P_M_george_Wbush.jpg","FALSE","pictures/stimuli/E","pictures/stimuli/P","M","M","6","57c975a8648ff40001666439","04/25/2022, 19:51:33",0.970178934386709,"34","Female","right",1,1,0,0,FALSE,"E_M_tom_hankes.jpg P_M_george_Wbush.jpg"
3247,"P_F_hillary_clinton.jpg","P_M_bill_clinton.jpg","TRUE","pictures/stimuli/P","pictures/stimuli/P","F","M","1","57c975a8648ff40001666439","04/25/2022, 19:51:33",-1.38703331028688,"34","Female","right",1,1,0,0,FALSE,"P_F_hillary_clinton.jpg P_M_bill_clinton.jpg"
3526,"E_F_keira_knightley.jpg","E_M_tom_hankes.jpg","TRUE","pictures/stimuli/E","pictures/stimuli/E","F","M","2","57c975a8648ff40001666439","04/25/2022, 19:51:33",-0.915590861352163,"34","Female","right",1,1,0,0,FALSE,"E_F_keira_knightley.jpg E_M_tom_hankes.jpg"
5126,"E_M_robert_de_niro.jpg","P_M_george_Wbush.jpg","FALSE","pictures/stimuli/E","pictures/stimuli/P","M","M","6","57c975a8648ff40001666439","04/25/2022, 19:51:33",0.970178934386709,"34","Female","right",1,1,0,0,FALSE,"E_M_robert_de_niro.jpg P_M_george_Wbush.jpg"
3073,"E_F_jennifer_aniston.jpg","P_M_boris_johnson.jpg","FALSE","pictures/stimuli/E","pictures/stimuli/P","F","M","6","57c975a8648ff40001666439","04/25/2022, 19:51:33",0.970178934386709,"34","Female","right",1,1,0,0,FALSE,"E_F_jennifer_aniston.jpg P_M_boris_johnson.jpg"
3161,"E_F_angelina_jolie.jpg","P_F_tehresy_may.jpg","FALSE","pictures/stimuli/E","pictures/stimuli/P","F","F","6","57c975a8648ff40001666439","04/25/2022, 19:51:33",0.970178934386709,"34","Female","right",1,1,0,0,FALSE,"E_F_angelina_jolie.jpg P_F_tehresy_may.jpg"
5479,"P_M_david_cameron.jpg","P_M_donald_trump.jpg","TRUE","pictures/stimuli/P","pictures/stimuli/P","M","M","4","57c975a8648ff40001666439","04/25/2022, 19:51:33",0.0272940365172731,"34","Female","right",1,1,0,0,FALSE,"P_M_david_cameron.jpg P_M_donald_trump.jpg"
2546,"E_F_angelina_jolie.jpg","P_M_boris_johnson.jpg","FALSE","pictures/stimuli/E","pictures/stimuli/P","F","M","6","57c975a8648ff40001666439","04/25/2022, 19:51:33",0.970178934386709,"34","Female","right",1,1,0,0,FALSE,"E_F_angelina_jolie.jpg P_M_boris_johnson.jpg"
3221,"E_F_jennifer_aniston.jpg","E_F_Kate_Winslet.jpg","TRUE","pictures/stimuli/E","pictures/stimuli/E","F","F","1","57c975a8648ff40001666439","04/25/2022, 19:51:33",-1.38703331028688,"34","Female","right",1,1,0,0,FALSE,"E_F_jennifer_aniston.jpg E_F_Kate_Winslet.jpg"
4231,"E_F_jennifer_aniston.jpg","P_M_bill_clinton.jpg","FALSE","pictures/stimuli/E","pictures/stimuli/P","F","M","6","57c975a8648ff40001666439","04/25/2022, 19:51:33",0.970178934386709,"34","Female","right",1,1,0,0,FALSE,"E_F_jennifer_aniston.jpg P_M_bill_clinton.jpg"
2883,"E_M_michael_caine.jpg","P_M_david_cameron.jpg","FALSE","pictures/stimuli/E","pictures/stimuli/P","M","M","6","57c975a8648ff40001666439","04/25/2022, 19:51:33",0.970178934386709,"34","Female","right",1,1,0,0,FALSE,"E_M_michael_caine.jpg P_M_david_cameron.jpg"
3017,"E_M_nicolas_cage.jpg","P_M_Tony_Blair.jpg","FALSE","pictures/stimuli/E","pictures/stimuli/P","M","M","6","57c975a8648ff40001666439","04/25/2022, 19:51:33",0.970178934386709,"34","Female","right",1,1,0,0,FALSE,"E_M_nicolas_cage.jpg P_M_Tony_Blair.jpg"
3972,"E_F_angelina_jolie.jpg","E_F_sandra_bullock.jpg","TRUE","pictures/stimuli/E","pictures/stimuli/E","F","F","1","57c975a8648ff40001666439","04/25/2022, 19:51:33",-1.38703331028688,"34","Female","right",1,1,0,0,FALSE,"E_F_angelina_jolie.jpg E_F_sandra_bullock.jpg"
5496,"P_F_nicola_sturgeon.jpg","P_M_george_Wbush.jpg","TRUE","pictures/stimuli/P","pictures/stimuli/P","F","M","3","57c975a8648ff40001666439","04/25/2022, 19:51:33",-0.444148412417445,"34","Female","right",1,1,0,0,FALSE,"P_F_nicola_sturgeon.jpg P_M_george_Wbush.jpg"
2921,"E_F_angelina_jolie.jpg","P_M_Tony_Blair.jpg","FALSE","pictures/stimuli/E","pictures/stimuli/P","F","M","6","57c975a8648ff40001666439","04/25/2022, 19:51:33",0.970178934386709,"34","Female","right",1,1,0,0,FALSE,"E_F_angelina_jolie.jpg P_M_Tony_Blair.jpg"
3047,"E_F_jennifer_aniston.jpg","P_M_donald_trump.jpg","FALSE","pictures/stimuli/E","pictures/stimuli/P","F","M","6","57c975a8648ff40001666439","04/25/2022, 19:51:33",0.970178934386709,"34","Female","right",1,1,0,0,FALSE,"E_F_jennifer_aniston.jpg P_M_donald_trump.jpg"
6312,"E_M_robert_de_niro.jpg","P_M_donald_trump.jpg","FALSE","pictures/stimuli/E","pictures/stimuli/P","M","M","5","57c975a8648ff40001666439","04/25/2022, 19:51:33",0.498736485451991,"34","Female","right",1,1,0,0,FALSE,"E_M_robert_de_niro.jpg P_M_donald_trump.jpg"
2796,"E_M_michael_caine.jpg","P_M_george_Wbush.jpg","FALSE","pictures/stimuli/E","pictures/stimuli/P","M","M","6","57c975a8648ff40001666439","04/25/2022, 19:51:33",0.970178934386709,"34","Female","right",1,1,0,0,FALSE,"E_M_michael_caine.jpg P_M_george_Wbush.jpg"
4164,"E_F_Kate_Winslet.jpg","P_M_bill_clinton.jpg","FALSE","pictures/stimuli/E","pictures/stimuli/P","F","M","6","57c975a8648ff40001666439","04/25/2022, 19:51:33",0.970178934386709,"34","Female","right",1,1,0,0,FALSE,"E_F_Kate_Winslet.jpg P_M_bill_clinton.jpg"
2662,"E_F_jennifer_aniston.jpg","P_M_david_cameron.jpg","FALSE","pictures/stimuli/E","pictures/stimuli/P","F","M","6","57c975a8648ff40001666439","04/25/2022, 19:51:33",0.970178934386709,"34","Female","right",1,1,0,0,FALSE,"E_F_jennifer_aniston.jpg P_M_david_cameron.jpg"
4079,"E_F_Judi_Dench.jpg","E_F_sandra_bullock.jpg","TRUE","pictures/stimuli/E","pictures/stimuli/E","F","F","2","57c975a8648ff40001666439","04/25/2022, 19:51:33",-0.915590861352163,"34","Female","right",1,1,0,0,FALSE,"E_F_Judi_Dench.jpg E_F_sandra_bullock.jpg"
9716,"E_F_sandra_bullock.jpg","E_M_tom_hankes.jpg","TRUE","pictures/stimuli/E","pictures/stimuli/E","F","M","1","57c975a8648ff40001666439","04/25/2022, 19:51:33",-1.38703331028688,"34","Female","right",1,1,0,0,FALSE,"E_F_sandra_bullock.jpg E_M_tom_hankes.jpg"
24284,"E_F_Judi_Dench.jpg","P_M_david_cameron.jpg","FALSE","pictures/stimuli/E","pictures/stimuli/P","F","M","6","57c975a8648ff40001666439","04/25/2022, 19:51:33",0.970178934386709,"34","Female","right",1,1,0,0,FALSE,"E_F_Judi_Dench.jpg P_M_david_cameron.jpg"
4250,"E_F_sandra_bullock.jpg","E_M_Hugh_Grant.jpg","TRUE","pictures/stimuli/E","pictures/stimuli/E","F","M","2","57c975a8648ff40001666439","04/25/2022, 19:51:33",-0.915590861352163,"34","Female","right",1,1,0,0,FALSE,"E_F_sandra_bullock.jpg E_M_Hugh_Grant.jpg"
16362,"P_M_bill_clinton.jpg","P_M_david_cameron.jpg","TRUE","pictures/stimuli/P","pictures/stimuli/P","M","M","1","57c975a8648ff40001666439","04/25/2022, 19:51:33",-1.38703331028688,"34","Female","right",1,1,0,0,FALSE,"P_M_bill_clinton.jpg P_M_david_cameron.jpg"
3711,"P_F_hillary_clinton.jpg","P_F_nicola_sturgeon.jpg","TRUE","pictures/stimuli/P","pictures/stimuli/P","F","F","1","57c975a8648ff40001666439","04/25/2022, 19:51:33",-1.38703331028688,"34","Female","right",1,1,0,0,FALSE,"P_F_hillary_clinton.jpg P_F_nicola_sturgeon.jpg"
2343,"P_F_nicola_sturgeon.jpg","P_M_david_cameron.jpg","TRUE","pictures/stimuli/P","pictures/stimuli/P","F","M","1","57c975a8648ff40001666439","04/25/2022, 19:51:33",-1.38703331028688,"34","Female","right",1,1,0,0,FALSE,"P_F_nicola_sturgeon.jpg P_M_david_cameron.jpg"
3220,"P_F_hillary_clinton.jpg","P_M_donald_trump.jpg","TRUE","pictures/stimuli/P","pictures/stimuli/P","F","M","1","57c975a8648ff40001666439","04/25/2022, 19:51:33",-1.38703331028688,"34","Female","right",1,1,0,0,FALSE,"P_F_hillary_clinton.jpg P_M_donald_trump.jpg"
3017,"P_F_hillary_clinton.jpg","P_M_george_Wbush.jpg","TRUE","pictures/stimuli/P","pictures/stimuli/P","F","M","1","57c975a8648ff40001666439","04/25/2022, 19:51:33",-1.38703331028688,"34","Female","right",1,1,0,0,FALSE,"P_F_hillary_clinton.jpg P_M_george_Wbush.jpg"
2729,"E_M_tom_hankes.jpg","P_M_donald_trump.jpg","FALSE","pictures/stimuli/E","pictures/stimuli/P","M","M","6","57c975a8648ff40001666439","04/25/2022, 19:51:33",0.970178934386709,"34","Female","right",1,1,0,0,FALSE,"E_M_tom_hankes.jpg P_M_donald_trump.jpg"
3923,"E_F_angelina_jolie.jpg","P_F_nicola_sturgeon.jpg","FALSE","pictures/stimuli/E","pictures/stimuli/P","F","F","6","57c975a8648ff40001666439","04/25/2022, 19:51:33",0.970178934386709,"34","Female","right",1,1,0,0,FALSE,"E_F_angelina_jolie.jpg P_F_nicola_sturgeon.jpg"
5599,"E_F_jennifer_aniston.jpg","E_F_Judi_Dench.jpg","TRUE","pictures/stimuli/E","pictures/stimuli/E","F","F","2","57c975a8648ff40001666439","04/25/2022, 19:51:33",-0.915590861352163,"34","Female","right",1,1,0,0,FALSE,"E_F_jennifer_aniston.jpg E_F_Judi_Dench.jpg"
2911,"E_M_robert_de_niro.jpg","P_M_Tony_Blair.jpg","FALSE","pictures/stimuli/E","pictures/stimuli/P","M","M","6","57c975a8648ff40001666439","04/25/2022, 19:51:33",0.970178934386709,"34","Female","right",1,1,0,0,FALSE,"E_M_robert_de_niro.jpg P_M_Tony_Blair.jpg"
4770,"E_F_angelina_jolie.jpg","E_F_Kate_Winslet.jpg","TRUE","pictures/stimuli/E","pictures/stimuli/E","F","F","1","57c975a8648ff40001666439","04/25/2022, 19:51:33",-1.38703331028688,"34","Female","right",1,1,0,0,FALSE,"E_F_angelina_jolie.jpg E_F_Kate_Winslet.jpg"
