"RT","img_1","img_2","isSameProffesion","img1proffesion","img2proffesion","img1Gender","img2Gender","keyPressed","participant","time","pair","normlised_keyPress","age","gender","handedness","isFamiliar_img1","isFamiliar_img2","reject_trial"
5019,"E_F_angelina_jolie.jpg","P_F_tehresy_may.jpg","FALSE","pictures/stimuli/E","pictures/stimuli/P","F","F","6","57acc170c6bab4000172a42e","04/25/2022, 19:39:34","E_F_angelina_jolie.jpg P_F_tehresy_may.jpg",0.987383795554003,"30","Female","right",1,1,FALSE
5572,"E_F_jennifer_aniston.jpg","P_M_bill_clinton.jpg","FALSE","pictures/stimuli/E","pictures/stimuli/P","F","M","6","57acc170c6bab4000172a42e","04/25/2022, 19:39:34","E_F_jennifer_aniston.jpg P_M_bill_clinton.jpg",0.987383795554003,"30","Female","right",1,1,FALSE
3087,"E_M_nicolas_cage.jpg","P_M_boris_johnson.jpg","FALSE","pictures/stimuli/E","pictures/stimuli/P","M","M","4","57acc170c6bab4000172a42e","04/25/2022, 19:39:34","E_M_nicolas_cage.jpg P_M_boris_johnson.jpg",-0.0755222733143287,"30","Female","right",1,1,FALSE
4521,"E_M_Hugh_Grant.jpg","P_F_nicola_sturgeon.jpg","FALSE","pictures/stimuli/E","pictures/stimuli/P","M","F","6","57acc170c6bab4000172a42e","04/25/2022, 19:39:34","E_M_Hugh_Grant.jpg P_F_nicola_sturgeon.jpg",0.987383795554003,"30","Female","right",1,1,FALSE
6757,"E_F_angelina_jolie.jpg","P_F_hillary_clinton.jpg","FALSE","pictures/stimuli/E","pictures/stimuli/P","F","F","3","57acc170c6bab4000172a42e","04/25/2022, 19:39:34","E_F_angelina_jolie.jpg P_F_hillary_clinton.jpg",-0.606975307748495,"30","Female","right",1,1,FALSE
3378,"E_F_Judi_Dench.jpg","E_F_keira_knightley.jpg","TRUE","pictures/stimuli/E","pictures/stimuli/E","F","F","3","57acc170c6bab4000172a42e","04/25/2022, 19:39:34","E_F_Judi_Dench.jpg E_F_keira_knightley.jpg",-0.606975307748495,"30","Female","right",1,1,FALSE
6033,"P_M_david_cameron.jpg","P_M_Tony_Blair.jpg","TRUE","pictures/stimuli/P","pictures/stimuli/P","M","M","1","57acc170c6bab4000172a42e","04/25/2022, 19:39:34","P_M_david_cameron.jpg P_M_Tony_Blair.jpg",-1.66988137661683,"30","Female","right",1,1,FALSE
3066,"E_F_Judi_Dench.jpg","P_F_tehresy_may.jpg","FALSE","pictures/stimuli/E","pictures/stimuli/P","F","F","2","57acc170c6bab4000172a42e","04/25/2022, 19:39:34","E_F_Judi_Dench.jpg P_F_tehresy_may.jpg",-1.13842834218266,"30","Female","right",1,1,FALSE
2921,"E_F_keira_knightley.jpg","E_M_robert_de_niro.jpg","TRUE","pictures/stimuli/E","pictures/stimuli/E","F","M","6","57acc170c6bab4000172a42e","04/25/2022, 19:39:34","E_F_keira_knightley.jpg E_M_robert_de_niro.jpg",0.987383795554003,"30","Female","right",1,1,FALSE
4316,"E_F_jennifer_aniston.jpg","E_F_sandra_bullock.jpg","TRUE","pictures/stimuli/E","pictures/stimuli/E","F","F","1","57acc170c6bab4000172a42e","04/25/2022, 19:39:34","E_F_jennifer_aniston.jpg E_F_sandra_bullock.jpg",-1.66988137661683,"30","Female","right",1,1,FALSE
3009,"E_M_nicolas_cage.jpg","P_F_tehresy_may.jpg","FALSE","pictures/stimuli/E","pictures/stimuli/P","M","F","6","57acc170c6bab4000172a42e","04/25/2022, 19:39:34","E_M_nicolas_cage.jpg P_F_tehresy_may.jpg",0.987383795554003,"30","Female","right",1,1,FALSE
4565,"E_F_Kate_Winslet.jpg","E_M_tom_hankes.jpg","TRUE","pictures/stimuli/E","pictures/stimuli/E","F","M","6","57acc170c6bab4000172a42e","04/25/2022, 19:39:34","E_F_Kate_Winslet.jpg E_M_tom_hankes.jpg",0.987383795554003,"30","Female","right",1,1,FALSE
2734,"E_M_robert_de_niro.jpg","P_M_boris_johnson.jpg","FALSE","pictures/stimuli/E","pictures/stimuli/P","M","M","2","57acc170c6bab4000172a42e","04/25/2022, 19:39:34","E_M_robert_de_niro.jpg P_M_boris_johnson.jpg",-1.13842834218266,"30","Female","right",1,1,FALSE
4044,"E_M_nicolas_cage.jpg","P_M_david_cameron.jpg","FALSE","pictures/stimuli/E","pictures/stimuli/P","M","M","2","57acc170c6bab4000172a42e","04/25/2022, 19:39:34","E_M_nicolas_cage.jpg P_M_david_cameron.jpg",-1.13842834218266,"30","Female","right",1,1,FALSE
3338,"P_M_boris_johnson.jpg","P_M_david_cameron.jpg","TRUE","pictures/stimuli/P","pictures/stimuli/P","M","M","1","57acc170c6bab4000172a42e","04/25/2022, 19:39:34","P_M_boris_johnson.jpg P_M_david_cameron.jpg",-1.66988137661683,"30","Female","right",1,1,FALSE
3092,"E_F_angelina_jolie.jpg","E_M_Hugh_Grant.jpg","TRUE","pictures/stimuli/E","pictures/stimuli/E","F","M","6","57acc170c6bab4000172a42e","04/25/2022, 19:39:34","E_F_angelina_jolie.jpg E_M_Hugh_Grant.jpg",0.987383795554003,"30","Female","right",1,1,FALSE
2488,"E_F_keira_knightley.jpg","P_F_hillary_clinton.jpg","FALSE","pictures/stimuli/E","pictures/stimuli/P","F","F","3","57acc170c6bab4000172a42e","04/25/2022, 19:39:34","E_F_keira_knightley.jpg P_F_hillary_clinton.jpg",-0.606975307748495,"30","Female","right",1,1,FALSE
2696,"E_F_Kate_Winslet.jpg","P_M_donald_trump.jpg","FALSE","pictures/stimuli/E","pictures/stimuli/P","F","M","6","57acc170c6bab4000172a42e","04/25/2022, 19:39:34","E_F_Kate_Winslet.jpg P_M_donald_trump.jpg",0.987383795554003,"30","Female","right",1,1,FALSE
3740,"E_F_Kate_Winslet.jpg","P_F_nicola_sturgeon.jpg","FALSE","pictures/stimuli/E","pictures/stimuli/P","F","F","3","57acc170c6bab4000172a42e","04/25/2022, 19:39:34","E_F_Kate_Winslet.jpg P_F_nicola_sturgeon.jpg",-0.606975307748495,"30","Female","right",1,1,FALSE
2699,"E_F_angelina_jolie.jpg","P_M_Tony_Blair.jpg","FALSE","pictures/stimuli/E","pictures/stimuli/P","F","M","6","57acc170c6bab4000172a42e","04/25/2022, 19:39:34","E_F_angelina_jolie.jpg P_M_Tony_Blair.jpg",0.987383795554003,"30","Female","right",1,1,FALSE
3193,"E_M_tom_hankes.jpg","P_F_nicola_sturgeon.jpg","FALSE","pictures/stimuli/E","pictures/stimuli/P","M","F","6","57acc170c6bab4000172a42e","04/25/2022, 19:39:34","E_M_tom_hankes.jpg P_F_nicola_sturgeon.jpg",0.987383795554003,"30","Female","right",1,1,FALSE
3256,"E_F_Kate_Winslet.jpg","E_M_michael_caine.jpg","TRUE","pictures/stimuli/E","pictures/stimuli/E","F","M","6","57acc170c6bab4000172a42e","04/25/2022, 19:39:34","E_F_Kate_Winslet.jpg E_M_michael_caine.jpg",0.987383795554003,"30","Female","right",1,1,FALSE
2929,"P_M_bill_clinton.jpg","P_M_david_cameron.jpg","TRUE","pictures/stimuli/P","pictures/stimuli/P","M","M","2","57acc170c6bab4000172a42e","04/25/2022, 19:39:34","P_M_bill_clinton.jpg P_M_david_cameron.jpg",-1.13842834218266,"30","Female","right",1,1,FALSE
3267,"E_F_sandra_bullock.jpg","P_M_george_Wbush.jpg","FALSE","pictures/stimuli/E","pictures/stimuli/P","F","M","6","57acc170c6bab4000172a42e","04/25/2022, 19:39:34","E_F_sandra_bullock.jpg P_M_george_Wbush.jpg",0.987383795554003,"30","Female","right",1,1,FALSE
2520,"E_F_angelina_jolie.jpg","P_M_boris_johnson.jpg","FALSE","pictures/stimuli/E","pictures/stimuli/P","F","M","6","57acc170c6bab4000172a42e","04/25/2022, 19:39:34","E_F_angelina_jolie.jpg P_M_boris_johnson.jpg",0.987383795554003,"30","Female","right",1,1,FALSE
2483,"E_F_jennifer_aniston.jpg","P_M_boris_johnson.jpg","FALSE","pictures/stimuli/E","pictures/stimuli/P","F","M","6","57acc170c6bab4000172a42e","04/25/2022, 19:39:34","E_F_jennifer_aniston.jpg P_M_boris_johnson.jpg",0.987383795554003,"30","Female","right",1,1,FALSE
3740,"E_F_keira_knightley.jpg","E_M_nicolas_cage.jpg","TRUE","pictures/stimuli/E","pictures/stimuli/E","F","M","6","57acc170c6bab4000172a42e","04/25/2022, 19:39:34","E_F_keira_knightley.jpg E_M_nicolas_cage.jpg",0.987383795554003,"30","Female","right",1,1,FALSE
3154,"P_M_david_cameron.jpg","P_M_donald_trump.jpg","TRUE","pictures/stimuli/P","pictures/stimuli/P","M","M","2","57acc170c6bab4000172a42e","04/25/2022, 19:39:34","P_M_david_cameron.jpg P_M_donald_trump.jpg",-1.13842834218266,"30","Female","right",1,1,FALSE
3002,"E_M_michael_caine.jpg","P_M_donald_trump.jpg","FALSE","pictures/stimuli/E","pictures/stimuli/P","M","M","2","57acc170c6bab4000172a42e","04/25/2022, 19:39:34","E_M_michael_caine.jpg P_M_donald_trump.jpg",-1.13842834218266,"30","Female","right",1,1,FALSE
2919,"E_F_keira_knightley.jpg","P_M_Tony_Blair.jpg","FALSE","pictures/stimuli/E","pictures/stimuli/P","F","M","6","57acc170c6bab4000172a42e","04/25/2022, 19:39:34","E_F_keira_knightley.jpg P_M_Tony_Blair.jpg",0.987383795554003,"30","Female","right",1,1,FALSE
4167,"E_M_michael_caine.jpg","P_F_tehresy_may.jpg","FALSE","pictures/stimuli/E","pictures/stimuli/P","M","F","5","57acc170c6bab4000172a42e","04/25/2022, 19:39:34","E_M_michael_caine.jpg P_F_tehresy_may.jpg",0.455930761119837,"30","Female","right",1,1,FALSE
2785,"E_M_michael_caine.jpg","P_M_david_cameron.jpg","FALSE","pictures/stimuli/E","pictures/stimuli/P","M","M","2","57acc170c6bab4000172a42e","04/25/2022, 19:39:34","E_M_michael_caine.jpg P_M_david_cameron.jpg",-1.13842834218266,"30","Female","right",1,1,FALSE
2708,"P_M_boris_johnson.jpg","P_M_george_Wbush.jpg","TRUE","pictures/stimuli/P","pictures/stimuli/P","M","M","2","57acc170c6bab4000172a42e","04/25/2022, 19:39:34","P_M_boris_johnson.jpg P_M_george_Wbush.jpg",-1.13842834218266,"30","Female","right",1,1,FALSE
3231,"P_F_nicola_sturgeon.jpg","P_M_boris_johnson.jpg","TRUE","pictures/stimuli/P","pictures/stimuli/P","F","M","6","57acc170c6bab4000172a42e","04/25/2022, 19:39:34","P_F_nicola_sturgeon.jpg P_M_boris_johnson.jpg",0.987383795554003,"30","Female","right",1,1,FALSE
2552,"E_F_keira_knightley.jpg","P_M_bill_clinton.jpg","FALSE","pictures/stimuli/E","pictures/stimuli/P","F","M","6","57acc170c6bab4000172a42e","04/25/2022, 19:39:34","E_F_keira_knightley.jpg P_M_bill_clinton.jpg",0.987383795554003,"30","Female","right",1,1,FALSE
2565,"E_F_keira_knightley.jpg","P_M_george_Wbush.jpg","FALSE","pictures/stimuli/E","pictures/stimuli/P","F","M","6","57acc170c6bab4000172a42e","04/25/2022, 19:39:34","E_F_keira_knightley.jpg P_M_george_Wbush.jpg",0.987383795554003,"30","Female","right",1,1,FALSE
2678,"E_M_tom_hankes.jpg","P_M_boris_johnson.jpg","FALSE","pictures/stimuli/E","pictures/stimuli/P","M","M","2","57acc170c6bab4000172a42e","04/25/2022, 19:39:34","E_M_tom_hankes.jpg P_M_boris_johnson.jpg",-1.13842834218266,"30","Female","right",1,1,FALSE
3165,"E_F_Judi_Dench.jpg","E_M_michael_caine.jpg","TRUE","pictures/stimuli/E","pictures/stimuli/E","F","M","5","57acc170c6bab4000172a42e","04/25/2022, 19:39:34","E_F_Judi_Dench.jpg E_M_michael_caine.jpg",0.455930761119837,"30","Female","right",1,1,FALSE
5164,"E_M_nicolas_cage.jpg","P_F_hillary_clinton.jpg","FALSE","pictures/stimuli/E","pictures/stimuli/P","M","F","6","57acc170c6bab4000172a42e","04/25/2022, 19:39:34","E_M_nicolas_cage.jpg P_F_hillary_clinton.jpg",0.987383795554003,"30","Female","right",1,1,FALSE
3918,"P_M_bill_clinton.jpg","P_M_donald_trump.jpg","TRUE","pictures/stimuli/P","pictures/stimuli/P","M","M","1","57acc170c6bab4000172a42e","04/25/2022, 19:39:34","P_M_bill_clinton.jpg P_M_donald_trump.jpg",-1.66988137661683,"30","Female","right",1,1,FALSE
2473,"E_F_sandra_bullock.jpg","P_M_david_cameron.jpg","FALSE","pictures/stimuli/E","pictures/stimuli/P","F","M","6","57acc170c6bab4000172a42e","04/25/2022, 19:39:34","E_F_sandra_bullock.jpg P_M_david_cameron.jpg",0.987383795554003,"30","Female","right",1,1,FALSE
2403,"E_F_sandra_bullock.jpg","E_M_nicolas_cage.jpg","TRUE","pictures/stimuli/E","pictures/stimuli/E","F","M","6","57acc170c6bab4000172a42e","04/25/2022, 19:39:34","E_F_sandra_bullock.jpg E_M_nicolas_cage.jpg",0.987383795554003,"30","Female","right",1,1,FALSE
2765,"E_F_sandra_bullock.jpg","E_M_Hugh_Grant.jpg","TRUE","pictures/stimuli/E","pictures/stimuli/E","F","M","6","57acc170c6bab4000172a42e","04/25/2022, 19:39:34","E_F_sandra_bullock.jpg E_M_Hugh_Grant.jpg",0.987383795554003,"30","Female","right",1,1,FALSE
3057,"E_F_sandra_bullock.jpg","P_F_tehresy_may.jpg","FALSE","pictures/stimuli/E","pictures/stimuli/P","F","F","3","57acc170c6bab4000172a42e","04/25/2022, 19:39:34","E_F_sandra_bullock.jpg P_F_tehresy_may.jpg",-0.606975307748495,"30","Female","right",1,1,FALSE
3481,"E_F_angelina_jolie.jpg","E_F_jennifer_aniston.jpg","TRUE","pictures/stimuli/E","pictures/stimuli/E","F","F","1","57acc170c6bab4000172a42e","04/25/2022, 19:39:34","E_F_angelina_jolie.jpg E_F_jennifer_aniston.jpg",-1.66988137661683,"30","Female","right",1,1,FALSE
2527,"E_F_Judi_Dench.jpg","P_M_donald_trump.jpg","FALSE","pictures/stimuli/E","pictures/stimuli/P","F","M","6","57acc170c6bab4000172a42e","04/25/2022, 19:39:34","E_F_Judi_Dench.jpg P_M_donald_trump.jpg",0.987383795554003,"30","Female","right",1,1,FALSE
2551,"P_F_hillary_clinton.jpg","P_M_Tony_Blair.jpg","TRUE","pictures/stimuli/P","pictures/stimuli/P","F","M","6","57acc170c6bab4000172a42e","04/25/2022, 19:39:34","P_F_hillary_clinton.jpg P_M_Tony_Blair.jpg",0.987383795554003,"30","Female","right",1,1,FALSE
2498,"E_M_nicolas_cage.jpg","P_F_nicola_sturgeon.jpg","FALSE","pictures/stimuli/E","pictures/stimuli/P","M","F","6","57acc170c6bab4000172a42e","04/25/2022, 19:39:34","E_M_nicolas_cage.jpg P_F_nicola_sturgeon.jpg",0.987383795554003,"30","Female","right",1,1,FALSE
2626,"E_F_jennifer_aniston.jpg","P_M_david_cameron.jpg","FALSE","pictures/stimuli/E","pictures/stimuli/P","F","M","6","57acc170c6bab4000172a42e","04/25/2022, 19:39:34","E_F_jennifer_aniston.jpg P_M_david_cameron.jpg",0.987383795554003,"30","Female","right",1,1,FALSE
2776,"E_M_robert_de_niro.jpg","E_M_tom_hankes.jpg","TRUE","pictures/stimuli/E","pictures/stimuli/E","M","M","2","57acc170c6bab4000172a42e","04/25/2022, 19:39:34","E_M_robert_de_niro.jpg E_M_tom_hankes.jpg",-1.13842834218266,"30","Female","right",1,1,FALSE
2802,"P_F_tehresy_may.jpg","P_M_boris_johnson.jpg","TRUE","pictures/stimuli/P","pictures/stimuli/P","F","M","6","57acc170c6bab4000172a42e","04/25/2022, 19:39:34","P_F_tehresy_may.jpg P_M_boris_johnson.jpg",0.987383795554003,"30","Female","right",1,1,FALSE
2809,"P_F_tehresy_may.jpg","P_M_donald_trump.jpg","TRUE","pictures/stimuli/P","pictures/stimuli/P","F","M","6","57acc170c6bab4000172a42e","04/25/2022, 19:39:34","P_F_tehresy_may.jpg P_M_donald_trump.jpg",0.987383795554003,"30","Female","right",1,1,FALSE
2686,"E_F_jennifer_aniston.jpg","E_M_nicolas_cage.jpg","TRUE","pictures/stimuli/E","pictures/stimuli/E","F","M","6","57acc170c6bab4000172a42e","04/25/2022, 19:39:34","E_F_jennifer_aniston.jpg E_M_nicolas_cage.jpg",0.987383795554003,"30","Female","right",1,1,FALSE
5546,"E_F_jennifer_aniston.jpg","E_F_Judi_Dench.jpg","TRUE","pictures/stimuli/E","pictures/stimuli/E","F","F","3","57acc170c6bab4000172a42e","04/25/2022, 19:39:34","E_F_jennifer_aniston.jpg E_F_Judi_Dench.jpg",-0.606975307748495,"30","Female","right",1,1,FALSE
4272,"E_F_Judi_Dench.jpg","E_F_Kate_Winslet.jpg","TRUE","pictures/stimuli/E","pictures/stimuli/E","F","F","2","57acc170c6bab4000172a42e","04/25/2022, 19:39:34","E_F_Judi_Dench.jpg E_F_Kate_Winslet.jpg",-1.13842834218266,"30","Female","right",1,1,FALSE
3868,"P_F_nicola_sturgeon.jpg","P_M_george_Wbush.jpg","TRUE","pictures/stimuli/P","pictures/stimuli/P","F","M","6","57acc170c6bab4000172a42e","04/25/2022, 19:39:34","P_F_nicola_sturgeon.jpg P_M_george_Wbush.jpg",0.987383795554003,"30","Female","right",1,1,FALSE
2655,"E_F_Kate_Winslet.jpg","E_M_nicolas_cage.jpg","TRUE","pictures/stimuli/E","pictures/stimuli/E","F","M","6","57acc170c6bab4000172a42e","04/25/2022, 19:39:34","E_F_Kate_Winslet.jpg E_M_nicolas_cage.jpg",0.987383795554003,"30","Female","right",1,1,FALSE
2710,"E_M_michael_caine.jpg","P_M_bill_clinton.jpg","FALSE","pictures/stimuli/E","pictures/stimuli/P","M","M","2","57acc170c6bab4000172a42e","04/25/2022, 19:39:34","E_M_michael_caine.jpg P_M_bill_clinton.jpg",-1.13842834218266,"30","Female","right",1,1,FALSE
3404,"E_F_Judi_Dench.jpg","E_M_Hugh_Grant.jpg","TRUE","pictures/stimuli/E","pictures/stimuli/E","F","M","6","57acc170c6bab4000172a42e","04/25/2022, 19:39:34","E_F_Judi_Dench.jpg E_M_Hugh_Grant.jpg",0.987383795554003,"30","Female","right",1,1,FALSE
2940,"E_M_robert_de_niro.jpg","P_F_tehresy_may.jpg","FALSE","pictures/stimuli/E","pictures/stimuli/P","M","F","6","57acc170c6bab4000172a42e","04/25/2022, 19:39:34","E_M_robert_de_niro.jpg P_F_tehresy_may.jpg",0.987383795554003,"30","Female","right",1,1,FALSE
2776,"E_F_jennifer_aniston.jpg","E_M_tom_hankes.jpg","TRUE","pictures/stimuli/E","pictures/stimuli/E","F","M","6","57acc170c6bab4000172a42e","04/25/2022, 19:39:34","E_F_jennifer_aniston.jpg E_M_tom_hankes.jpg",0.987383795554003,"30","Female","right",1,1,FALSE
3727,"E_M_michael_caine.jpg","P_M_boris_johnson.jpg","FALSE","pictures/stimuli/E","pictures/stimuli/P","M","M","2","57acc170c6bab4000172a42e","04/25/2022, 19:39:34","E_M_michael_caine.jpg P_M_boris_johnson.jpg",-1.13842834218266,"30","Female","right",1,1,FALSE
2622,"E_M_michael_caine.jpg","P_F_nicola_sturgeon.jpg","FALSE","pictures/stimuli/E","pictures/stimuli/P","M","F","6","57acc170c6bab4000172a42e","04/25/2022, 19:39:34","E_M_michael_caine.jpg P_F_nicola_sturgeon.jpg",0.987383795554003,"30","Female","right",1,1,FALSE
5286,"E_M_Hugh_Grant.jpg","P_M_david_cameron.jpg","FALSE","pictures/stimuli/E","pictures/stimuli/P","M","M","1","57acc170c6bab4000172a42e","04/25/2022, 19:39:34","E_M_Hugh_Grant.jpg P_M_david_cameron.jpg",-1.66988137661683,"30","Female","right",1,1,FALSE
2716,"P_F_tehresy_may.jpg","P_M_george_Wbush.jpg","TRUE","pictures/stimuli/P","pictures/stimuli/P","F","M","6","57acc170c6bab4000172a42e","04/25/2022, 19:39:34","P_F_tehresy_may.jpg P_M_george_Wbush.jpg",0.987383795554003,"30","Female","right",1,1,FALSE
2895,"E_F_angelina_jolie.jpg","P_M_david_cameron.jpg","FALSE","pictures/stimuli/E","pictures/stimuli/P","F","M","6","57acc170c6bab4000172a42e","04/25/2022, 19:39:34","E_F_angelina_jolie.jpg P_M_david_cameron.jpg",0.987383795554003,"30","Female","right",1,1,FALSE
4077,"P_M_bill_clinton.jpg","P_M_boris_johnson.jpg","TRUE","pictures/stimuli/P","pictures/stimuli/P","M","M","3","57acc170c6bab4000172a42e","04/25/2022, 19:39:34","P_M_bill_clinton.jpg P_M_boris_johnson.jpg",-0.606975307748495,"30","Female","right",1,1,FALSE
2426,"E_F_sandra_bullock.jpg","E_M_robert_de_niro.jpg","TRUE","pictures/stimuli/E","pictures/stimuli/E","F","M","6","57acc170c6bab4000172a42e","04/25/2022, 19:39:34","E_F_sandra_bullock.jpg E_M_robert_de_niro.jpg",0.987383795554003,"30","Female","right",1,1,FALSE
3037,"E_F_keira_knightley.jpg","P_M_donald_trump.jpg","FALSE","pictures/stimuli/E","pictures/stimuli/P","F","M","6","57acc170c6bab4000172a42e","04/25/2022, 19:39:34","E_F_keira_knightley.jpg P_M_donald_trump.jpg",0.987383795554003,"30","Female","right",1,1,FALSE
2381,"E_F_sandra_bullock.jpg","P_M_donald_trump.jpg","FALSE","pictures/stimuli/E","pictures/stimuli/P","F","M","6","57acc170c6bab4000172a42e","04/25/2022, 19:39:34","E_F_sandra_bullock.jpg P_M_donald_trump.jpg",0.987383795554003,"30","Female","right",1,1,FALSE
2588,"E_M_michael_caine.jpg","P_F_hillary_clinton.jpg","FALSE","pictures/stimuli/E","pictures/stimuli/P","M","F","6","57acc170c6bab4000172a42e","04/25/2022, 19:39:34","E_M_michael_caine.jpg P_F_hillary_clinton.jpg",0.987383795554003,"30","Female","right",1,1,FALSE
3681,"E_M_nicolas_cage.jpg","E_M_tom_hankes.jpg","TRUE","pictures/stimuli/E","pictures/stimuli/E","M","M","1","57acc170c6bab4000172a42e","04/25/2022, 19:39:34","E_M_nicolas_cage.jpg E_M_tom_hankes.jpg",-1.66988137661683,"30","Female","right",1,1,FALSE
3228,"E_M_Hugh_Grant.jpg","E_M_robert_de_niro.jpg","TRUE","pictures/stimuli/E","pictures/stimuli/E","M","M","3","57acc170c6bab4000172a42e","04/25/2022, 19:39:34","E_M_Hugh_Grant.jpg E_M_robert_de_niro.jpg",-0.606975307748495,"30","Female","right",1,1,FALSE
3495,"E_F_sandra_bullock.jpg","P_M_boris_johnson.jpg","FALSE","pictures/stimuli/E","pictures/stimuli/P","F","M","6","57acc170c6bab4000172a42e","04/25/2022, 19:39:34","E_F_sandra_bullock.jpg P_M_boris_johnson.jpg",0.987383795554003,"30","Female","right",1,1,FALSE
3296,"E_F_sandra_bullock.jpg","P_F_nicola_sturgeon.jpg","FALSE","pictures/stimuli/E","pictures/stimuli/P","F","F","4","57acc170c6bab4000172a42e","04/25/2022, 19:39:34","E_F_sandra_bullock.jpg P_F_nicola_sturgeon.jpg",-0.0755222733143287,"30","Female","right",1,1,FALSE
4749,"P_M_boris_johnson.jpg","P_M_donald_trump.jpg","TRUE","pictures/stimuli/P","pictures/stimuli/P","M","M","2","57acc170c6bab4000172a42e","04/25/2022, 19:39:34","P_M_boris_johnson.jpg P_M_donald_trump.jpg",-1.13842834218266,"30","Female","right",1,1,FALSE
2887,"E_F_angelina_jolie.jpg","E_M_nicolas_cage.jpg","TRUE","pictures/stimuli/E","pictures/stimuli/E","F","M","6","57acc170c6bab4000172a42e","04/25/2022, 19:39:34","E_F_angelina_jolie.jpg E_M_nicolas_cage.jpg",0.987383795554003,"30","Female","right",1,1,FALSE
2727,"P_F_nicola_sturgeon.jpg","P_M_bill_clinton.jpg","TRUE","pictures/stimuli/P","pictures/stimuli/P","F","M","6","57acc170c6bab4000172a42e","04/25/2022, 19:39:34","P_F_nicola_sturgeon.jpg P_M_bill_clinton.jpg",0.987383795554003,"30","Female","right",1,1,FALSE
4438,"P_M_boris_johnson.jpg","P_M_Tony_Blair.jpg","TRUE","pictures/stimuli/P","pictures/stimuli/P","M","M","1","57acc170c6bab4000172a42e","04/25/2022, 19:39:34","P_M_boris_johnson.jpg P_M_Tony_Blair.jpg",-1.66988137661683,"30","Female","right",1,1,FALSE
4168,"E_M_tom_hankes.jpg","P_M_donald_trump.jpg","FALSE","pictures/stimuli/E","pictures/stimuli/P","M","M","2","57acc170c6bab4000172a42e","04/25/2022, 19:39:34","E_M_tom_hankes.jpg P_M_donald_trump.jpg",-1.13842834218266,"30","Female","right",1,1,FALSE
3160,"E_M_robert_de_niro.jpg","P_F_hillary_clinton.jpg","FALSE","pictures/stimuli/E","pictures/stimuli/P","M","F","6","57acc170c6bab4000172a42e","04/25/2022, 19:39:34","E_M_robert_de_niro.jpg P_F_hillary_clinton.jpg",0.987383795554003,"30","Female","right",1,1,FALSE
2821,"E_F_Judi_Dench.jpg","E_M_nicolas_cage.jpg","TRUE","pictures/stimuli/E","pictures/stimuli/E","F","M","6","57acc170c6bab4000172a42e","04/25/2022, 19:39:34","E_F_Judi_Dench.jpg E_M_nicolas_cage.jpg",0.987383795554003,"30","Female","right",1,1,FALSE
2420,"E_M_tom_hankes.jpg","P_F_hillary_clinton.jpg","FALSE","pictures/stimuli/E","pictures/stimuli/P","M","F","6","57acc170c6bab4000172a42e","04/25/2022, 19:39:34","E_M_tom_hankes.jpg P_F_hillary_clinton.jpg",0.987383795554003,"30","Female","right",1,1,FALSE
3954,"E_F_angelina_jolie.jpg","P_M_donald_trump.jpg","FALSE","pictures/stimuli/E","pictures/stimuli/P","F","M","6","57acc170c6bab4000172a42e","04/25/2022, 19:39:34","E_F_angelina_jolie.jpg P_M_donald_trump.jpg",0.987383795554003,"30","Female","right",1,1,FALSE
2692,"E_F_Kate_Winslet.jpg","P_M_david_cameron.jpg","FALSE","pictures/stimuli/E","pictures/stimuli/P","F","M","6","57acc170c6bab4000172a42e","04/25/2022, 19:39:34","E_F_Kate_Winslet.jpg P_M_david_cameron.jpg",0.987383795554003,"30","Female","right",1,1,FALSE
4301,"P_F_hillary_clinton.jpg","P_F_nicola_sturgeon.jpg","TRUE","pictures/stimuli/P","pictures/stimuli/P","F","F","2","57acc170c6bab4000172a42e","04/25/2022, 19:39:34","P_F_hillary_clinton.jpg P_F_nicola_sturgeon.jpg",-1.13842834218266,"30","Female","right",1,1,FALSE
2555,"E_F_Judi_Dench.jpg","E_F_sandra_bullock.jpg","TRUE","pictures/stimuli/E","pictures/stimuli/E","F","F","2","57acc170c6bab4000172a42e","04/25/2022, 19:39:34","E_F_Judi_Dench.jpg E_F_sandra_bullock.jpg",-1.13842834218266,"30","Female","right",1,1,FALSE
2626,"E_F_Kate_Winslet.jpg","E_M_robert_de_niro.jpg","TRUE","pictures/stimuli/E","pictures/stimuli/E","F","M","6","57acc170c6bab4000172a42e","04/25/2022, 19:39:34","E_F_Kate_Winslet.jpg E_M_robert_de_niro.jpg",0.987383795554003,"30","Female","right",1,1,FALSE
2832,"E_F_Kate_Winslet.jpg","P_M_boris_johnson.jpg","FALSE","pictures/stimuli/E","pictures/stimuli/P","F","M","6","57acc170c6bab4000172a42e","04/25/2022, 19:39:34","E_F_Kate_Winslet.jpg P_M_boris_johnson.jpg",0.987383795554003,"30","Female","right",1,1,FALSE
4467,"E_M_robert_de_niro.jpg","P_M_george_Wbush.jpg","FALSE","pictures/stimuli/E","pictures/stimuli/P","M","M","2","57acc170c6bab4000172a42e","04/25/2022, 19:39:34","E_M_robert_de_niro.jpg P_M_george_Wbush.jpg",-1.13842834218266,"30","Female","right",1,1,FALSE
2775,"E_F_angelina_jolie.jpg","E_M_michael_caine.jpg","TRUE","pictures/stimuli/E","pictures/stimuli/E","F","M","6","57acc170c6bab4000172a42e","04/25/2022, 19:39:34","E_F_angelina_jolie.jpg E_M_michael_caine.jpg",0.987383795554003,"30","Female","right",1,1,FALSE
2563,"E_F_Judi_Dench.jpg","P_M_george_Wbush.jpg","FALSE","pictures/stimuli/E","pictures/stimuli/P","F","M","6","57acc170c6bab4000172a42e","04/25/2022, 19:39:34","E_F_Judi_Dench.jpg P_M_george_Wbush.jpg",0.987383795554003,"30","Female","right",1,1,FALSE
3606,"E_M_Hugh_Grant.jpg","P_M_bill_clinton.jpg","FALSE","pictures/stimuli/E","pictures/stimuli/P","M","M","2","57acc170c6bab4000172a42e","04/25/2022, 19:39:34","E_M_Hugh_Grant.jpg P_M_bill_clinton.jpg",-1.13842834218266,"30","Female","right",1,1,FALSE
2472,"E_M_Hugh_Grant.jpg","E_M_tom_hankes.jpg","TRUE","pictures/stimuli/E","pictures/stimuli/E","M","M","2","57acc170c6bab4000172a42e","04/25/2022, 19:39:34","E_M_Hugh_Grant.jpg E_M_tom_hankes.jpg",-1.13842834218266,"30","Female","right",1,1,FALSE
2696,"E_F_jennifer_aniston.jpg","E_M_michael_caine.jpg","TRUE","pictures/stimuli/E","pictures/stimuli/E","F","M","6","57acc170c6bab4000172a42e","04/25/2022, 19:39:34","E_F_jennifer_aniston.jpg E_M_michael_caine.jpg",0.987383795554003,"30","Female","right",1,1,FALSE
3045,"P_F_hillary_clinton.jpg","P_M_george_Wbush.jpg","TRUE","pictures/stimuli/P","pictures/stimuli/P","F","M","6","57acc170c6bab4000172a42e","04/25/2022, 19:39:34","P_F_hillary_clinton.jpg P_M_george_Wbush.jpg",0.987383795554003,"30","Female","right",1,1,FALSE
3038,"E_F_Kate_Winslet.jpg","P_M_bill_clinton.jpg","FALSE","pictures/stimuli/E","pictures/stimuli/P","F","M","6","57acc170c6bab4000172a42e","04/25/2022, 19:39:34","E_F_Kate_Winslet.jpg P_M_bill_clinton.jpg",0.987383795554003,"30","Female","right",1,1,FALSE
2788,"E_M_tom_hankes.jpg","P_M_bill_clinton.jpg","FALSE","pictures/stimuli/E","pictures/stimuli/P","M","M","2","57acc170c6bab4000172a42e","04/25/2022, 19:39:34","E_M_tom_hankes.jpg P_M_bill_clinton.jpg",-1.13842834218266,"30","Female","right",1,1,FALSE
5549,"E_F_keira_knightley.jpg","P_M_david_cameron.jpg","FALSE","pictures/stimuli/E","pictures/stimuli/P","F","M","5","57acc170c6bab4000172a42e","04/25/2022, 19:39:34","E_F_keira_knightley.jpg P_M_david_cameron.jpg",0.455930761119837,"30","Female","right",1,1,FALSE
2904,"P_F_tehresy_may.jpg","P_M_bill_clinton.jpg","TRUE","pictures/stimuli/P","pictures/stimuli/P","F","M","6","57acc170c6bab4000172a42e","04/25/2022, 19:39:34","P_F_tehresy_may.jpg P_M_bill_clinton.jpg",0.987383795554003,"30","Female","right",1,1,FALSE
2456,"P_F_hillary_clinton.jpg","P_M_david_cameron.jpg","TRUE","pictures/stimuli/P","pictures/stimuli/P","F","M","6","57acc170c6bab4000172a42e","04/25/2022, 19:39:34","P_F_hillary_clinton.jpg P_M_david_cameron.jpg",0.987383795554003,"30","Female","right",1,1,FALSE
2510,"E_F_sandra_bullock.jpg","E_M_michael_caine.jpg","TRUE","pictures/stimuli/E","pictures/stimuli/E","F","M","6","57acc170c6bab4000172a42e","04/25/2022, 19:39:34","E_F_sandra_bullock.jpg E_M_michael_caine.jpg",0.987383795554003,"30","Female","right",1,1,FALSE
3762,"P_F_tehresy_may.jpg","P_M_Tony_Blair.jpg","TRUE","pictures/stimuli/P","pictures/stimuli/P","F","M","5","57acc170c6bab4000172a42e","04/25/2022, 19:39:34","P_F_tehresy_may.jpg P_M_Tony_Blair.jpg",0.455930761119837,"30","Female","right",1,1,FALSE
2449,"E_F_jennifer_aniston.jpg","E_M_Hugh_Grant.jpg","TRUE","pictures/stimuli/E","pictures/stimuli/E","F","M","6","57acc170c6bab4000172a42e","04/25/2022, 19:39:34","E_F_jennifer_aniston.jpg E_M_Hugh_Grant.jpg",0.987383795554003,"30","Female","right",1,1,FALSE
3715,"E_M_nicolas_cage.jpg","P_M_donald_trump.jpg","FALSE","pictures/stimuli/E","pictures/stimuli/P","M","M","2","57acc170c6bab4000172a42e","04/25/2022, 19:39:34","E_M_nicolas_cage.jpg P_M_donald_trump.jpg",-1.13842834218266,"30","Female","right",1,1,FALSE
2567,"E_F_keira_knightley.jpg","P_F_nicola_sturgeon.jpg","FALSE","pictures/stimuli/E","pictures/stimuli/P","F","F","4","57acc170c6bab4000172a42e","04/25/2022, 19:39:34","E_F_keira_knightley.jpg P_F_nicola_sturgeon.jpg",-0.0755222733143287,"30","Female","right",1,1,FALSE
3845,"P_F_nicola_sturgeon.jpg","P_F_tehresy_may.jpg","TRUE","pictures/stimuli/P","pictures/stimuli/P","F","F","1","57acc170c6bab4000172a42e","04/25/2022, 19:39:34","P_F_nicola_sturgeon.jpg P_F_tehresy_may.jpg",-1.66988137661683,"30","Female","right",1,1,FALSE
3752,"E_F_jennifer_aniston.jpg","E_F_keira_knightley.jpg","TRUE","pictures/stimuli/E","pictures/stimuli/E","F","F","2","57acc170c6bab4000172a42e","04/25/2022, 19:39:34","E_F_jennifer_aniston.jpg E_F_keira_knightley.jpg",-1.13842834218266,"30","Female","right",1,1,FALSE
3030,"P_F_hillary_clinton.jpg","P_F_tehresy_may.jpg","TRUE","pictures/stimuli/P","pictures/stimuli/P","F","F","2","57acc170c6bab4000172a42e","04/25/2022, 19:39:34","P_F_hillary_clinton.jpg P_F_tehresy_may.jpg",-1.13842834218266,"30","Female","right",1,1,FALSE
4166,"P_F_hillary_clinton.jpg","P_M_bill_clinton.jpg","TRUE","pictures/stimuli/P","pictures/stimuli/P","F","M","5","57acc170c6bab4000172a42e","04/25/2022, 19:39:34","P_F_hillary_clinton.jpg P_M_bill_clinton.jpg",0.455930761119837,"30","Female","right",1,1,FALSE
3254,"E_F_Judi_Dench.jpg","P_M_Tony_Blair.jpg","FALSE","pictures/stimuli/E","pictures/stimuli/P","F","M","6","57acc170c6bab4000172a42e","04/25/2022, 19:39:34","E_F_Judi_Dench.jpg P_M_Tony_Blair.jpg",0.987383795554003,"30","Female","right",1,1,FALSE
2389,"E_M_nicolas_cage.jpg","P_M_george_Wbush.jpg","FALSE","pictures/stimuli/E","pictures/stimuli/P","M","M","2","57acc170c6bab4000172a42e","04/25/2022, 19:39:34","E_M_nicolas_cage.jpg P_M_george_Wbush.jpg",-1.13842834218266,"30","Female","right",1,1,FALSE
3830,"E_M_michael_caine.jpg","E_M_nicolas_cage.jpg","TRUE","pictures/stimuli/E","pictures/stimuli/E","M","M","2","57acc170c6bab4000172a42e","04/25/2022, 19:39:34","E_M_michael_caine.jpg E_M_nicolas_cage.jpg",-1.13842834218266,"30","Female","right",1,1,FALSE
3100,"E_M_Hugh_Grant.jpg","P_M_donald_trump.jpg","FALSE","pictures/stimuli/E","pictures/stimuli/P","M","M","3","57acc170c6bab4000172a42e","04/25/2022, 19:39:34","E_M_Hugh_Grant.jpg P_M_donald_trump.jpg",-0.606975307748495,"30","Female","right",1,1,FALSE
5926,"P_F_hillary_clinton.jpg","P_M_donald_trump.jpg","TRUE","pictures/stimuli/P","pictures/stimuli/P","F","M","5","57acc170c6bab4000172a42e","04/25/2022, 19:39:34","P_F_hillary_clinton.jpg P_M_donald_trump.jpg",0.455930761119837,"30","Female","right",1,1,FALSE
3676,"E_F_Judi_Dench.jpg","E_M_tom_hankes.jpg","TRUE","pictures/stimuli/E","pictures/stimuli/E","F","M","6","57acc170c6bab4000172a42e","04/25/2022, 19:39:34","E_F_Judi_Dench.jpg E_M_tom_hankes.jpg",0.987383795554003,"30","Female","right",1,1,FALSE
3145,"E_M_Hugh_Grant.jpg","P_F_hillary_clinton.jpg","FALSE","pictures/stimuli/E","pictures/stimuli/P","M","F","6","57acc170c6bab4000172a42e","04/25/2022, 19:39:34","E_M_Hugh_Grant.jpg P_F_hillary_clinton.jpg",0.987383795554003,"30","Female","right",1,1,FALSE
4381,"P_F_nicola_sturgeon.jpg","P_M_Tony_Blair.jpg","TRUE","pictures/stimuli/P","pictures/stimuli/P","F","M","5","57acc170c6bab4000172a42e","04/25/2022, 19:39:34","P_F_nicola_sturgeon.jpg P_M_Tony_Blair.jpg",0.455930761119837,"30","Female","right",1,1,FALSE
3374,"E_M_tom_hankes.jpg","P_M_Tony_Blair.jpg","FALSE","pictures/stimuli/E","pictures/stimuli/P","M","M","3","57acc170c6bab4000172a42e","04/25/2022, 19:39:34","E_M_tom_hankes.jpg P_M_Tony_Blair.jpg",-0.606975307748495,"30","Female","right",1,1,FALSE
3681,"E_M_michael_caine.jpg","E_M_robert_de_niro.jpg","TRUE","pictures/stimuli/E","pictures/stimuli/E","M","M","2","57acc170c6bab4000172a42e","04/25/2022, 19:39:34","E_M_michael_caine.jpg E_M_robert_de_niro.jpg",-1.13842834218266,"30","Female","right",1,1,FALSE
3263,"E_F_angelina_jolie.jpg","E_M_robert_de_niro.jpg","TRUE","pictures/stimuli/E","pictures/stimuli/E","F","M","6","57acc170c6bab4000172a42e","04/25/2022, 19:39:34","E_F_angelina_jolie.jpg E_M_robert_de_niro.jpg",0.987383795554003,"30","Female","right",1,1,FALSE
2695,"E_M_michael_caine.jpg","P_M_Tony_Blair.jpg","FALSE","pictures/stimuli/E","pictures/stimuli/P","M","M","2","57acc170c6bab4000172a42e","04/25/2022, 19:39:34","E_M_michael_caine.jpg P_M_Tony_Blair.jpg",-1.13842834218266,"30","Female","right",1,1,FALSE
3453,"P_F_tehresy_may.jpg","P_M_david_cameron.jpg","TRUE","pictures/stimuli/P","pictures/stimuli/P","F","M","5","57acc170c6bab4000172a42e","04/25/2022, 19:39:34","P_F_tehresy_may.jpg P_M_david_cameron.jpg",0.455930761119837,"30","Female","right",1,1,FALSE
2968,"P_F_nicola_sturgeon.jpg","P_M_donald_trump.jpg","TRUE","pictures/stimuli/P","pictures/stimuli/P","F","M","6","57acc170c6bab4000172a42e","04/25/2022, 19:39:34","P_F_nicola_sturgeon.jpg P_M_donald_trump.jpg",0.987383795554003,"30","Female","right",1,1,FALSE
2744,"E_M_Hugh_Grant.jpg","E_M_nicolas_cage.jpg","TRUE","pictures/stimuli/E","pictures/stimuli/E","M","M","2","57acc170c6bab4000172a42e","04/25/2022, 19:39:34","E_M_Hugh_Grant.jpg E_M_nicolas_cage.jpg",-1.13842834218266,"30","Female","right",1,1,FALSE
3307,"E_F_angelina_jolie.jpg","E_M_tom_hankes.jpg","TRUE","pictures/stimuli/E","pictures/stimuli/E","F","M","5","57acc170c6bab4000172a42e","04/25/2022, 19:39:34","E_F_angelina_jolie.jpg E_M_tom_hankes.jpg",0.455930761119837,"30","Female","right",1,1,FALSE
3059,"E_F_Judi_Dench.jpg","P_M_david_cameron.jpg","FALSE","pictures/stimuli/E","pictures/stimuli/P","F","M","3","57acc170c6bab4000172a42e","04/25/2022, 19:39:34","E_F_Judi_Dench.jpg P_M_david_cameron.jpg",-0.606975307748495,"30","Female","right",1,1,FALSE
4002,"E_F_Judi_Dench.jpg","P_F_nicola_sturgeon.jpg","FALSE","pictures/stimuli/E","pictures/stimuli/P","F","F","4","57acc170c6bab4000172a42e","04/25/2022, 19:39:34","E_F_Judi_Dench.jpg P_F_nicola_sturgeon.jpg",-0.0755222733143287,"30","Female","right",1,1,FALSE
3308,"E_M_michael_caine.jpg","P_M_george_Wbush.jpg","FALSE","pictures/stimuli/E","pictures/stimuli/P","M","M","3","57acc170c6bab4000172a42e","04/25/2022, 19:39:34","E_M_michael_caine.jpg P_M_george_Wbush.jpg",-0.606975307748495,"30","Female","right",1,1,FALSE
2861,"E_F_Kate_Winslet.jpg","E_F_sandra_bullock.jpg","TRUE","pictures/stimuli/E","pictures/stimuli/E","F","F","2","57acc170c6bab4000172a42e","04/25/2022, 19:39:34","E_F_Kate_Winslet.jpg E_F_sandra_bullock.jpg",-1.13842834218266,"30","Female","right",1,1,FALSE
5494,"E_M_Hugh_Grant.jpg","P_M_boris_johnson.jpg","FALSE","pictures/stimuli/E","pictures/stimuli/P","M","M","2","57acc170c6bab4000172a42e","04/25/2022, 19:39:34","E_M_Hugh_Grant.jpg P_M_boris_johnson.jpg",-1.13842834218266,"30","Female","right",1,1,FALSE
2474,"E_F_Kate_Winslet.jpg","P_F_hillary_clinton.jpg","FALSE","pictures/stimuli/E","pictures/stimuli/P","F","F","3","57acc170c6bab4000172a42e","04/25/2022, 19:39:34","E_F_Kate_Winslet.jpg P_F_hillary_clinton.jpg",-0.606975307748495,"30","Female","right",1,1,FALSE
2704,"E_F_angelina_jolie.jpg","P_M_george_Wbush.jpg","FALSE","pictures/stimuli/E","pictures/stimuli/P","F","M","6","57acc170c6bab4000172a42e","04/25/2022, 19:39:34","E_F_angelina_jolie.jpg P_M_george_Wbush.jpg",0.987383795554003,"30","Female","right",1,1,FALSE
4106,"E_F_Judi_Dench.jpg","P_M_boris_johnson.jpg","FALSE","pictures/stimuli/E","pictures/stimuli/P","F","M","6","57acc170c6bab4000172a42e","04/25/2022, 19:39:34","E_F_Judi_Dench.jpg P_M_boris_johnson.jpg",0.987383795554003,"30","Female","right",1,1,FALSE
2166,"E_F_jennifer_aniston.jpg","P_F_tehresy_may.jpg","FALSE","pictures/stimuli/E","pictures/stimuli/P","F","F","3","57acc170c6bab4000172a42e","04/25/2022, 19:39:34","E_F_jennifer_aniston.jpg P_F_tehresy_may.jpg",-0.606975307748495,"30","Female","right",1,1,FALSE
2919,"E_F_Judi_Dench.jpg","P_M_bill_clinton.jpg","FALSE","pictures/stimuli/E","pictures/stimuli/P","F","M","6","57acc170c6bab4000172a42e","04/25/2022, 19:39:34","E_F_Judi_Dench.jpg P_M_bill_clinton.jpg",0.987383795554003,"30","Female","right",1,1,FALSE
3039,"E_M_tom_hankes.jpg","P_M_george_Wbush.jpg","FALSE","pictures/stimuli/E","pictures/stimuli/P","M","M","2","57acc170c6bab4000172a42e","04/25/2022, 19:39:34","E_M_tom_hankes.jpg P_M_george_Wbush.jpg",-1.13842834218266,"30","Female","right",1,1,FALSE
3436,"E_M_robert_de_niro.jpg","P_F_nicola_sturgeon.jpg","FALSE","pictures/stimuli/E","pictures/stimuli/P","M","F","6","57acc170c6bab4000172a42e","04/25/2022, 19:39:34","E_M_robert_de_niro.jpg P_F_nicola_sturgeon.jpg",0.987383795554003,"30","Female","right",1,1,FALSE
2755,"E_M_Hugh_Grant.jpg","P_M_george_Wbush.jpg","FALSE","pictures/stimuli/E","pictures/stimuli/P","M","M","3","57acc170c6bab4000172a42e","04/25/2022, 19:39:34","E_M_Hugh_Grant.jpg P_M_george_Wbush.jpg",-0.606975307748495,"30","Female","right",1,1,FALSE
2325,"E_F_jennifer_aniston.jpg","E_M_robert_de_niro.jpg","TRUE","pictures/stimuli/E","pictures/stimuli/E","F","M","6","57acc170c6bab4000172a42e","04/25/2022, 19:39:34","E_F_jennifer_aniston.jpg E_M_robert_de_niro.jpg",0.987383795554003,"30","Female","right",1,1,FALSE
2652,"P_M_donald_trump.jpg","P_M_Tony_Blair.jpg","TRUE","pictures/stimuli/P","pictures/stimuli/P","M","M","2","57acc170c6bab4000172a42e","04/25/2022, 19:39:34","P_M_donald_trump.jpg P_M_Tony_Blair.jpg",-1.13842834218266,"30","Female","right",1,1,FALSE
3391,"E_F_sandra_bullock.jpg","P_M_Tony_Blair.jpg","FALSE","pictures/stimuli/E","pictures/stimuli/P","F","M","6","57acc170c6bab4000172a42e","04/25/2022, 19:39:34","E_F_sandra_bullock.jpg P_M_Tony_Blair.jpg",0.987383795554003,"30","Female","right",1,1,FALSE
2931,"P_F_nicola_sturgeon.jpg","P_M_david_cameron.jpg","TRUE","pictures/stimuli/P","pictures/stimuli/P","F","M","5","57acc170c6bab4000172a42e","04/25/2022, 19:39:34","P_F_nicola_sturgeon.jpg P_M_david_cameron.jpg",0.455930761119837,"30","Female","right",1,1,FALSE
4543,"P_F_hillary_clinton.jpg","P_M_boris_johnson.jpg","TRUE","pictures/stimuli/P","pictures/stimuli/P","F","M","5","57acc170c6bab4000172a42e","04/25/2022, 19:39:34","P_F_hillary_clinton.jpg P_M_boris_johnson.jpg",0.455930761119837,"30","Female","right",1,1,FALSE
5913,"E_F_keira_knightley.jpg","P_M_boris_johnson.jpg","FALSE","pictures/stimuli/E","pictures/stimuli/P","F","M","6","57acc170c6bab4000172a42e","04/25/2022, 19:39:34","E_F_keira_knightley.jpg P_M_boris_johnson.jpg",0.987383795554003,"30","Female","right",1,1,FALSE
3833,"E_M_robert_de_niro.jpg","P_M_donald_trump.jpg","FALSE","pictures/stimuli/E","pictures/stimuli/P","M","M","2","57acc170c6bab4000172a42e","04/25/2022, 19:39:34","E_M_robert_de_niro.jpg P_M_donald_trump.jpg",-1.13842834218266,"30","Female","right",1,1,FALSE
4236,"E_M_nicolas_cage.jpg","P_M_Tony_Blair.jpg","FALSE","pictures/stimuli/E","pictures/stimuli/P","M","M","3","57acc170c6bab4000172a42e","04/25/2022, 19:39:34","E_M_nicolas_cage.jpg P_M_Tony_Blair.jpg",-0.606975307748495,"30","Female","right",1,1,FALSE
3962,"E_F_keira_knightley.jpg","E_F_sandra_bullock.jpg","TRUE","pictures/stimuli/E","pictures/stimuli/E","F","F","3","57acc170c6bab4000172a42e","04/25/2022, 19:39:34","E_F_keira_knightley.jpg E_F_sandra_bullock.jpg",-0.606975307748495,"30","Female","right",1,1,FALSE
3643,"E_F_jennifer_aniston.jpg","P_M_Tony_Blair.jpg","FALSE","pictures/stimuli/E","pictures/stimuli/P","F","M","6","57acc170c6bab4000172a42e","04/25/2022, 19:39:34","E_F_jennifer_aniston.jpg P_M_Tony_Blair.jpg",0.987383795554003,"30","Female","right",1,1,FALSE
2666,"E_F_angelina_jolie.jpg","P_F_nicola_sturgeon.jpg","FALSE","pictures/stimuli/E","pictures/stimuli/P","F","F","5","57acc170c6bab4000172a42e","04/25/2022, 19:39:34","E_F_angelina_jolie.jpg P_F_nicola_sturgeon.jpg",0.455930761119837,"30","Female","right",1,1,FALSE
2551,"P_M_george_Wbush.jpg","P_M_Tony_Blair.jpg","TRUE","pictures/stimuli/P","pictures/stimuli/P","M","M","2","57acc170c6bab4000172a42e","04/25/2022, 19:39:34","P_M_george_Wbush.jpg P_M_Tony_Blair.jpg",-1.13842834218266,"30","Female","right",1,1,FALSE
3395,"E_M_Hugh_Grant.jpg","E_M_michael_caine.jpg","TRUE","pictures/stimuli/E","pictures/stimuli/E","M","M","2","57acc170c6bab4000172a42e","04/25/2022, 19:39:34","E_M_Hugh_Grant.jpg E_M_michael_caine.jpg",-1.13842834218266,"30","Female","right",1,1,FALSE
3719,"P_M_bill_clinton.jpg","P_M_george_Wbush.jpg","TRUE","pictures/stimuli/P","pictures/stimuli/P","M","M","1","57acc170c6bab4000172a42e","04/25/2022, 19:39:34","P_M_bill_clinton.jpg P_M_george_Wbush.jpg",-1.66988137661683,"30","Female","right",1,1,FALSE
2565,"E_F_angelina_jolie.jpg","E_F_Judi_Dench.jpg","TRUE","pictures/stimuli/E","pictures/stimuli/E","F","F","3","57acc170c6bab4000172a42e","04/25/2022, 19:39:34","E_F_angelina_jolie.jpg E_F_Judi_Dench.jpg",-0.606975307748495,"30","Female","right",1,1,FALSE
4647,"P_M_bill_clinton.jpg","P_M_Tony_Blair.jpg","TRUE","pictures/stimuli/P","pictures/stimuli/P","M","M","2","57acc170c6bab4000172a42e","04/25/2022, 19:39:34","P_M_bill_clinton.jpg P_M_Tony_Blair.jpg",-1.13842834218266,"30","Female","right",1,1,FALSE
2848,"E_M_robert_de_niro.jpg","P_M_david_cameron.jpg","FALSE","pictures/stimuli/E","pictures/stimuli/P","M","M","3","57acc170c6bab4000172a42e","04/25/2022, 19:39:34","E_M_robert_de_niro.jpg P_M_david_cameron.jpg",-0.606975307748495,"30","Female","right",1,1,FALSE
3946,"E_M_Hugh_Grant.jpg","P_M_Tony_Blair.jpg","FALSE","pictures/stimuli/E","pictures/stimuli/P","M","M","2","57acc170c6bab4000172a42e","04/25/2022, 19:39:34","E_M_Hugh_Grant.jpg P_M_Tony_Blair.jpg",-1.13842834218266,"30","Female","right",1,1,FALSE
4798,"E_F_keira_knightley.jpg","E_M_michael_caine.jpg","TRUE","pictures/stimuli/E","pictures/stimuli/E","F","M","5","57acc170c6bab4000172a42e","04/25/2022, 19:39:34","E_F_keira_knightley.jpg E_M_michael_caine.jpg",0.455930761119837,"30","Female","right",1,1,FALSE
4053,"P_M_david_cameron.jpg","P_M_george_Wbush.jpg","TRUE","pictures/stimuli/P","pictures/stimuli/P","M","M","3","57acc170c6bab4000172a42e","04/25/2022, 19:39:34","P_M_david_cameron.jpg P_M_george_Wbush.jpg",-0.606975307748495,"30","Female","right",1,1,FALSE
4238,"E_F_keira_knightley.jpg","E_M_tom_hankes.jpg","TRUE","pictures/stimuli/E","pictures/stimuli/E","F","M","6","57acc170c6bab4000172a42e","04/25/2022, 19:39:34","E_F_keira_knightley.jpg E_M_tom_hankes.jpg",0.987383795554003,"30","Female","right",1,1,FALSE
2589,"E_M_robert_de_niro.jpg","P_M_Tony_Blair.jpg","FALSE","pictures/stimuli/E","pictures/stimuli/P","M","M","3","57acc170c6bab4000172a42e","04/25/2022, 19:39:34","E_M_robert_de_niro.jpg P_M_Tony_Blair.jpg",-0.606975307748495,"30","Female","right",1,1,FALSE
3038,"E_F_angelina_jolie.jpg","E_F_Kate_Winslet.jpg","TRUE","pictures/stimuli/E","pictures/stimuli/E","F","F","2","57acc170c6bab4000172a42e","04/25/2022, 19:39:34","E_F_angelina_jolie.jpg E_F_Kate_Winslet.jpg",-1.13842834218266,"30","Female","right",1,1,FALSE
2426,"E_M_robert_de_niro.jpg","P_M_bill_clinton.jpg","FALSE","pictures/stimuli/E","pictures/stimuli/P","M","M","2","57acc170c6bab4000172a42e","04/25/2022, 19:39:34","E_M_robert_de_niro.jpg P_M_bill_clinton.jpg",-1.13842834218266,"30","Female","right",1,1,FALSE
2908,"E_M_nicolas_cage.jpg","P_M_bill_clinton.jpg","FALSE","pictures/stimuli/E","pictures/stimuli/P","M","M","2","57acc170c6bab4000172a42e","04/25/2022, 19:39:34","E_M_nicolas_cage.jpg P_M_bill_clinton.jpg",-1.13842834218266,"30","Female","right",1,1,FALSE
4113,"E_F_jennifer_aniston.jpg","P_F_hillary_clinton.jpg","FALSE","pictures/stimuli/E","pictures/stimuli/P","F","F","2","57acc170c6bab4000172a42e","04/25/2022, 19:39:34","E_F_jennifer_aniston.jpg P_F_hillary_clinton.jpg",-1.13842834218266,"30","Female","right",1,1,FALSE
2430,"E_F_jennifer_aniston.jpg","P_M_donald_trump.jpg","FALSE","pictures/stimuli/E","pictures/stimuli/P","F","M","6","57acc170c6bab4000172a42e","04/25/2022, 19:39:34","E_F_jennifer_aniston.jpg P_M_donald_trump.jpg",0.987383795554003,"30","Female","right",1,1,FALSE
4537,"E_F_jennifer_aniston.jpg","P_F_nicola_sturgeon.jpg","FALSE","pictures/stimuli/E","pictures/stimuli/P","F","F","4","57acc170c6bab4000172a42e","04/25/2022, 19:39:34","E_F_jennifer_aniston.jpg P_F_nicola_sturgeon.jpg",-0.0755222733143287,"30","Female","right",1,1,FALSE
3078,"E_F_sandra_bullock.jpg","E_M_tom_hankes.jpg","TRUE","pictures/stimuli/E","pictures/stimuli/E","F","M","5","57acc170c6bab4000172a42e","04/25/2022, 19:39:34","E_F_sandra_bullock.jpg E_M_tom_hankes.jpg",0.455930761119837,"30","Female","right",1,1,FALSE
6808,"E_M_Hugh_Grant.jpg","P_F_tehresy_may.jpg","FALSE","pictures/stimuli/E","pictures/stimuli/P","M","F","5","57acc170c6bab4000172a42e","04/25/2022, 19:39:34","E_M_Hugh_Grant.jpg P_F_tehresy_may.jpg",0.455930761119837,"30","Female","right",1,1,FALSE
3599,"E_M_tom_hankes.jpg","P_F_tehresy_may.jpg","FALSE","pictures/stimuli/E","pictures/stimuli/P","M","F","6","57acc170c6bab4000172a42e","04/25/2022, 19:39:34","E_M_tom_hankes.jpg P_F_tehresy_may.jpg",0.987383795554003,"30","Female","right",1,1,FALSE
3407,"E_F_Kate_Winslet.jpg","P_F_tehresy_may.jpg","FALSE","pictures/stimuli/E","pictures/stimuli/P","F","F","3","57acc170c6bab4000172a42e","04/25/2022, 19:39:34","E_F_Kate_Winslet.jpg P_F_tehresy_may.jpg",-0.606975307748495,"30","Female","right",1,1,FALSE
4419,"E_F_Kate_Winslet.jpg","P_M_Tony_Blair.jpg","FALSE","pictures/stimuli/E","pictures/stimuli/P","F","M","6","57acc170c6bab4000172a42e","04/25/2022, 19:39:34","E_F_Kate_Winslet.jpg P_M_Tony_Blair.jpg",0.987383795554003,"30","Female","right",1,1,FALSE
3221,"P_M_donald_trump.jpg","P_M_george_Wbush.jpg","TRUE","pictures/stimuli/P","pictures/stimuli/P","M","M","1","57acc170c6bab4000172a42e","04/25/2022, 19:39:34","P_M_donald_trump.jpg P_M_george_Wbush.jpg",-1.66988137661683,"30","Female","right",1,1,FALSE
3127,"E_M_michael_caine.jpg","E_M_tom_hankes.jpg","TRUE","pictures/stimuli/E","pictures/stimuli/E","M","M","2","57acc170c6bab4000172a42e","04/25/2022, 19:39:34","E_M_michael_caine.jpg E_M_tom_hankes.jpg",-1.13842834218266,"30","Female","right",1,1,FALSE
3059,"E_F_jennifer_aniston.jpg","P_M_george_Wbush.jpg","FALSE","pictures/stimuli/E","pictures/stimuli/P","F","M","6","57acc170c6bab4000172a42e","04/25/2022, 19:39:34","E_F_jennifer_aniston.jpg P_M_george_Wbush.jpg",0.987383795554003,"30","Female","right",1,1,FALSE
5101,"E_M_nicolas_cage.jpg","E_M_robert_de_niro.jpg","TRUE","pictures/stimuli/E","pictures/stimuli/E","M","M","2","57acc170c6bab4000172a42e","04/25/2022, 19:39:34","E_M_nicolas_cage.jpg E_M_robert_de_niro.jpg",-1.13842834218266,"30","Female","right",1,1,FALSE
2363,"E_F_jennifer_aniston.jpg","E_F_Kate_Winslet.jpg","TRUE","pictures/stimuli/E","pictures/stimuli/E","F","F","2","57acc170c6bab4000172a42e","04/25/2022, 19:39:34","E_F_jennifer_aniston.jpg E_F_Kate_Winslet.jpg",-1.13842834218266,"30","Female","right",1,1,FALSE
3680,"E_M_tom_hankes.jpg","P_M_david_cameron.jpg","FALSE","pictures/stimuli/E","pictures/stimuli/P","M","M","2","57acc170c6bab4000172a42e","04/25/2022, 19:39:34","E_M_tom_hankes.jpg P_M_david_cameron.jpg",-1.13842834218266,"30","Female","right",1,1,FALSE
3288,"E_F_angelina_jolie.jpg","E_F_keira_knightley.jpg","TRUE","pictures/stimuli/E","pictures/stimuli/E","F","F","2","57acc170c6bab4000172a42e","04/25/2022, 19:39:34","E_F_angelina_jolie.jpg E_F_keira_knightley.jpg",-1.13842834218266,"30","Female","right",1,1,FALSE
2979,"E_F_sandra_bullock.jpg","P_F_hillary_clinton.jpg","FALSE","pictures/stimuli/E","pictures/stimuli/P","F","F","3","57acc170c6bab4000172a42e","04/25/2022, 19:39:34","E_F_sandra_bullock.jpg P_F_hillary_clinton.jpg",-0.606975307748495,"30","Female","right",1,1,FALSE
2654,"E_F_Judi_Dench.jpg","P_F_hillary_clinton.jpg","FALSE","pictures/stimuli/E","pictures/stimuli/P","F","F","3","57acc170c6bab4000172a42e","04/25/2022, 19:39:34","E_F_Judi_Dench.jpg P_F_hillary_clinton.jpg",-0.606975307748495,"30","Female","right",1,1,FALSE
2539,"E_F_Kate_Winslet.jpg","E_F_keira_knightley.jpg","TRUE","pictures/stimuli/E","pictures/stimuli/E","F","F","2","57acc170c6bab4000172a42e","04/25/2022, 19:39:34","E_F_Kate_Winslet.jpg E_F_keira_knightley.jpg",-1.13842834218266,"30","Female","right",1,1,FALSE
3472,"E_F_keira_knightley.jpg","E_M_Hugh_Grant.jpg","TRUE","pictures/stimuli/E","pictures/stimuli/E","F","M","6","57acc170c6bab4000172a42e","04/25/2022, 19:39:34","E_F_keira_knightley.jpg E_M_Hugh_Grant.jpg",0.987383795554003,"30","Female","right",1,1,FALSE
2414,"E_F_Kate_Winslet.jpg","P_M_george_Wbush.jpg","FALSE","pictures/stimuli/E","pictures/stimuli/P","F","M","6","57acc170c6bab4000172a42e","04/25/2022, 19:39:34","E_F_Kate_Winslet.jpg P_M_george_Wbush.jpg",0.987383795554003,"30","Female","right",1,1,FALSE
2273,"E_F_sandra_bullock.jpg","P_M_bill_clinton.jpg","FALSE","pictures/stimuli/E","pictures/stimuli/P","F","M","6","57acc170c6bab4000172a42e","04/25/2022, 19:39:34","E_F_sandra_bullock.jpg P_M_bill_clinton.jpg",0.987383795554003,"30","Female","right",1,1,FALSE
2895,"E_F_keira_knightley.jpg","P_F_tehresy_may.jpg","FALSE","pictures/stimuli/E","pictures/stimuli/P","F","F","4","57acc170c6bab4000172a42e","04/25/2022, 19:39:34","E_F_keira_knightley.jpg P_F_tehresy_may.jpg",-0.0755222733143287,"30","Female","right",1,1,FALSE
3651,"E_F_Judi_Dench.jpg","E_M_robert_de_niro.jpg","TRUE","pictures/stimuli/E","pictures/stimuli/E","F","M","5","57acc170c6bab4000172a42e","04/25/2022, 19:39:34","E_F_Judi_Dench.jpg E_M_robert_de_niro.jpg",0.455930761119837,"30","Female","right",1,1,FALSE
4397,"E_F_angelina_jolie.jpg","E_F_sandra_bullock.jpg","TRUE","pictures/stimuli/E","pictures/stimuli/E","F","F","1","57acc170c6bab4000172a42e","04/25/2022, 19:39:34","E_F_angelina_jolie.jpg E_F_sandra_bullock.jpg",-1.66988137661683,"30","Female","right",1,1,FALSE
3046,"E_F_Kate_Winslet.jpg","E_M_Hugh_Grant.jpg","TRUE","pictures/stimuli/E","pictures/stimuli/E","F","M","6","57acc170c6bab4000172a42e","04/25/2022, 19:39:34","E_F_Kate_Winslet.jpg E_M_Hugh_Grant.jpg",0.987383795554003,"30","Female","right",1,1,FALSE
4556,"E_F_angelina_jolie.jpg","P_M_bill_clinton.jpg","FALSE","pictures/stimuli/E","pictures/stimuli/P","F","M","5","57acc170c6bab4000172a42e","04/25/2022, 19:39:34","E_F_angelina_jolie.jpg P_M_bill_clinton.jpg",0.455930761119837,"30","Female","right",1,1,FALSE
4498,"E_M_Hugh_Grant.jpg","P_F_tehresy_may.jpg","FALSE","pictures/stimuli/E","pictures/stimuli/P","M","F","2","57c975a8648ff40001666439","04/25/2022, 19:51:33","E_M_Hugh_Grant.jpg P_F_tehresy_may.jpg",-0.915590861352163,"34","Female","right",1,1,FALSE
5059,"E_M_michael_caine.jpg","E_M_robert_de_niro.jpg","TRUE","pictures/stimuli/E","pictures/stimuli/E","M","M","5","57c975a8648ff40001666439","04/25/2022, 19:51:33","E_M_michael_caine.jpg E_M_robert_de_niro.jpg",0.498736485451991,"34","Female","right",1,1,FALSE
4635,"E_M_nicolas_cage.jpg","P_F_nicola_sturgeon.jpg","FALSE","pictures/stimuli/E","pictures/stimuli/P","M","F","6","57c975a8648ff40001666439","04/25/2022, 19:51:33","E_M_nicolas_cage.jpg P_F_nicola_sturgeon.jpg",0.970178934386709,"34","Female","right",1,1,FALSE
5552,"P_M_bill_clinton.jpg","P_M_boris_johnson.jpg","TRUE","pictures/stimuli/P","pictures/stimuli/P","M","M","3","57c975a8648ff40001666439","04/25/2022, 19:51:33","P_M_bill_clinton.jpg P_M_boris_johnson.jpg",-0.444148412417445,"34","Female","right",1,1,FALSE
4135,"E_M_nicolas_cage.jpg","P_F_hillary_clinton.jpg","FALSE","pictures/stimuli/E","pictures/stimuli/P","M","F","6","57c975a8648ff40001666439","04/25/2022, 19:51:33","E_M_nicolas_cage.jpg P_F_hillary_clinton.jpg",0.970178934386709,"34","Female","right",1,1,FALSE
7740,"E_M_nicolas_cage.jpg","E_M_robert_de_niro.jpg","TRUE","pictures/stimuli/E","pictures/stimuli/E","M","M","1","57c975a8648ff40001666439","04/25/2022, 19:51:33","E_M_nicolas_cage.jpg E_M_robert_de_niro.jpg",-1.38703331028688,"34","Female","right",1,1,FALSE
5253,"E_F_Judi_Dench.jpg","E_F_Kate_Winslet.jpg","TRUE","pictures/stimuli/E","pictures/stimuli/E","F","F","1","57c975a8648ff40001666439","04/25/2022, 19:51:33","E_F_Judi_Dench.jpg E_F_Kate_Winslet.jpg",-1.38703331028688,"34","Female","right",1,1,FALSE
2990,"E_F_sandra_bullock.jpg","P_M_boris_johnson.jpg","FALSE","pictures/stimuli/E","pictures/stimuli/P","F","M","6","57c975a8648ff40001666439","04/25/2022, 19:51:33","E_F_sandra_bullock.jpg P_M_boris_johnson.jpg",0.970178934386709,"34","Female","right",1,1,FALSE
4617,"E_M_michael_caine.jpg","P_M_boris_johnson.jpg","FALSE","pictures/stimuli/E","pictures/stimuli/P","M","M","5","57c975a8648ff40001666439","04/25/2022, 19:51:33","E_M_michael_caine.jpg P_M_boris_johnson.jpg",0.498736485451991,"34","Female","right",1,1,FALSE
6035,"E_M_Hugh_Grant.jpg","P_M_boris_johnson.jpg","FALSE","pictures/stimuli/E","pictures/stimuli/P","M","M","4","57c975a8648ff40001666439","04/25/2022, 19:51:33","E_M_Hugh_Grant.jpg P_M_boris_johnson.jpg",0.0272940365172731,"34","Female","right",1,1,FALSE
3664,"E_F_sandra_bullock.jpg","E_M_michael_caine.jpg","TRUE","pictures/stimuli/E","pictures/stimuli/E","F","M","2","57c975a8648ff40001666439","04/25/2022, 19:51:33","E_F_sandra_bullock.jpg E_M_michael_caine.jpg",-0.915590861352163,"34","Female","right",1,1,FALSE
4887,"E_F_Judi_Dench.jpg","P_M_george_Wbush.jpg","FALSE","pictures/stimuli/E","pictures/stimuli/P","F","M","6","57c975a8648ff40001666439","04/25/2022, 19:51:33","E_F_Judi_Dench.jpg P_M_george_Wbush.jpg",0.970178934386709,"34","Female","right",1,1,FALSE
7048,"P_F_tehresy_may.jpg","P_M_bill_clinton.jpg","TRUE","pictures/stimuli/P","pictures/stimuli/P","F","M","5","57c975a8648ff40001666439","04/25/2022, 19:51:33","P_F_tehresy_may.jpg P_M_bill_clinton.jpg",0.498736485451991,"34","Female","right",1,1,FALSE
3790,"P_F_hillary_clinton.jpg","P_F_tehresy_may.jpg","TRUE","pictures/stimuli/P","pictures/stimuli/P","F","F","2","57c975a8648ff40001666439","04/25/2022, 19:51:33","P_F_hillary_clinton.jpg P_F_tehresy_may.jpg",-0.915590861352163,"34","Female","right",1,1,FALSE
3558,"E_F_keira_knightley.jpg","P_M_Tony_Blair.jpg","FALSE","pictures/stimuli/E","pictures/stimuli/P","F","M","6","57c975a8648ff40001666439","04/25/2022, 19:51:33","E_F_keira_knightley.jpg P_M_Tony_Blair.jpg",0.970178934386709,"34","Female","right",1,1,FALSE
4918,"P_M_bill_clinton.jpg","P_M_donald_trump.jpg","TRUE","pictures/stimuli/P","pictures/stimuli/P","M","M","3","57c975a8648ff40001666439","04/25/2022, 19:51:33","P_M_bill_clinton.jpg P_M_donald_trump.jpg",-0.444148412417445,"34","Female","right",1,1,FALSE
5989,"E_M_robert_de_niro.jpg","E_M_tom_hankes.jpg","TRUE","pictures/stimuli/E","pictures/stimuli/E","M","M","1","57c975a8648ff40001666439","04/25/2022, 19:51:33","E_M_robert_de_niro.jpg E_M_tom_hankes.jpg",-1.38703331028688,"34","Female","right",1,1,FALSE
4339,"P_M_bill_clinton.jpg","P_M_george_Wbush.jpg","TRUE","pictures/stimuli/P","pictures/stimuli/P","M","M","1","57c975a8648ff40001666439","04/25/2022, 19:51:33","P_M_bill_clinton.jpg P_M_george_Wbush.jpg",-1.38703331028688,"34","Female","right",1,1,FALSE
3357,"E_F_jennifer_aniston.jpg","P_M_Tony_Blair.jpg","FALSE","pictures/stimuli/E","pictures/stimuli/P","F","M","6","57c975a8648ff40001666439","04/25/2022, 19:51:33","E_F_jennifer_aniston.jpg P_M_Tony_Blair.jpg",0.970178934386709,"34","Female","right",1,1,FALSE
3347,"E_F_Kate_Winslet.jpg","E_M_Hugh_Grant.jpg","TRUE","pictures/stimuli/E","pictures/stimuli/E","F","M","2","57c975a8648ff40001666439","04/25/2022, 19:51:33","E_F_Kate_Winslet.jpg E_M_Hugh_Grant.jpg",-0.915590861352163,"34","Female","right",1,1,FALSE
4282,"P_M_boris_johnson.jpg","P_M_david_cameron.jpg","TRUE","pictures/stimuli/P","pictures/stimuli/P","M","M","1","57c975a8648ff40001666439","04/25/2022, 19:51:33","P_M_boris_johnson.jpg P_M_david_cameron.jpg",-1.38703331028688,"34","Female","right",1,1,FALSE
4532,"E_F_jennifer_aniston.jpg","P_F_nicola_sturgeon.jpg","FALSE","pictures/stimuli/E","pictures/stimuli/P","F","F","6","57c975a8648ff40001666439","04/25/2022, 19:51:33","E_F_jennifer_aniston.jpg P_F_nicola_sturgeon.jpg",0.970178934386709,"34","Female","right",1,1,FALSE
3635,"P_M_george_Wbush.jpg","P_M_Tony_Blair.jpg","TRUE","pictures/stimuli/P","pictures/stimuli/P","M","M","3","57c975a8648ff40001666439","04/25/2022, 19:51:33","P_M_george_Wbush.jpg P_M_Tony_Blair.jpg",-0.444148412417445,"34","Female","right",1,1,FALSE
2873,"E_F_sandra_bullock.jpg","P_F_nicola_sturgeon.jpg","FALSE","pictures/stimuli/E","pictures/stimuli/P","F","F","6","57c975a8648ff40001666439","04/25/2022, 19:51:33","E_F_sandra_bullock.jpg P_F_nicola_sturgeon.jpg",0.970178934386709,"34","Female","right",1,1,FALSE
3356,"E_F_jennifer_aniston.jpg","E_M_tom_hankes.jpg","TRUE","pictures/stimuli/E","pictures/stimuli/E","F","M","2","57c975a8648ff40001666439","04/25/2022, 19:51:33","E_F_jennifer_aniston.jpg E_M_tom_hankes.jpg",-0.915590861352163,"34","Female","right",1,1,FALSE
3829,"E_F_Judi_Dench.jpg","E_M_nicolas_cage.jpg","TRUE","pictures/stimuli/E","pictures/stimuli/E","F","M","5","57c975a8648ff40001666439","04/25/2022, 19:51:33","E_F_Judi_Dench.jpg E_M_nicolas_cage.jpg",0.498736485451991,"34","Female","right",1,1,FALSE
8185,"E_F_angelina_jolie.jpg","E_M_michael_caine.jpg","TRUE","pictures/stimuli/E","pictures/stimuli/E","F","M","2","57c975a8648ff40001666439","04/25/2022, 19:51:33","E_F_angelina_jolie.jpg E_M_michael_caine.jpg",-0.915590861352163,"34","Female","right",1,1,FALSE
6605,"E_F_jennifer_aniston.jpg","E_F_keira_knightley.jpg","TRUE","pictures/stimuli/E","pictures/stimuli/E","F","F","1","57c975a8648ff40001666439","04/25/2022, 19:51:33","E_F_jennifer_aniston.jpg E_F_keira_knightley.jpg",-1.38703331028688,"34","Female","right",1,1,FALSE
7568,"E_F_Judi_Dench.jpg","E_M_tom_hankes.jpg","TRUE","pictures/stimuli/E","pictures/stimuli/E","F","M","4","57c975a8648ff40001666439","04/25/2022, 19:51:33","E_F_Judi_Dench.jpg E_M_tom_hankes.jpg",0.0272940365172731,"34","Female","right",1,1,FALSE
5736,"E_F_Kate_Winslet.jpg","P_M_donald_trump.jpg","FALSE","pictures/stimuli/E","pictures/stimuli/P","F","M","6","57c975a8648ff40001666439","04/25/2022, 19:51:33","E_F_Kate_Winslet.jpg P_M_donald_trump.jpg",0.970178934386709,"34","Female","right",1,1,FALSE
20664,"E_F_Kate_Winslet.jpg","P_M_boris_johnson.jpg","FALSE","pictures/stimuli/E","pictures/stimuli/P","F","M","6","57c975a8648ff40001666439","04/25/2022, 19:51:33","E_F_Kate_Winslet.jpg P_M_boris_johnson.jpg",0.970178934386709,"34","Female","right",1,1,FALSE
6062,"P_F_nicola_sturgeon.jpg","P_M_boris_johnson.jpg","TRUE","pictures/stimuli/P","pictures/stimuli/P","F","M","5","57c975a8648ff40001666439","04/25/2022, 19:51:33","P_F_nicola_sturgeon.jpg P_M_boris_johnson.jpg",0.498736485451991,"34","Female","right",1,1,FALSE
32206,"E_F_Judi_Dench.jpg","P_F_nicola_sturgeon.jpg","FALSE","pictures/stimuli/E","pictures/stimuli/P","F","F","6","57c975a8648ff40001666439","04/25/2022, 19:51:33","E_F_Judi_Dench.jpg P_F_nicola_sturgeon.jpg",0.970178934386709,"34","Female","right",1,1,TRUE
5762,"E_F_Kate_Winslet.jpg","E_M_michael_caine.jpg","TRUE","pictures/stimuli/E","pictures/stimuli/E","F","M","2","57c975a8648ff40001666439","04/25/2022, 19:51:33","E_F_Kate_Winslet.jpg E_M_michael_caine.jpg",-0.915590861352163,"34","Female","right",1,1,FALSE
10998,"E_F_Kate_Winslet.jpg","E_F_sandra_bullock.jpg","TRUE","pictures/stimuli/E","pictures/stimuli/E","F","F","2","57c975a8648ff40001666439","04/25/2022, 19:51:33","E_F_Kate_Winslet.jpg E_F_sandra_bullock.jpg",-0.915590861352163,"34","Female","right",1,1,FALSE
9696,"E_M_Hugh_Grant.jpg","P_M_Tony_Blair.jpg","FALSE","pictures/stimuli/E","pictures/stimuli/P","M","M","2","57c975a8648ff40001666439","04/25/2022, 19:51:33","E_M_Hugh_Grant.jpg P_M_Tony_Blair.jpg",-0.915590861352163,"34","Female","right",1,1,FALSE
6603,"E_M_nicolas_cage.jpg","P_M_david_cameron.jpg","FALSE","pictures/stimuli/E","pictures/stimuli/P","M","M","6","57c975a8648ff40001666439","04/25/2022, 19:51:33","E_M_nicolas_cage.jpg P_M_david_cameron.jpg",0.970178934386709,"34","Female","right",1,1,FALSE
8116,"P_F_hillary_clinton.jpg","P_M_boris_johnson.jpg","TRUE","pictures/stimuli/P","pictures/stimuli/P","F","M","4","57c975a8648ff40001666439","04/25/2022, 19:51:33","P_F_hillary_clinton.jpg P_M_boris_johnson.jpg",0.0272940365172731,"34","Female","right",1,1,FALSE
5878,"E_M_Hugh_Grant.jpg","E_M_nicolas_cage.jpg","TRUE","pictures/stimuli/E","pictures/stimuli/E","M","M","2","57c975a8648ff40001666439","04/25/2022, 19:51:33","E_M_Hugh_Grant.jpg E_M_nicolas_cage.jpg",-0.915590861352163,"34","Female","right",1,1,FALSE
3616,"E_F_angelina_jolie.jpg","E_F_Judi_Dench.jpg","TRUE","pictures/stimuli/E","pictures/stimuli/E","F","F","2","57c975a8648ff40001666439","04/25/2022, 19:51:33","E_F_angelina_jolie.jpg E_F_Judi_Dench.jpg",-0.915590861352163,"34","Female","right",1,1,FALSE
3759,"E_F_jennifer_aniston.jpg","E_F_sandra_bullock.jpg","TRUE","pictures/stimuli/E","pictures/stimuli/E","F","F","1","57c975a8648ff40001666439","04/25/2022, 19:51:33","E_F_jennifer_aniston.jpg E_F_sandra_bullock.jpg",-1.38703331028688,"34","Female","right",1,1,FALSE
5235,"E_M_michael_caine.jpg","P_M_donald_trump.jpg","FALSE","pictures/stimuli/E","pictures/stimuli/P","M","M","6","57c975a8648ff40001666439","04/25/2022, 19:51:33","E_M_michael_caine.jpg P_M_donald_trump.jpg",0.970178934386709,"34","Female","right",1,1,FALSE
11545,"E_M_tom_hankes.jpg","P_F_nicola_sturgeon.jpg","FALSE","pictures/stimuli/E","pictures/stimuli/P","M","F","6","57c975a8648ff40001666439","04/25/2022, 19:51:33","E_M_tom_hankes.jpg P_F_nicola_sturgeon.jpg",0.970178934386709,"34","Female","right",1,1,FALSE
5658,"E_F_Kate_Winslet.jpg","P_F_tehresy_may.jpg","FALSE","pictures/stimuli/E","pictures/stimuli/P","F","F","5","57c975a8648ff40001666439","04/25/2022, 19:51:33","E_F_Kate_Winslet.jpg P_F_tehresy_may.jpg",0.498736485451991,"34","Female","right",1,1,FALSE
10552,"E_F_Judi_Dench.jpg","P_F_hillary_clinton.jpg","FALSE","pictures/stimuli/E","pictures/stimuli/P","F","F","6","57c975a8648ff40001666439","04/25/2022, 19:51:33","E_F_Judi_Dench.jpg P_F_hillary_clinton.jpg",0.970178934386709,"34","Female","right",1,1,FALSE
18385,"P_F_nicola_sturgeon.jpg","P_M_bill_clinton.jpg","TRUE","pictures/stimuli/P","pictures/stimuli/P","F","M","3","57c975a8648ff40001666439","04/25/2022, 19:51:33","P_F_nicola_sturgeon.jpg P_M_bill_clinton.jpg",-0.444148412417445,"34","Female","right",1,1,FALSE
6110,"E_F_jennifer_aniston.jpg","E_M_robert_de_niro.jpg","TRUE","pictures/stimuli/E","pictures/stimuli/E","F","M","2","57c975a8648ff40001666439","04/25/2022, 19:51:33","E_F_jennifer_aniston.jpg E_M_robert_de_niro.jpg",-0.915590861352163,"34","Female","right",1,1,FALSE
4098,"E_F_keira_knightley.jpg","P_M_donald_trump.jpg","FALSE","pictures/stimuli/E","pictures/stimuli/P","F","M","6","57c975a8648ff40001666439","04/25/2022, 19:51:33","E_F_keira_knightley.jpg P_M_donald_trump.jpg",0.970178934386709,"34","Female","right",1,1,FALSE
2930,"E_F_angelina_jolie.jpg","E_M_tom_hankes.jpg","TRUE","pictures/stimuli/E","pictures/stimuli/E","F","M","1","57c975a8648ff40001666439","04/25/2022, 19:51:33","E_F_angelina_jolie.jpg E_M_tom_hankes.jpg",-1.38703331028688,"34","Female","right",1,1,FALSE
18078,"E_M_michael_caine.jpg","P_M_bill_clinton.jpg","FALSE","pictures/stimuli/E","pictures/stimuli/P","M","M","6","57c975a8648ff40001666439","04/25/2022, 19:51:33","E_M_michael_caine.jpg P_M_bill_clinton.jpg",0.970178934386709,"34","Female","right",1,1,FALSE
5253,"E_F_Judi_Dench.jpg","P_M_boris_johnson.jpg","FALSE","pictures/stimuli/E","pictures/stimuli/P","F","M","6","57c975a8648ff40001666439","04/25/2022, 19:51:33","E_F_Judi_Dench.jpg P_M_boris_johnson.jpg",0.970178934386709,"34","Female","right",1,1,FALSE
3441,"E_F_sandra_bullock.jpg","E_M_robert_de_niro.jpg","TRUE","pictures/stimuli/E","pictures/stimuli/E","F","M","1","57c975a8648ff40001666439","04/25/2022, 19:51:33","E_F_sandra_bullock.jpg E_M_robert_de_niro.jpg",-1.38703331028688,"34","Female","right",1,1,FALSE
3401,"E_F_sandra_bullock.jpg","P_M_Tony_Blair.jpg","FALSE","pictures/stimuli/E","pictures/stimuli/P","F","M","6","57c975a8648ff40001666439","04/25/2022, 19:51:33","E_F_sandra_bullock.jpg P_M_Tony_Blair.jpg",0.970178934386709,"34","Female","right",1,1,FALSE
4018,"E_F_angelina_jolie.jpg","P_M_george_Wbush.jpg","FALSE","pictures/stimuli/E","pictures/stimuli/P","F","M","6","57c975a8648ff40001666439","04/25/2022, 19:51:33","E_F_angelina_jolie.jpg P_M_george_Wbush.jpg",0.970178934386709,"34","Female","right",1,1,FALSE
3856,"E_F_keira_knightley.jpg","E_M_robert_de_niro.jpg","TRUE","pictures/stimuli/E","pictures/stimuli/E","F","M","2","57c975a8648ff40001666439","04/25/2022, 19:51:33","E_F_keira_knightley.jpg E_M_robert_de_niro.jpg",-0.915590861352163,"34","Female","right",1,1,FALSE
3857,"E_M_tom_hankes.jpg","P_F_tehresy_may.jpg","FALSE","pictures/stimuli/E","pictures/stimuli/P","M","F","6","57c975a8648ff40001666439","04/25/2022, 19:51:33","E_M_tom_hankes.jpg P_F_tehresy_may.jpg",0.970178934386709,"34","Female","right",1,1,FALSE
4925,"E_F_Kate_Winslet.jpg","P_F_hillary_clinton.jpg","FALSE","pictures/stimuli/E","pictures/stimuli/P","F","F","6","57c975a8648ff40001666439","04/25/2022, 19:51:33","E_F_Kate_Winslet.jpg P_F_hillary_clinton.jpg",0.970178934386709,"34","Female","right",1,1,FALSE
4454,"E_F_Judi_Dench.jpg","P_F_tehresy_may.jpg","FALSE","pictures/stimuli/E","pictures/stimuli/P","F","F","4","57c975a8648ff40001666439","04/25/2022, 19:51:33","E_F_Judi_Dench.jpg P_F_tehresy_may.jpg",0.0272940365172731,"34","Female","right",1,1,FALSE
5822,"E_M_tom_hankes.jpg","P_F_hillary_clinton.jpg","FALSE","pictures/stimuli/E","pictures/stimuli/P","M","F","5","57c975a8648ff40001666439","04/25/2022, 19:51:33","E_M_tom_hankes.jpg P_F_hillary_clinton.jpg",0.498736485451991,"34","Female","right",1,1,FALSE
4406,"E_F_Judi_Dench.jpg","P_M_Tony_Blair.jpg","FALSE","pictures/stimuli/E","pictures/stimuli/P","F","M","5","57c975a8648ff40001666439","04/25/2022, 19:51:33","E_F_Judi_Dench.jpg P_M_Tony_Blair.jpg",0.498736485451991,"34","Female","right",1,1,FALSE
3221,"P_F_nicola_sturgeon.jpg","P_M_Tony_Blair.jpg","TRUE","pictures/stimuli/P","pictures/stimuli/P","F","M","2","57c975a8648ff40001666439","04/25/2022, 19:51:33","P_F_nicola_sturgeon.jpg P_M_Tony_Blair.jpg",-0.915590861352163,"34","Female","right",1,1,FALSE
4444,"E_M_nicolas_cage.jpg","P_M_donald_trump.jpg","FALSE","pictures/stimuli/E","pictures/stimuli/P","M","M","6","57c975a8648ff40001666439","04/25/2022, 19:51:33","E_M_nicolas_cage.jpg P_M_donald_trump.jpg",0.970178934386709,"34","Female","right",1,1,FALSE
3617,"E_M_robert_de_niro.jpg","P_M_bill_clinton.jpg","FALSE","pictures/stimuli/E","pictures/stimuli/P","M","M","6","57c975a8648ff40001666439","04/25/2022, 19:51:33","E_M_robert_de_niro.jpg P_M_bill_clinton.jpg",0.970178934386709,"34","Female","right",1,1,FALSE
3116,"E_M_michael_caine.jpg","P_F_hillary_clinton.jpg","FALSE","pictures/stimuli/E","pictures/stimuli/P","M","F","6","57c975a8648ff40001666439","04/25/2022, 19:51:33","E_M_michael_caine.jpg P_F_hillary_clinton.jpg",0.970178934386709,"34","Female","right",1,1,FALSE
11549,"E_M_tom_hankes.jpg","P_M_david_cameron.jpg","FALSE","pictures/stimuli/E","pictures/stimuli/P","M","M","6","57c975a8648ff40001666439","04/25/2022, 19:51:33","E_M_tom_hankes.jpg P_M_david_cameron.jpg",0.970178934386709,"34","Female","right",1,1,FALSE
8551,"E_F_angelina_jolie.jpg","E_F_keira_knightley.jpg","TRUE","pictures/stimuli/E","pictures/stimuli/E","F","F","2","57c975a8648ff40001666439","04/25/2022, 19:51:33","E_F_angelina_jolie.jpg E_F_keira_knightley.jpg",-0.915590861352163,"34","Female","right",1,1,FALSE
26465,"E_F_Judi_Dench.jpg","P_M_donald_trump.jpg","FALSE","pictures/stimuli/E","pictures/stimuli/P","F","M","6","57c975a8648ff40001666439","04/25/2022, 19:51:33","E_F_Judi_Dench.jpg P_M_donald_trump.jpg",0.970178934386709,"34","Female","right",1,1,FALSE
7373,"E_M_robert_de_niro.jpg","P_F_tehresy_may.jpg","FALSE","pictures/stimuli/E","pictures/stimuli/P","M","F","6","57c975a8648ff40001666439","04/25/2022, 19:51:33","E_M_robert_de_niro.jpg P_F_tehresy_may.jpg",0.970178934386709,"34","Female","right",1,1,FALSE
5938,"E_M_nicolas_cage.jpg","P_M_boris_johnson.jpg","FALSE","pictures/stimuli/E","pictures/stimuli/P","M","M","6","57c975a8648ff40001666439","04/25/2022, 19:51:33","E_M_nicolas_cage.jpg P_M_boris_johnson.jpg",0.970178934386709,"34","Female","right",1,1,FALSE
3394,"E_M_tom_hankes.jpg","P_M_bill_clinton.jpg","FALSE","pictures/stimuli/E","pictures/stimuli/P","M","M","5","57c975a8648ff40001666439","04/25/2022, 19:51:33","E_M_tom_hankes.jpg P_M_bill_clinton.jpg",0.498736485451991,"34","Female","right",1,1,FALSE
7798,"P_F_nicola_sturgeon.jpg","P_F_tehresy_may.jpg","TRUE","pictures/stimuli/P","pictures/stimuli/P","F","F","1","57c975a8648ff40001666439","04/25/2022, 19:51:33","P_F_nicola_sturgeon.jpg P_F_tehresy_may.jpg",-1.38703331028688,"34","Female","right",1,1,FALSE
4521,"E_M_Hugh_Grant.jpg","P_M_david_cameron.jpg","FALSE","pictures/stimuli/E","pictures/stimuli/P","M","M","3","57c975a8648ff40001666439","04/25/2022, 19:51:33","E_M_Hugh_Grant.jpg P_M_david_cameron.jpg",-0.444148412417445,"34","Female","right",1,1,FALSE
3761,"P_M_bill_clinton.jpg","P_M_Tony_Blair.jpg","TRUE","pictures/stimuli/P","pictures/stimuli/P","M","M","2","57c975a8648ff40001666439","04/25/2022, 19:51:33","P_M_bill_clinton.jpg P_M_Tony_Blair.jpg",-0.915590861352163,"34","Female","right",1,1,FALSE
10748,"E_F_Kate_Winslet.jpg","E_M_nicolas_cage.jpg","TRUE","pictures/stimuli/E","pictures/stimuli/E","F","M","3","57c975a8648ff40001666439","04/25/2022, 19:51:33","E_F_Kate_Winslet.jpg E_M_nicolas_cage.jpg",-0.444148412417445,"34","Female","right",1,1,FALSE
3589,"P_F_nicola_sturgeon.jpg","P_M_donald_trump.jpg","TRUE","pictures/stimuli/P","pictures/stimuli/P","F","M","5","57c975a8648ff40001666439","04/25/2022, 19:51:33","P_F_nicola_sturgeon.jpg P_M_donald_trump.jpg",0.498736485451991,"34","Female","right",1,1,FALSE
18032,"E_F_keira_knightley.jpg","P_F_tehresy_may.jpg","FALSE","pictures/stimuli/E","pictures/stimuli/P","F","F","6","57c975a8648ff40001666439","04/25/2022, 19:51:33","E_F_keira_knightley.jpg P_F_tehresy_may.jpg",0.970178934386709,"34","Female","right",1,1,FALSE
3932,"E_F_Kate_Winslet.jpg","P_M_Tony_Blair.jpg","FALSE","pictures/stimuli/E","pictures/stimuli/P","F","M","5","57c975a8648ff40001666439","04/25/2022, 19:51:33","E_F_Kate_Winslet.jpg P_M_Tony_Blair.jpg",0.498736485451991,"34","Female","right",1,1,FALSE
47677,"E_M_michael_caine.jpg","P_F_tehresy_may.jpg","FALSE","pictures/stimuli/E","pictures/stimuli/P","M","F","5","57c975a8648ff40001666439","04/25/2022, 19:51:33","E_M_michael_caine.jpg P_F_tehresy_may.jpg",0.498736485451991,"34","Female","right",1,1,TRUE
3895,"E_M_michael_caine.jpg","E_M_nicolas_cage.jpg","TRUE","pictures/stimuli/E","pictures/stimuli/E","M","M","2","57c975a8648ff40001666439","04/25/2022, 19:51:33","E_M_michael_caine.jpg E_M_nicolas_cage.jpg",-0.915590861352163,"34","Female","right",1,1,FALSE
16702,"E_M_tom_hankes.jpg","P_M_boris_johnson.jpg","FALSE","pictures/stimuli/E","pictures/stimuli/P","M","M","6","57c975a8648ff40001666439","04/25/2022, 19:51:33","E_M_tom_hankes.jpg P_M_boris_johnson.jpg",0.970178934386709,"34","Female","right",1,1,FALSE
3407,"E_M_Hugh_Grant.jpg","E_M_robert_de_niro.jpg","TRUE","pictures/stimuli/E","pictures/stimuli/E","M","M","2","57c975a8648ff40001666439","04/25/2022, 19:51:33","E_M_Hugh_Grant.jpg E_M_robert_de_niro.jpg",-0.915590861352163,"34","Female","right",1,1,FALSE
3681,"E_F_sandra_bullock.jpg","P_M_george_Wbush.jpg","FALSE","pictures/stimuli/E","pictures/stimuli/P","F","M","6","57c975a8648ff40001666439","04/25/2022, 19:51:33","E_F_sandra_bullock.jpg P_M_george_Wbush.jpg",0.970178934386709,"34","Female","right",1,1,FALSE
4394,"P_M_boris_johnson.jpg","P_M_donald_trump.jpg","TRUE","pictures/stimuli/P","pictures/stimuli/P","M","M","2","57c975a8648ff40001666439","04/25/2022, 19:51:33","P_M_boris_johnson.jpg P_M_donald_trump.jpg",-0.915590861352163,"34","Female","right",1,1,FALSE
3951,"P_F_tehresy_may.jpg","P_M_boris_johnson.jpg","TRUE","pictures/stimuli/P","pictures/stimuli/P","F","M","1","57c975a8648ff40001666439","04/25/2022, 19:51:33","P_F_tehresy_may.jpg P_M_boris_johnson.jpg",-1.38703331028688,"34","Female","right",1,1,FALSE
2517,"E_F_keira_knightley.jpg","E_F_sandra_bullock.jpg","TRUE","pictures/stimuli/E","pictures/stimuli/E","F","F","1","57c975a8648ff40001666439","04/25/2022, 19:51:33","E_F_keira_knightley.jpg E_F_sandra_bullock.jpg",-1.38703331028688,"34","Female","right",1,1,FALSE
3644,"E_M_Hugh_Grant.jpg","P_M_donald_trump.jpg","FALSE","pictures/stimuli/E","pictures/stimuli/P","M","M","6","57c975a8648ff40001666439","04/25/2022, 19:51:33","E_M_Hugh_Grant.jpg P_M_donald_trump.jpg",0.970178934386709,"34","Female","right",1,1,FALSE
3499,"P_F_tehresy_may.jpg","P_M_david_cameron.jpg","TRUE","pictures/stimuli/P","pictures/stimuli/P","F","M","1","57c975a8648ff40001666439","04/25/2022, 19:51:33","P_F_tehresy_may.jpg P_M_david_cameron.jpg",-1.38703331028688,"34","Female","right",1,1,FALSE
2843,"E_F_Kate_Winslet.jpg","P_F_nicola_sturgeon.jpg","FALSE","pictures/stimuli/E","pictures/stimuli/P","F","F","6","57c975a8648ff40001666439","04/25/2022, 19:51:33","E_F_Kate_Winslet.jpg P_F_nicola_sturgeon.jpg",0.970178934386709,"34","Female","right",1,1,FALSE
5658,"E_M_Hugh_Grant.jpg","P_M_bill_clinton.jpg","FALSE","pictures/stimuli/E","pictures/stimuli/P","M","M","6","57c975a8648ff40001666439","04/25/2022, 19:51:33","E_M_Hugh_Grant.jpg P_M_bill_clinton.jpg",0.970178934386709,"34","Female","right",1,1,FALSE
6834,"P_F_tehresy_may.jpg","P_M_george_Wbush.jpg","TRUE","pictures/stimuli/P","pictures/stimuli/P","F","M","3","57c975a8648ff40001666439","04/25/2022, 19:51:33","P_F_tehresy_may.jpg P_M_george_Wbush.jpg",-0.444148412417445,"34","Female","right",1,1,FALSE
3326,"E_F_keira_knightley.jpg","P_M_bill_clinton.jpg","FALSE","pictures/stimuli/E","pictures/stimuli/P","F","M","6","57c975a8648ff40001666439","04/25/2022, 19:51:33","E_F_keira_knightley.jpg P_M_bill_clinton.jpg",0.970178934386709,"34","Female","right",1,1,FALSE
2537,"E_F_keira_knightley.jpg","P_M_david_cameron.jpg","FALSE","pictures/stimuli/E","pictures/stimuli/P","F","M","6","57c975a8648ff40001666439","04/25/2022, 19:51:33","E_F_keira_knightley.jpg P_M_david_cameron.jpg",0.970178934386709,"34","Female","right",1,1,FALSE
5427,"P_M_donald_trump.jpg","P_M_george_Wbush.jpg","TRUE","pictures/stimuli/P","pictures/stimuli/P","M","M","3","57c975a8648ff40001666439","04/25/2022, 19:51:33","P_M_donald_trump.jpg P_M_george_Wbush.jpg",-0.444148412417445,"34","Female","right",1,1,FALSE
3877,"E_M_michael_caine.jpg","E_M_tom_hankes.jpg","TRUE","pictures/stimuli/E","pictures/stimuli/E","M","M","2","57c975a8648ff40001666439","04/25/2022, 19:51:33","E_M_michael_caine.jpg E_M_tom_hankes.jpg",-0.915590861352163,"34","Female","right",1,1,FALSE
2970,"E_F_Kate_Winslet.jpg","P_M_david_cameron.jpg","FALSE","pictures/stimuli/E","pictures/stimuli/P","F","M","6","57c975a8648ff40001666439","04/25/2022, 19:51:33","E_F_Kate_Winslet.jpg P_M_david_cameron.jpg",0.970178934386709,"34","Female","right",1,1,FALSE
3722,"E_F_Kate_Winslet.jpg","E_F_keira_knightley.jpg","TRUE","pictures/stimuli/E","pictures/stimuli/E","F","F","1","57c975a8648ff40001666439","04/25/2022, 19:51:33","E_F_Kate_Winslet.jpg E_F_keira_knightley.jpg",-1.38703331028688,"34","Female","right",1,1,FALSE
3814,"E_F_keira_knightley.jpg","P_F_hillary_clinton.jpg","FALSE","pictures/stimuli/E","pictures/stimuli/P","F","F","6","57c975a8648ff40001666439","04/25/2022, 19:51:33","E_F_keira_knightley.jpg P_F_hillary_clinton.jpg",0.970178934386709,"34","Female","right",1,1,FALSE
4213,"E_F_jennifer_aniston.jpg","P_F_tehresy_may.jpg","FALSE","pictures/stimuli/E","pictures/stimuli/P","F","F","6","57c975a8648ff40001666439","04/25/2022, 19:51:33","E_F_jennifer_aniston.jpg P_F_tehresy_may.jpg",0.970178934386709,"34","Female","right",1,1,FALSE
2738,"E_M_robert_de_niro.jpg","P_F_hillary_clinton.jpg","FALSE","pictures/stimuli/E","pictures/stimuli/P","M","F","6","57c975a8648ff40001666439","04/25/2022, 19:51:33","E_M_robert_de_niro.jpg P_F_hillary_clinton.jpg",0.970178934386709,"34","Female","right",1,1,FALSE
3885,"E_M_michael_caine.jpg","P_M_Tony_Blair.jpg","FALSE","pictures/stimuli/E","pictures/stimuli/P","M","M","5","57c975a8648ff40001666439","04/25/2022, 19:51:33","E_M_michael_caine.jpg P_M_Tony_Blair.jpg",0.498736485451991,"34","Female","right",1,1,FALSE
3403,"E_F_sandra_bullock.jpg","P_F_hillary_clinton.jpg","FALSE","pictures/stimuli/E","pictures/stimuli/P","F","F","5","57c975a8648ff40001666439","04/25/2022, 19:51:33","E_F_sandra_bullock.jpg P_F_hillary_clinton.jpg",0.498736485451991,"34","Female","right",1,1,FALSE
3875,"E_F_angelina_jolie.jpg","P_F_hillary_clinton.jpg","FALSE","pictures/stimuli/E","pictures/stimuli/P","F","F","6","57c975a8648ff40001666439","04/25/2022, 19:51:33","E_F_angelina_jolie.jpg P_F_hillary_clinton.jpg",0.970178934386709,"34","Female","right",1,1,FALSE
6149,"P_M_boris_johnson.jpg","P_M_george_Wbush.jpg","TRUE","pictures/stimuli/P","pictures/stimuli/P","M","M","2","57c975a8648ff40001666439","04/25/2022, 19:51:33","P_M_boris_johnson.jpg P_M_george_Wbush.jpg",-0.915590861352163,"34","Female","right",1,1,FALSE
156657,"E_F_jennifer_aniston.jpg","E_M_Hugh_Grant.jpg","TRUE","pictures/stimuli/E","pictures/stimuli/E","F","M","2","57c975a8648ff40001666439","04/25/2022, 19:51:33","E_F_jennifer_aniston.jpg E_M_Hugh_Grant.jpg",-0.915590861352163,"34","Female","right",1,1,TRUE
2919,"E_F_Judi_Dench.jpg","E_M_michael_caine.jpg","TRUE","pictures/stimuli/E","pictures/stimuli/E","F","M","1","57c975a8648ff40001666439","04/25/2022, 19:51:33","E_F_Judi_Dench.jpg E_M_michael_caine.jpg",-1.38703331028688,"34","Female","right",1,1,FALSE
2679,"E_F_sandra_bullock.jpg","P_M_donald_trump.jpg","FALSE","pictures/stimuli/E","pictures/stimuli/P","F","M","6","57c975a8648ff40001666439","04/25/2022, 19:51:33","E_F_sandra_bullock.jpg P_M_donald_trump.jpg",0.970178934386709,"34","Female","right",1,1,FALSE
3565,"E_F_jennifer_aniston.jpg","P_F_hillary_clinton.jpg","FALSE","pictures/stimuli/E","pictures/stimuli/P","F","F","6","57c975a8648ff40001666439","04/25/2022, 19:51:33","E_F_jennifer_aniston.jpg P_F_hillary_clinton.jpg",0.970178934386709,"34","Female","right",1,1,FALSE
6379,"E_M_michael_caine.jpg","P_F_nicola_sturgeon.jpg","FALSE","pictures/stimuli/E","pictures/stimuli/P","M","F","6","57c975a8648ff40001666439","04/25/2022, 19:51:33","E_M_michael_caine.jpg P_F_nicola_sturgeon.jpg",0.970178934386709,"34","Female","right",1,1,FALSE
2901,"E_M_robert_de_niro.jpg","P_M_david_cameron.jpg","FALSE","pictures/stimuli/E","pictures/stimuli/P","M","M","6","57c975a8648ff40001666439","04/25/2022, 19:51:33","E_M_robert_de_niro.jpg P_M_david_cameron.jpg",0.970178934386709,"34","Female","right",1,1,FALSE
3268,"E_F_angelina_jolie.jpg","P_M_donald_trump.jpg","FALSE","pictures/stimuli/E","pictures/stimuli/P","F","M","6","57c975a8648ff40001666439","04/25/2022, 19:51:33","E_F_angelina_jolie.jpg P_M_donald_trump.jpg",0.970178934386709,"34","Female","right",1,1,FALSE
8576,"E_M_nicolas_cage.jpg","P_M_bill_clinton.jpg","FALSE","pictures/stimuli/E","pictures/stimuli/P","M","M","6","57c975a8648ff40001666439","04/25/2022, 19:51:33","E_M_nicolas_cage.jpg P_M_bill_clinton.jpg",0.970178934386709,"34","Female","right",1,1,FALSE
9858,"E_M_Hugh_Grant.jpg","E_M_michael_caine.jpg","TRUE","pictures/stimuli/E","pictures/stimuli/E","M","M","3","57c975a8648ff40001666439","04/25/2022, 19:51:33","E_M_Hugh_Grant.jpg E_M_michael_caine.jpg",-0.444148412417445,"34","Female","right",1,1,FALSE
94685,"E_M_nicolas_cage.jpg","E_M_tom_hankes.jpg","TRUE","pictures/stimuli/E","pictures/stimuli/E","M","M","1","57c975a8648ff40001666439","04/25/2022, 19:51:33","E_M_nicolas_cage.jpg E_M_tom_hankes.jpg",-1.38703331028688,"34","Female","right",1,1,TRUE
9101,"E_F_jennifer_aniston.jpg","E_M_michael_caine.jpg","TRUE","pictures/stimuli/E","pictures/stimuli/E","F","M","3","57c975a8648ff40001666439","04/25/2022, 19:51:33","E_F_jennifer_aniston.jpg E_M_michael_caine.jpg",-0.444148412417445,"34","Female","right",1,1,FALSE
3797,"E_M_nicolas_cage.jpg","P_M_george_Wbush.jpg","FALSE","pictures/stimuli/E","pictures/stimuli/P","M","M","6","57c975a8648ff40001666439","04/25/2022, 19:51:33","E_M_nicolas_cage.jpg P_M_george_Wbush.jpg",0.970178934386709,"34","Female","right",1,1,FALSE
6070,"E_F_Judi_Dench.jpg","E_M_robert_de_niro.jpg","TRUE","pictures/stimuli/E","pictures/stimuli/E","F","M","5","57c975a8648ff40001666439","04/25/2022, 19:51:33","E_F_Judi_Dench.jpg E_M_robert_de_niro.jpg",0.498736485451991,"34","Female","right",1,1,FALSE
3893,"E_F_sandra_bullock.jpg","P_M_bill_clinton.jpg","FALSE","pictures/stimuli/E","pictures/stimuli/P","F","M","5","57c975a8648ff40001666439","04/25/2022, 19:51:33","E_F_sandra_bullock.jpg P_M_bill_clinton.jpg",0.498736485451991,"34","Female","right",1,1,FALSE
3691,"E_F_angelina_jolie.jpg","E_M_robert_de_niro.jpg","TRUE","pictures/stimuli/E","pictures/stimuli/E","F","M","1","57c975a8648ff40001666439","04/25/2022, 19:51:33","E_F_angelina_jolie.jpg E_M_robert_de_niro.jpg",-1.38703331028688,"34","Female","right",1,1,FALSE
2495,"P_M_david_cameron.jpg","P_M_Tony_Blair.jpg","TRUE","pictures/stimuli/P","pictures/stimuli/P","M","M","1","57c975a8648ff40001666439","04/25/2022, 19:51:33","P_M_david_cameron.jpg P_M_Tony_Blair.jpg",-1.38703331028688,"34","Female","right",1,1,FALSE
4416,"P_F_tehresy_may.jpg","P_M_donald_trump.jpg","TRUE","pictures/stimuli/P","pictures/stimuli/P","F","M","5","57c975a8648ff40001666439","04/25/2022, 19:51:33","P_F_tehresy_may.jpg P_M_donald_trump.jpg",0.498736485451991,"34","Female","right",1,1,FALSE
2977,"E_M_Hugh_Grant.jpg","P_F_hillary_clinton.jpg","FALSE","pictures/stimuli/E","pictures/stimuli/P","M","F","6","57c975a8648ff40001666439","04/25/2022, 19:51:33","E_M_Hugh_Grant.jpg P_F_hillary_clinton.jpg",0.970178934386709,"34","Female","right",1,1,FALSE
3152,"P_M_boris_johnson.jpg","P_M_Tony_Blair.jpg","TRUE","pictures/stimuli/P","pictures/stimuli/P","M","M","1","57c975a8648ff40001666439","04/25/2022, 19:51:33","P_M_boris_johnson.jpg P_M_Tony_Blair.jpg",-1.38703331028688,"34","Female","right",1,1,FALSE
3556,"E_M_Hugh_Grant.jpg","P_F_nicola_sturgeon.jpg","FALSE","pictures/stimuli/E","pictures/stimuli/P","M","F","6","57c975a8648ff40001666439","04/25/2022, 19:51:33","E_M_Hugh_Grant.jpg P_F_nicola_sturgeon.jpg",0.970178934386709,"34","Female","right",1,1,FALSE
3644,"E_F_angelina_jolie.jpg","E_M_nicolas_cage.jpg","TRUE","pictures/stimuli/E","pictures/stimuli/E","F","M","1","57c975a8648ff40001666439","04/25/2022, 19:51:33","E_F_angelina_jolie.jpg E_M_nicolas_cage.jpg",-1.38703331028688,"34","Female","right",1,1,FALSE
3470,"E_F_sandra_bullock.jpg","E_M_nicolas_cage.jpg","TRUE","pictures/stimuli/E","pictures/stimuli/E","F","M","1","57c975a8648ff40001666439","04/25/2022, 19:51:33","E_F_sandra_bullock.jpg E_M_nicolas_cage.jpg",-1.38703331028688,"34","Female","right",1,1,FALSE
3132,"E_M_robert_de_niro.jpg","P_F_nicola_sturgeon.jpg","FALSE","pictures/stimuli/E","pictures/stimuli/P","M","F","6","57c975a8648ff40001666439","04/25/2022, 19:51:33","E_M_robert_de_niro.jpg P_F_nicola_sturgeon.jpg",0.970178934386709,"34","Female","right",1,1,FALSE
6880,"E_F_keira_knightley.jpg","E_M_nicolas_cage.jpg","TRUE","pictures/stimuli/E","pictures/stimuli/E","F","M","2","57c975a8648ff40001666439","04/25/2022, 19:51:33","E_F_keira_knightley.jpg E_M_nicolas_cage.jpg",-0.915590861352163,"34","Female","right",1,1,FALSE
6813,"E_M_tom_hankes.jpg","P_M_Tony_Blair.jpg","FALSE","pictures/stimuli/E","pictures/stimuli/P","M","M","6","57c975a8648ff40001666439","04/25/2022, 19:51:33","E_M_tom_hankes.jpg P_M_Tony_Blair.jpg",0.970178934386709,"34","Female","right",1,1,FALSE
3691,"E_F_keira_knightley.jpg","P_F_nicola_sturgeon.jpg","FALSE","pictures/stimuli/E","pictures/stimuli/P","F","F","6","57c975a8648ff40001666439","04/25/2022, 19:51:33","E_F_keira_knightley.jpg P_F_nicola_sturgeon.jpg",0.970178934386709,"34","Female","right",1,1,FALSE
3233,"E_F_keira_knightley.jpg","E_M_Hugh_Grant.jpg","TRUE","pictures/stimuli/E","pictures/stimuli/E","F","M","1","57c975a8648ff40001666439","04/25/2022, 19:51:33","E_F_keira_knightley.jpg E_M_Hugh_Grant.jpg",-1.38703331028688,"34","Female","right",1,1,FALSE
4430,"E_F_jennifer_aniston.jpg","P_M_george_Wbush.jpg","FALSE","pictures/stimuli/E","pictures/stimuli/P","F","M","6","57c975a8648ff40001666439","04/25/2022, 19:51:33","E_F_jennifer_aniston.jpg P_M_george_Wbush.jpg",0.970178934386709,"34","Female","right",1,1,FALSE
4153,"E_F_Kate_Winslet.jpg","P_M_george_Wbush.jpg","FALSE","pictures/stimuli/E","pictures/stimuli/P","F","M","6","57c975a8648ff40001666439","04/25/2022, 19:51:33","E_F_Kate_Winslet.jpg P_M_george_Wbush.jpg",0.970178934386709,"34","Female","right",1,1,FALSE
3537,"P_M_donald_trump.jpg","P_M_Tony_Blair.jpg","TRUE","pictures/stimuli/P","pictures/stimuli/P","M","M","4","57c975a8648ff40001666439","04/25/2022, 19:51:33","P_M_donald_trump.jpg P_M_Tony_Blair.jpg",0.0272940365172731,"34","Female","right",1,1,FALSE
5743,"P_M_david_cameron.jpg","P_M_george_Wbush.jpg","TRUE","pictures/stimuli/P","pictures/stimuli/P","M","M","2","57c975a8648ff40001666439","04/25/2022, 19:51:33","P_M_david_cameron.jpg P_M_george_Wbush.jpg",-0.915590861352163,"34","Female","right",1,1,FALSE
8125,"E_M_nicolas_cage.jpg","P_F_tehresy_may.jpg","FALSE","pictures/stimuli/E","pictures/stimuli/P","M","F","6","57c975a8648ff40001666439","04/25/2022, 19:51:33","E_M_nicolas_cage.jpg P_F_tehresy_may.jpg",0.970178934386709,"34","Female","right",1,1,FALSE
5126,"E_F_sandra_bullock.jpg","P_F_tehresy_may.jpg","FALSE","pictures/stimuli/E","pictures/stimuli/P","F","F","6","57c975a8648ff40001666439","04/25/2022, 19:51:33","E_F_sandra_bullock.jpg P_F_tehresy_may.jpg",0.970178934386709,"34","Female","right",1,1,FALSE
3103,"E_F_angelina_jolie.jpg","P_M_david_cameron.jpg","FALSE","pictures/stimuli/E","pictures/stimuli/P","F","M","6","57c975a8648ff40001666439","04/25/2022, 19:51:33","E_F_angelina_jolie.jpg P_M_david_cameron.jpg",0.970178934386709,"34","Female","right",1,1,FALSE
2419,"E_F_jennifer_aniston.jpg","E_M_nicolas_cage.jpg","TRUE","pictures/stimuli/E","pictures/stimuli/E","F","M","1","57c975a8648ff40001666439","04/25/2022, 19:51:33","E_F_jennifer_aniston.jpg E_M_nicolas_cage.jpg",-1.38703331028688,"34","Female","right",1,1,FALSE
3007,"E_F_Kate_Winslet.jpg","E_M_robert_de_niro.jpg","TRUE","pictures/stimuli/E","pictures/stimuli/E","F","M","1","57c975a8648ff40001666439","04/25/2022, 19:51:33","E_F_Kate_Winslet.jpg E_M_robert_de_niro.jpg",-1.38703331028688,"34","Female","right",1,1,FALSE
3865,"P_F_hillary_clinton.jpg","P_M_david_cameron.jpg","TRUE","pictures/stimuli/P","pictures/stimuli/P","F","M","2","57c975a8648ff40001666439","04/25/2022, 19:51:33","P_F_hillary_clinton.jpg P_M_david_cameron.jpg",-0.915590861352163,"34","Female","right",1,1,FALSE
5340,"E_M_Hugh_Grant.jpg","E_M_tom_hankes.jpg","TRUE","pictures/stimuli/E","pictures/stimuli/E","M","M","1","57c975a8648ff40001666439","04/25/2022, 19:51:33","E_M_Hugh_Grant.jpg E_M_tom_hankes.jpg",-1.38703331028688,"34","Female","right",1,1,FALSE
2527,"E_F_Judi_Dench.jpg","E_F_keira_knightley.jpg","TRUE","pictures/stimuli/E","pictures/stimuli/E","F","F","1","57c975a8648ff40001666439","04/25/2022, 19:51:33","E_F_Judi_Dench.jpg E_F_keira_knightley.jpg",-1.38703331028688,"34","Female","right",1,1,FALSE
2584,"E_F_Judi_Dench.jpg","E_M_Hugh_Grant.jpg","TRUE","pictures/stimuli/E","pictures/stimuli/E","F","M","1","57c975a8648ff40001666439","04/25/2022, 19:51:33","E_F_Judi_Dench.jpg E_M_Hugh_Grant.jpg",-1.38703331028688,"34","Female","right",1,1,FALSE
4039,"E_F_keira_knightley.jpg","E_M_michael_caine.jpg","TRUE","pictures/stimuli/E","pictures/stimuli/E","F","M","1","57c975a8648ff40001666439","04/25/2022, 19:51:33","E_F_keira_knightley.jpg E_M_michael_caine.jpg",-1.38703331028688,"34","Female","right",1,1,FALSE
2546,"P_F_tehresy_may.jpg","P_M_Tony_Blair.jpg","TRUE","pictures/stimuli/P","pictures/stimuli/P","F","M","1","57c975a8648ff40001666439","04/25/2022, 19:51:33","P_F_tehresy_may.jpg P_M_Tony_Blair.jpg",-1.38703331028688,"34","Female","right",1,1,FALSE
4117,"E_F_keira_knightley.jpg","P_M_george_Wbush.jpg","FALSE","pictures/stimuli/E","pictures/stimuli/P","F","M","6","57c975a8648ff40001666439","04/25/2022, 19:51:33","E_F_keira_knightley.jpg P_M_george_Wbush.jpg",0.970178934386709,"34","Female","right",1,1,FALSE
3866,"E_F_Kate_Winslet.jpg","E_M_tom_hankes.jpg","TRUE","pictures/stimuli/E","pictures/stimuli/E","F","M","2","57c975a8648ff40001666439","04/25/2022, 19:51:33","E_F_Kate_Winslet.jpg E_M_tom_hankes.jpg",-0.915590861352163,"34","Female","right",1,1,FALSE
4723,"E_F_angelina_jolie.jpg","E_M_Hugh_Grant.jpg","TRUE","pictures/stimuli/E","pictures/stimuli/E","F","M","3","57c975a8648ff40001666439","04/25/2022, 19:51:33","E_F_angelina_jolie.jpg E_M_Hugh_Grant.jpg",-0.444148412417445,"34","Female","right",1,1,FALSE
4106,"E_F_angelina_jolie.jpg","E_F_jennifer_aniston.jpg","TRUE","pictures/stimuli/E","pictures/stimuli/E","F","F","1","57c975a8648ff40001666439","04/25/2022, 19:51:33","E_F_angelina_jolie.jpg E_F_jennifer_aniston.jpg",-1.38703331028688,"34","Female","right",1,1,FALSE
3218,"E_M_Hugh_Grant.jpg","P_M_george_Wbush.jpg","FALSE","pictures/stimuli/E","pictures/stimuli/P","M","M","6","57c975a8648ff40001666439","04/25/2022, 19:51:33","E_M_Hugh_Grant.jpg P_M_george_Wbush.jpg",0.970178934386709,"34","Female","right",1,1,FALSE
3276,"E_F_keira_knightley.jpg","P_M_boris_johnson.jpg","FALSE","pictures/stimuli/E","pictures/stimuli/P","F","M","6","57c975a8648ff40001666439","04/25/2022, 19:51:33","E_F_keira_knightley.jpg P_M_boris_johnson.jpg",0.970178934386709,"34","Female","right",1,1,FALSE
2717,"E_F_Judi_Dench.jpg","P_M_bill_clinton.jpg","FALSE","pictures/stimuli/E","pictures/stimuli/P","F","M","6","57c975a8648ff40001666439","04/25/2022, 19:51:33","E_F_Judi_Dench.jpg P_M_bill_clinton.jpg",0.970178934386709,"34","Female","right",1,1,FALSE
4510,"E_F_sandra_bullock.jpg","P_M_david_cameron.jpg","FALSE","pictures/stimuli/E","pictures/stimuli/P","F","M","6","57c975a8648ff40001666439","04/25/2022, 19:51:33","E_F_sandra_bullock.jpg P_M_david_cameron.jpg",0.970178934386709,"34","Female","right",1,1,FALSE
4980,"E_M_robert_de_niro.jpg","P_M_boris_johnson.jpg","FALSE","pictures/stimuli/E","pictures/stimuli/P","M","M","6","57c975a8648ff40001666439","04/25/2022, 19:51:33","E_M_robert_de_niro.jpg P_M_boris_johnson.jpg",0.970178934386709,"34","Female","right",1,1,FALSE
5385,"E_M_tom_hankes.jpg","P_M_george_Wbush.jpg","FALSE","pictures/stimuli/E","pictures/stimuli/P","M","M","6","57c975a8648ff40001666439","04/25/2022, 19:51:33","E_M_tom_hankes.jpg P_M_george_Wbush.jpg",0.970178934386709,"34","Female","right",1,1,FALSE
3247,"P_F_hillary_clinton.jpg","P_M_bill_clinton.jpg","TRUE","pictures/stimuli/P","pictures/stimuli/P","F","M","1","57c975a8648ff40001666439","04/25/2022, 19:51:33","P_F_hillary_clinton.jpg P_M_bill_clinton.jpg",-1.38703331028688,"34","Female","right",1,1,FALSE
3526,"E_F_keira_knightley.jpg","E_M_tom_hankes.jpg","TRUE","pictures/stimuli/E","pictures/stimuli/E","F","M","2","57c975a8648ff40001666439","04/25/2022, 19:51:33","E_F_keira_knightley.jpg E_M_tom_hankes.jpg",-0.915590861352163,"34","Female","right",1,1,FALSE
5126,"E_M_robert_de_niro.jpg","P_M_george_Wbush.jpg","FALSE","pictures/stimuli/E","pictures/stimuli/P","M","M","6","57c975a8648ff40001666439","04/25/2022, 19:51:33","E_M_robert_de_niro.jpg P_M_george_Wbush.jpg",0.970178934386709,"34","Female","right",1,1,FALSE
3073,"E_F_jennifer_aniston.jpg","P_M_boris_johnson.jpg","FALSE","pictures/stimuli/E","pictures/stimuli/P","F","M","6","57c975a8648ff40001666439","04/25/2022, 19:51:33","E_F_jennifer_aniston.jpg P_M_boris_johnson.jpg",0.970178934386709,"34","Female","right",1,1,FALSE
3161,"E_F_angelina_jolie.jpg","P_F_tehresy_may.jpg","FALSE","pictures/stimuli/E","pictures/stimuli/P","F","F","6","57c975a8648ff40001666439","04/25/2022, 19:51:33","E_F_angelina_jolie.jpg P_F_tehresy_may.jpg",0.970178934386709,"34","Female","right",1,1,FALSE
5479,"P_M_david_cameron.jpg","P_M_donald_trump.jpg","TRUE","pictures/stimuli/P","pictures/stimuli/P","M","M","4","57c975a8648ff40001666439","04/25/2022, 19:51:33","P_M_david_cameron.jpg P_M_donald_trump.jpg",0.0272940365172731,"34","Female","right",1,1,FALSE
2546,"E_F_angelina_jolie.jpg","P_M_boris_johnson.jpg","FALSE","pictures/stimuli/E","pictures/stimuli/P","F","M","6","57c975a8648ff40001666439","04/25/2022, 19:51:33","E_F_angelina_jolie.jpg P_M_boris_johnson.jpg",0.970178934386709,"34","Female","right",1,1,FALSE
3221,"E_F_jennifer_aniston.jpg","E_F_Kate_Winslet.jpg","TRUE","pictures/stimuli/E","pictures/stimuli/E","F","F","1","57c975a8648ff40001666439","04/25/2022, 19:51:33","E_F_jennifer_aniston.jpg E_F_Kate_Winslet.jpg",-1.38703331028688,"34","Female","right",1,1,FALSE
4231,"E_F_jennifer_aniston.jpg","P_M_bill_clinton.jpg","FALSE","pictures/stimuli/E","pictures/stimuli/P","F","M","6","57c975a8648ff40001666439","04/25/2022, 19:51:33","E_F_jennifer_aniston.jpg P_M_bill_clinton.jpg",0.970178934386709,"34","Female","right",1,1,FALSE
2883,"E_M_michael_caine.jpg","P_M_david_cameron.jpg","FALSE","pictures/stimuli/E","pictures/stimuli/P","M","M","6","57c975a8648ff40001666439","04/25/2022, 19:51:33","E_M_michael_caine.jpg P_M_david_cameron.jpg",0.970178934386709,"34","Female","right",1,1,FALSE
3017,"E_M_nicolas_cage.jpg","P_M_Tony_Blair.jpg","FALSE","pictures/stimuli/E","pictures/stimuli/P","M","M","6","57c975a8648ff40001666439","04/25/2022, 19:51:33","E_M_nicolas_cage.jpg P_M_Tony_Blair.jpg",0.970178934386709,"34","Female","right",1,1,FALSE
3972,"E_F_angelina_jolie.jpg","E_F_sandra_bullock.jpg","TRUE","pictures/stimuli/E","pictures/stimuli/E","F","F","1","57c975a8648ff40001666439","04/25/2022, 19:51:33","E_F_angelina_jolie.jpg E_F_sandra_bullock.jpg",-1.38703331028688,"34","Female","right",1,1,FALSE
5496,"P_F_nicola_sturgeon.jpg","P_M_george_Wbush.jpg","TRUE","pictures/stimuli/P","pictures/stimuli/P","F","M","3","57c975a8648ff40001666439","04/25/2022, 19:51:33","P_F_nicola_sturgeon.jpg P_M_george_Wbush.jpg",-0.444148412417445,"34","Female","right",1,1,FALSE
2921,"E_F_angelina_jolie.jpg","P_M_Tony_Blair.jpg","FALSE","pictures/stimuli/E","pictures/stimuli/P","F","M","6","57c975a8648ff40001666439","04/25/2022, 19:51:33","E_F_angelina_jolie.jpg P_M_Tony_Blair.jpg",0.970178934386709,"34","Female","right",1,1,FALSE
3047,"E_F_jennifer_aniston.jpg","P_M_donald_trump.jpg","FALSE","pictures/stimuli/E","pictures/stimuli/P","F","M","6","57c975a8648ff40001666439","04/25/2022, 19:51:33","E_F_jennifer_aniston.jpg P_M_donald_trump.jpg",0.970178934386709,"34","Female","right",1,1,FALSE
6312,"E_M_robert_de_niro.jpg","P_M_donald_trump.jpg","FALSE","pictures/stimuli/E","pictures/stimuli/P","M","M","5","57c975a8648ff40001666439","04/25/2022, 19:51:33","E_M_robert_de_niro.jpg P_M_donald_trump.jpg",0.498736485451991,"34","Female","right",1,1,FALSE
2796,"E_M_michael_caine.jpg","P_M_george_Wbush.jpg","FALSE","pictures/stimuli/E","pictures/stimuli/P","M","M","6","57c975a8648ff40001666439","04/25/2022, 19:51:33","E_M_michael_caine.jpg P_M_george_Wbush.jpg",0.970178934386709,"34","Female","right",1,1,FALSE
4164,"E_F_Kate_Winslet.jpg","P_M_bill_clinton.jpg","FALSE","pictures/stimuli/E","pictures/stimuli/P","F","M","6","57c975a8648ff40001666439","04/25/2022, 19:51:33","E_F_Kate_Winslet.jpg P_M_bill_clinton.jpg",0.970178934386709,"34","Female","right",1,1,FALSE
2662,"E_F_jennifer_aniston.jpg","P_M_david_cameron.jpg","FALSE","pictures/stimuli/E","pictures/stimuli/P","F","M","6","57c975a8648ff40001666439","04/25/2022, 19:51:33","E_F_jennifer_aniston.jpg P_M_david_cameron.jpg",0.970178934386709,"34","Female","right",1,1,FALSE
4079,"E_F_Judi_Dench.jpg","E_F_sandra_bullock.jpg","TRUE","pictures/stimuli/E","pictures/stimuli/E","F","F","2","57c975a8648ff40001666439","04/25/2022, 19:51:33","E_F_Judi_Dench.jpg E_F_sandra_bullock.jpg",-0.915590861352163,"34","Female","right",1,1,FALSE
9716,"E_F_sandra_bullock.jpg","E_M_tom_hankes.jpg","TRUE","pictures/stimuli/E","pictures/stimuli/E","F","M","1","57c975a8648ff40001666439","04/25/2022, 19:51:33","E_F_sandra_bullock.jpg E_M_tom_hankes.jpg",-1.38703331028688,"34","Female","right",1,1,FALSE
24284,"E_F_Judi_Dench.jpg","P_M_david_cameron.jpg","FALSE","pictures/stimuli/E","pictures/stimuli/P","F","M","6","57c975a8648ff40001666439","04/25/2022, 19:51:33","E_F_Judi_Dench.jpg P_M_david_cameron.jpg",0.970178934386709,"34","Female","right",1,1,FALSE
4250,"E_F_sandra_bullock.jpg","E_M_Hugh_Grant.jpg","TRUE","pictures/stimuli/E","pictures/stimuli/E","F","M","2","57c975a8648ff40001666439","04/25/2022, 19:51:33","E_F_sandra_bullock.jpg E_M_Hugh_Grant.jpg",-0.915590861352163,"34","Female","right",1,1,FALSE
16362,"P_M_bill_clinton.jpg","P_M_david_cameron.jpg","TRUE","pictures/stimuli/P","pictures/stimuli/P","M","M","1","57c975a8648ff40001666439","04/25/2022, 19:51:33","P_M_bill_clinton.jpg P_M_david_cameron.jpg",-1.38703331028688,"34","Female","right",1,1,FALSE
3711,"P_F_hillary_clinton.jpg","P_F_nicola_sturgeon.jpg","TRUE","pictures/stimuli/P","pictures/stimuli/P","F","F","1","57c975a8648ff40001666439","04/25/2022, 19:51:33","P_F_hillary_clinton.jpg P_F_nicola_sturgeon.jpg",-1.38703331028688,"34","Female","right",1,1,FALSE
2343,"P_F_nicola_sturgeon.jpg","P_M_david_cameron.jpg","TRUE","pictures/stimuli/P","pictures/stimuli/P","F","M","1","57c975a8648ff40001666439","04/25/2022, 19:51:33","P_F_nicola_sturgeon.jpg P_M_david_cameron.jpg",-1.38703331028688,"34","Female","right",1,1,FALSE
3220,"P_F_hillary_clinton.jpg","P_M_donald_trump.jpg","TRUE","pictures/stimuli/P","pictures/stimuli/P","F","M","1","57c975a8648ff40001666439","04/25/2022, 19:51:33","P_F_hillary_clinton.jpg P_M_donald_trump.jpg",-1.38703331028688,"34","Female","right",1,1,FALSE
3017,"P_F_hillary_clinton.jpg","P_M_george_Wbush.jpg","TRUE","pictures/stimuli/P","pictures/stimuli/P","F","M","1","57c975a8648ff40001666439","04/25/2022, 19:51:33","P_F_hillary_clinton.jpg P_M_george_Wbush.jpg",-1.38703331028688,"34","Female","right",1,1,FALSE
2729,"E_M_tom_hankes.jpg","P_M_donald_trump.jpg","FALSE","pictures/stimuli/E","pictures/stimuli/P","M","M","6","57c975a8648ff40001666439","04/25/2022, 19:51:33","E_M_tom_hankes.jpg P_M_donald_trump.jpg",0.970178934386709,"34","Female","right",1,1,FALSE
3923,"E_F_angelina_jolie.jpg","P_F_nicola_sturgeon.jpg","FALSE","pictures/stimuli/E","pictures/stimuli/P","F","F","6","57c975a8648ff40001666439","04/25/2022, 19:51:33","E_F_angelina_jolie.jpg P_F_nicola_sturgeon.jpg",0.970178934386709,"34","Female","right",1,1,FALSE
5599,"E_F_jennifer_aniston.jpg","E_F_Judi_Dench.jpg","TRUE","pictures/stimuli/E","pictures/stimuli/E","F","F","2","57c975a8648ff40001666439","04/25/2022, 19:51:33","E_F_jennifer_aniston.jpg E_F_Judi_Dench.jpg",-0.915590861352163,"34","Female","right",1,1,FALSE
2911,"E_M_robert_de_niro.jpg","P_M_Tony_Blair.jpg","FALSE","pictures/stimuli/E","pictures/stimuli/P","M","M","6","57c975a8648ff40001666439","04/25/2022, 19:51:33","E_M_robert_de_niro.jpg P_M_Tony_Blair.jpg",0.970178934386709,"34","Female","right",1,1,FALSE
4770,"E_F_angelina_jolie.jpg","E_F_Kate_Winslet.jpg","TRUE","pictures/stimuli/E","pictures/stimuli/E","F","F","1","57c975a8648ff40001666439","04/25/2022, 19:51:33","E_F_angelina_jolie.jpg E_F_Kate_Winslet.jpg",-1.38703331028688,"34","Female","right",1,1,FALSE
2795,"P_F_hillary_clinton.jpg","P_M_Tony_Blair.jpg","TRUE","pictures/stimuli/P","pictures/stimuli/P","F","M","1","57c975a8648ff40001666439","04/25/2022, 19:51:33","P_F_hillary_clinton.jpg P_M_Tony_Blair.jpg",-1.38703331028688,"34","Female","right",1,1,FALSE
6465,"E_F_angelina_jolie.jpg","P_M_bill_clinton.jpg","FALSE","pictures/stimuli/E","pictures/stimuli/P","F","M","6","57c975a8648ff40001666439","04/25/2022, 19:51:33","E_F_angelina_jolie.jpg P_M_bill_clinton.jpg",0.970178934386709,"34","Female","right",1,1,FALSE
10956,"E_M_Hugh_Grant.jpg","P_M_david_cameron.jpg","FALSE","pictures/stimuli/E","pictures/stimuli/P","M","M","5","5840a23e462286000136b652","04/25/2022, 20:12:52","E_M_Hugh_Grant.jpg P_M_david_cameron.jpg",0.796724526338643,"26","Female","right",1,1,FALSE
7036,"E_F_keira_knightley.jpg","E_M_robert_de_niro.jpg","TRUE","pictures/stimuli/E","pictures/stimuli/E","F","M","3","5840a23e462286000136b652","04/25/2022, 20:12:52","E_F_keira_knightley.jpg E_M_robert_de_niro.jpg",-0.404685473695819,"26","Female","right",1,1,FALSE
4450,"E_F_keira_knightley.jpg","P_M_Tony_Blair.jpg","FALSE","pictures/stimuli/E","pictures/stimuli/P","F","M","5","5840a23e462286000136b652","04/25/2022, 20:12:52","E_F_keira_knightley.jpg P_M_Tony_Blair.jpg",0.796724526338643,"26","Female","right",1,1,FALSE
5102,"E_F_sandra_bullock.jpg","P_M_donald_trump.jpg","FALSE","pictures/stimuli/E","pictures/stimuli/P","F","M","6","5840a23e462286000136b652","04/25/2022, 20:12:52","E_F_sandra_bullock.jpg P_M_donald_trump.jpg",1.39742952635587,"26","Female","right",1,1,FALSE
