"RT","img_1","img_2","isSameProffesion","img1proffesion","img2proffesion","img1Gender","img2Gender","keyPressed","participant","time","pair","normlised_keyPress","age","gender","handedness","isFamiliar_img1","isFamiliar_img2","reject_trial"
3052,"E_F_keira_knightley.jpg","E_M_michael_caine.jpg","TRUE","pictures/stimuli/E","pictures/stimuli/E","F","M","6","574b5c065bef98000eaf8bc3","04/26/2022, 07:40:52","E_F_keira_knightley.jpg E_M_michael_caine.jpg",0.675738808945829,"32","Male","left",1,1,FALSE
5084,"P_F_tehresy_may.jpg","P_M_george_Wbush.jpg","TRUE","pictures/stimuli/P","pictures/stimuli/P","F","M","2","574b5c065bef98000eaf8bc3","04/26/2022, 07:40:52","P_F_tehresy_may.jpg P_M_george_Wbush.jpg",-1.51896843378421,"32","Male","left",1,1,FALSE
3709,"E_F_jennifer_aniston.jpg","E_M_tom_hankes.jpg","TRUE","pictures/stimuli/E","pictures/stimuli/E","F","M","6","574b5c065bef98000eaf8bc3","04/26/2022, 07:40:52","E_F_jennifer_aniston.jpg E_M_tom_hankes.jpg",0.675738808945829,"32","Male","left",1,1,FALSE
3455,"E_F_jennifer_aniston.jpg","E_F_keira_knightley.jpg","TRUE","pictures/stimuli/E","pictures/stimuli/E","F","F","4","574b5c065bef98000eaf8bc3","04/26/2022, 07:40:52","E_F_jennifer_aniston.jpg E_F_keira_knightley.jpg",-0.421614812419193,"32","Male","left",1,1,FALSE
5919,"E_F_keira_knightley.jpg","E_F_sandra_bullock.jpg","TRUE","pictures/stimuli/E","pictures/stimuli/E","F","F","2","574b5c065bef98000eaf8bc3","04/26/2022, 07:40:52","E_F_keira_knightley.jpg E_F_sandra_bullock.jpg",-1.51896843378421,"32","Male","left",1,0,TRUE
3581,"P_M_bill_clinton.jpg","P_M_donald_trump.jpg","TRUE","pictures/stimuli/P","pictures/stimuli/P","M","M","5","574b5c065bef98000eaf8bc3","04/26/2022, 07:40:52","P_M_bill_clinton.jpg P_M_donald_trump.jpg",0.127061998263318,"32","Male","left",1,1,FALSE
2828,"E_F_jennifer_aniston.jpg","P_M_donald_trump.jpg","FALSE","pictures/stimuli/E","pictures/stimuli/P","F","M","6","574b5c065bef98000eaf8bc3","04/26/2022, 07:40:52","E_F_jennifer_aniston.jpg P_M_donald_trump.jpg",0.675738808945829,"32","Male","left",1,1,FALSE
8481,"E_M_robert_de_niro.jpg","P_M_Tony_Blair.jpg","FALSE","pictures/stimuli/E","pictures/stimuli/P","M","M","6","574b5c065bef98000eaf8bc3","04/26/2022, 07:40:52","E_M_robert_de_niro.jpg P_M_Tony_Blair.jpg",0.675738808945829,"32","Male","left",1,1,FALSE
2908,"P_M_donald_trump.jpg","P_M_Tony_Blair.jpg","TRUE","pictures/stimuli/P","pictures/stimuli/P","M","M","5","574b5c065bef98000eaf8bc3","04/26/2022, 07:40:52","P_M_donald_trump.jpg P_M_Tony_Blair.jpg",0.127061998263318,"32","Male","left",1,1,FALSE
3834,"E_F_jennifer_aniston.jpg","E_F_Judi_Dench.jpg","TRUE","pictures/stimuli/E","pictures/stimuli/E","F","F","2","574b5c065bef98000eaf8bc3","04/26/2022, 07:40:52","E_F_jennifer_aniston.jpg E_F_Judi_Dench.jpg",-1.51896843378421,"32","Male","left",1,1,FALSE
4009,"P_F_hillary_clinton.jpg","P_F_tehresy_may.jpg","TRUE","pictures/stimuli/P","pictures/stimuli/P","F","F","2","574b5c065bef98000eaf8bc3","04/26/2022, 07:40:52","P_F_hillary_clinton.jpg P_F_tehresy_may.jpg",-1.51896843378421,"32","Male","left",1,1,FALSE
2054,"E_M_nicolas_cage.jpg","P_M_donald_trump.jpg","FALSE","pictures/stimuli/E","pictures/stimuli/P","M","M","6","574b5c065bef98000eaf8bc3","04/26/2022, 07:40:52","E_M_nicolas_cage.jpg P_M_donald_trump.jpg",0.675738808945829,"32","Male","left",1,1,FALSE
5278,"E_F_Judi_Dench.jpg","E_F_Kate_Winslet.jpg","TRUE","pictures/stimuli/E","pictures/stimuli/E","F","F","3","574b5c065bef98000eaf8bc3","04/26/2022, 07:40:52","E_F_Judi_Dench.jpg E_F_Kate_Winslet.jpg",-0.970291623101703,"32","Male","left",1,1,FALSE
9141,"E_F_Kate_Winslet.jpg","E_M_tom_hankes.jpg","TRUE","pictures/stimuli/E","pictures/stimuli/E","F","M","5","574b5c065bef98000eaf8bc3","04/26/2022, 07:40:52","E_F_Kate_Winslet.jpg E_M_tom_hankes.jpg",0.127061998263318,"32","Male","left",1,1,FALSE
4875,"E_M_Hugh_Grant.jpg","P_F_hillary_clinton.jpg","FALSE","pictures/stimuli/E","pictures/stimuli/P","M","F","6","574b5c065bef98000eaf8bc3","04/26/2022, 07:40:52","E_M_Hugh_Grant.jpg P_F_hillary_clinton.jpg",0.675738808945829,"32","Male","left",1,1,FALSE
39958,"E_M_Hugh_Grant.jpg","E_M_michael_caine.jpg","TRUE","pictures/stimuli/E","pictures/stimuli/E","M","M","6","574b5c065bef98000eaf8bc3","04/26/2022, 07:40:52","E_M_Hugh_Grant.jpg E_M_michael_caine.jpg",0.675738808945829,"32","Male","left",1,1,TRUE
3020,"E_M_robert_de_niro.jpg","P_M_david_cameron.jpg","FALSE","pictures/stimuli/E","pictures/stimuli/P","M","M","6","574b5c065bef98000eaf8bc3","04/26/2022, 07:40:52","E_M_robert_de_niro.jpg P_M_david_cameron.jpg",0.675738808945829,"32","Male","left",1,1,FALSE
2429,"P_M_boris_johnson.jpg","P_M_Tony_Blair.jpg","TRUE","pictures/stimuli/P","pictures/stimuli/P","M","M","5","574b5c065bef98000eaf8bc3","04/26/2022, 07:40:52","P_M_boris_johnson.jpg P_M_Tony_Blair.jpg",0.127061998263318,"32","Male","left",1,1,FALSE
2139,"E_M_michael_caine.jpg","P_M_donald_trump.jpg","FALSE","pictures/stimuli/E","pictures/stimuli/P","M","M","6","574b5c065bef98000eaf8bc3","04/26/2022, 07:40:52","E_M_michael_caine.jpg P_M_donald_trump.jpg",0.675738808945829,"32","Male","left",1,1,FALSE
3495,"E_F_angelina_jolie.jpg","E_M_robert_de_niro.jpg","TRUE","pictures/stimuli/E","pictures/stimuli/E","F","M","6","574b5c065bef98000eaf8bc3","04/26/2022, 07:40:52","E_F_angelina_jolie.jpg E_M_robert_de_niro.jpg",0.675738808945829,"32","Male","left",1,1,FALSE
1567,"E_F_keira_knightley.jpg","P_M_Tony_Blair.jpg","FALSE","pictures/stimuli/E","pictures/stimuli/P","F","M","6","574b5c065bef98000eaf8bc3","04/26/2022, 07:40:52","E_F_keira_knightley.jpg P_M_Tony_Blair.jpg",0.675738808945829,"32","Male","left",1,1,FALSE
1709,"E_F_jennifer_aniston.jpg","P_M_bill_clinton.jpg","FALSE","pictures/stimuli/E","pictures/stimuli/P","F","M","6","574b5c065bef98000eaf8bc3","04/26/2022, 07:40:52","E_F_jennifer_aniston.jpg P_M_bill_clinton.jpg",0.675738808945829,"32","Male","left",1,1,FALSE
2177,"P_M_george_Wbush.jpg","P_M_Tony_Blair.jpg","TRUE","pictures/stimuli/P","pictures/stimuli/P","M","M","3","574b5c065bef98000eaf8bc3","04/26/2022, 07:40:52","P_M_george_Wbush.jpg P_M_Tony_Blair.jpg",-0.970291623101703,"32","Male","left",1,1,FALSE
4049,"E_M_Hugh_Grant.jpg","P_M_david_cameron.jpg","FALSE","pictures/stimuli/E","pictures/stimuli/P","M","M","3","574b5c065bef98000eaf8bc3","04/26/2022, 07:40:52","E_M_Hugh_Grant.jpg P_M_david_cameron.jpg",-0.970291623101703,"32","Male","left",1,1,FALSE
1878,"E_F_angelina_jolie.jpg","P_M_bill_clinton.jpg","FALSE","pictures/stimuli/E","pictures/stimuli/P","F","M","6","574b5c065bef98000eaf8bc3","04/26/2022, 07:40:52","E_F_angelina_jolie.jpg P_M_bill_clinton.jpg",0.675738808945829,"32","Male","left",1,1,FALSE
2971,"E_F_Kate_Winslet.jpg","E_M_robert_de_niro.jpg","TRUE","pictures/stimuli/E","pictures/stimuli/E","F","M","4","574b5c065bef98000eaf8bc3","04/26/2022, 07:40:52","E_F_Kate_Winslet.jpg E_M_robert_de_niro.jpg",-0.421614812419193,"32","Male","left",1,1,FALSE
3121,"E_M_tom_hankes.jpg","P_F_nicola_sturgeon.jpg","FALSE","pictures/stimuli/E","pictures/stimuli/P","M","F","6","574b5c065bef98000eaf8bc3","04/26/2022, 07:40:52","E_M_tom_hankes.jpg P_F_nicola_sturgeon.jpg",0.675738808945829,"32","Male","left",1,1,FALSE
20537,"E_M_Hugh_Grant.jpg","P_M_bill_clinton.jpg","FALSE","pictures/stimuli/E","pictures/stimuli/P","M","M","6","574b5c065bef98000eaf8bc3","04/26/2022, 07:40:52","E_M_Hugh_Grant.jpg P_M_bill_clinton.jpg",0.675738808945829,"32","Male","left",1,1,FALSE
7809,"P_F_nicola_sturgeon.jpg","P_M_Tony_Blair.jpg","TRUE","pictures/stimuli/P","pictures/stimuli/P","F","M","6","574b5c065bef98000eaf8bc3","04/26/2022, 07:40:52","P_F_nicola_sturgeon.jpg P_M_Tony_Blair.jpg",0.675738808945829,"32","Male","left",1,1,FALSE
7131,"E_F_sandra_bullock.jpg","P_M_david_cameron.jpg","FALSE","pictures/stimuli/E","pictures/stimuli/P","F","M","6","574b5c065bef98000eaf8bc3","04/26/2022, 07:40:52","E_F_sandra_bullock.jpg P_M_david_cameron.jpg",0.675738808945829,"32","Male","left",0,1,TRUE
24024,"P_F_tehresy_may.jpg","P_M_bill_clinton.jpg","TRUE","pictures/stimuli/P","pictures/stimuli/P","F","M","6","574b5c065bef98000eaf8bc3","04/26/2022, 07:40:52","P_F_tehresy_may.jpg P_M_bill_clinton.jpg",0.675738808945829,"32","Male","left",1,1,FALSE
13953,"E_F_keira_knightley.jpg","E_M_tom_hankes.jpg","TRUE","pictures/stimuli/E","pictures/stimuli/E","F","M","6","574b5c065bef98000eaf8bc3","04/26/2022, 07:40:52","E_F_keira_knightley.jpg E_M_tom_hankes.jpg",0.675738808945829,"32","Male","left",1,1,FALSE
43174,"P_F_tehresy_may.jpg","P_M_david_cameron.jpg","TRUE","pictures/stimuli/P","pictures/stimuli/P","F","M","2","574b5c065bef98000eaf8bc3","04/26/2022, 07:40:52","P_F_tehresy_may.jpg P_M_david_cameron.jpg",-1.51896843378421,"32","Male","left",1,1,TRUE
2797,"P_F_nicola_sturgeon.jpg","P_M_boris_johnson.jpg","TRUE","pictures/stimuli/P","pictures/stimuli/P","F","M","6","574b5c065bef98000eaf8bc3","04/26/2022, 07:40:52","P_F_nicola_sturgeon.jpg P_M_boris_johnson.jpg",0.675738808945829,"32","Male","left",1,1,FALSE
4629,"P_M_david_cameron.jpg","P_M_george_Wbush.jpg","TRUE","pictures/stimuli/P","pictures/stimuli/P","M","M","1","574b5c065bef98000eaf8bc3","04/26/2022, 07:40:52","P_M_david_cameron.jpg P_M_george_Wbush.jpg",-2.06764524446672,"32","Male","left",1,1,FALSE
2636,"E_F_jennifer_aniston.jpg","E_M_michael_caine.jpg","TRUE","pictures/stimuli/E","pictures/stimuli/E","F","M","3","574b5c065bef98000eaf8bc3","04/26/2022, 07:40:52","E_F_jennifer_aniston.jpg E_M_michael_caine.jpg",-0.970291623101703,"32","Male","left",1,1,FALSE
2402,"E_F_keira_knightley.jpg","P_F_nicola_sturgeon.jpg","FALSE","pictures/stimuli/E","pictures/stimuli/P","F","F","6","574b5c065bef98000eaf8bc3","04/26/2022, 07:40:52","E_F_keira_knightley.jpg P_F_nicola_sturgeon.jpg",0.675738808945829,"32","Male","left",1,1,FALSE
50161,"E_F_jennifer_aniston.jpg","P_M_boris_johnson.jpg","FALSE","pictures/stimuli/E","pictures/stimuli/P","F","M","6","574b5c065bef98000eaf8bc3","04/26/2022, 07:40:52","E_F_jennifer_aniston.jpg P_M_boris_johnson.jpg",0.675738808945829,"32","Male","left",1,1,TRUE
2468,"E_M_nicolas_cage.jpg","P_M_Tony_Blair.jpg","FALSE","pictures/stimuli/E","pictures/stimuli/P","M","M","6","574b5c065bef98000eaf8bc3","04/26/2022, 07:40:52","E_M_nicolas_cage.jpg P_M_Tony_Blair.jpg",0.675738808945829,"32","Male","left",1,1,FALSE
2421,"E_F_Judi_Dench.jpg","E_F_sandra_bullock.jpg","TRUE","pictures/stimuli/E","pictures/stimuli/E","F","F","3","574b5c065bef98000eaf8bc3","04/26/2022, 07:40:52","E_F_Judi_Dench.jpg E_F_sandra_bullock.jpg",-0.970291623101703,"32","Male","left",1,0,TRUE
4425,"E_F_sandra_bullock.jpg","E_M_tom_hankes.jpg","TRUE","pictures/stimuli/E","pictures/stimuli/E","F","M","6","574b5c065bef98000eaf8bc3","04/26/2022, 07:40:52","E_F_sandra_bullock.jpg E_M_tom_hankes.jpg",0.675738808945829,"32","Male","left",0,1,TRUE
3924,"E_F_angelina_jolie.jpg","E_M_tom_hankes.jpg","TRUE","pictures/stimuli/E","pictures/stimuli/E","F","M","6","574b5c065bef98000eaf8bc3","04/26/2022, 07:40:52","E_F_angelina_jolie.jpg E_M_tom_hankes.jpg",0.675738808945829,"32","Male","left",1,1,FALSE
3558,"E_M_Hugh_Grant.jpg","E_M_nicolas_cage.jpg","TRUE","pictures/stimuli/E","pictures/stimuli/E","M","M","2","574b5c065bef98000eaf8bc3","04/26/2022, 07:40:52","E_M_Hugh_Grant.jpg E_M_nicolas_cage.jpg",-1.51896843378421,"32","Male","left",1,1,FALSE
3364,"E_F_angelina_jolie.jpg","P_M_donald_trump.jpg","FALSE","pictures/stimuli/E","pictures/stimuli/P","F","M","6","574b5c065bef98000eaf8bc3","04/26/2022, 07:40:52","E_F_angelina_jolie.jpg P_M_donald_trump.jpg",0.675738808945829,"32","Male","left",1,1,FALSE
3405,"E_F_Kate_Winslet.jpg","P_M_donald_trump.jpg","FALSE","pictures/stimuli/E","pictures/stimuli/P","F","M","6","574b5c065bef98000eaf8bc3","04/26/2022, 07:40:52","E_F_Kate_Winslet.jpg P_M_donald_trump.jpg",0.675738808945829,"32","Male","left",1,1,FALSE
62945,"E_F_sandra_bullock.jpg","E_M_Hugh_Grant.jpg","TRUE","pictures/stimuli/E","pictures/stimuli/E","F","M","6","574b5c065bef98000eaf8bc3","04/26/2022, 07:40:52","E_F_sandra_bullock.jpg E_M_Hugh_Grant.jpg",0.675738808945829,"32","Male","left",0,1,TRUE
4592,"E_F_jennifer_aniston.jpg","E_F_Kate_Winslet.jpg","TRUE","pictures/stimuli/E","pictures/stimuli/E","F","F","1","574b5c065bef98000eaf8bc3","04/26/2022, 07:40:52","E_F_jennifer_aniston.jpg E_F_Kate_Winslet.jpg",-2.06764524446672,"32","Male","left",1,1,FALSE
3120,"E_M_michael_caine.jpg","P_M_Tony_Blair.jpg","FALSE","pictures/stimuli/E","pictures/stimuli/P","M","M","6","574b5c065bef98000eaf8bc3","04/26/2022, 07:40:52","E_M_michael_caine.jpg P_M_Tony_Blair.jpg",0.675738808945829,"32","Male","left",1,1,FALSE
1879,"E_M_Hugh_Grant.jpg","P_F_tehresy_may.jpg","FALSE","pictures/stimuli/E","pictures/stimuli/P","M","F","6","574b5c065bef98000eaf8bc3","04/26/2022, 07:40:52","E_M_Hugh_Grant.jpg P_F_tehresy_may.jpg",0.675738808945829,"32","Male","left",1,1,FALSE
2206,"E_F_keira_knightley.jpg","E_M_robert_de_niro.jpg","TRUE","pictures/stimuli/E","pictures/stimuli/E","F","M","6","574b5c065bef98000eaf8bc3","04/26/2022, 07:40:52","E_F_keira_knightley.jpg E_M_robert_de_niro.jpg",0.675738808945829,"32","Male","left",1,1,FALSE
3178,"E_F_Kate_Winslet.jpg","P_F_tehresy_may.jpg","FALSE","pictures/stimuli/E","pictures/stimuli/P","F","F","4","574b5c065bef98000eaf8bc3","04/26/2022, 07:40:52","E_F_Kate_Winslet.jpg P_F_tehresy_may.jpg",-0.421614812419193,"32","Male","left",1,1,FALSE
1520,"E_F_Kate_Winslet.jpg","P_F_nicola_sturgeon.jpg","FALSE","pictures/stimuli/E","pictures/stimuli/P","F","F","6","574b5c065bef98000eaf8bc3","04/26/2022, 07:40:52","E_F_Kate_Winslet.jpg P_F_nicola_sturgeon.jpg",0.675738808945829,"32","Male","left",1,1,FALSE
1506,"E_F_Judi_Dench.jpg","E_M_robert_de_niro.jpg","TRUE","pictures/stimuli/E","pictures/stimuli/E","F","M","6","574b5c065bef98000eaf8bc3","04/26/2022, 07:40:52","E_F_Judi_Dench.jpg E_M_robert_de_niro.jpg",0.675738808945829,"32","Male","left",1,1,FALSE
1859,"E_M_nicolas_cage.jpg","P_F_tehresy_may.jpg","FALSE","pictures/stimuli/E","pictures/stimuli/P","M","F","6","574b5c065bef98000eaf8bc3","04/26/2022, 07:40:52","E_M_nicolas_cage.jpg P_F_tehresy_may.jpg",0.675738808945829,"32","Male","left",1,1,FALSE
2525,"E_F_angelina_jolie.jpg","P_M_david_cameron.jpg","FALSE","pictures/stimuli/E","pictures/stimuli/P","F","M","5","574b5c065bef98000eaf8bc3","04/26/2022, 07:40:52","E_F_angelina_jolie.jpg P_M_david_cameron.jpg",0.127061998263318,"32","Male","left",1,1,FALSE
2510,"E_F_Judi_Dench.jpg","E_M_nicolas_cage.jpg","TRUE","pictures/stimuli/E","pictures/stimuli/E","F","M","5","574b5c065bef98000eaf8bc3","04/26/2022, 07:40:52","E_F_Judi_Dench.jpg E_M_nicolas_cage.jpg",0.127061998263318,"32","Male","left",1,1,FALSE
2207,"E_F_Judi_Dench.jpg","P_F_hillary_clinton.jpg","FALSE","pictures/stimuli/E","pictures/stimuli/P","F","F","6","574b5c065bef98000eaf8bc3","04/26/2022, 07:40:52","E_F_Judi_Dench.jpg P_F_hillary_clinton.jpg",0.675738808945829,"32","Male","left",1,1,FALSE
2235,"E_F_keira_knightley.jpg","P_M_bill_clinton.jpg","FALSE","pictures/stimuli/E","pictures/stimuli/P","F","M","6","574b5c065bef98000eaf8bc3","04/26/2022, 07:40:52","E_F_keira_knightley.jpg P_M_bill_clinton.jpg",0.675738808945829,"32","Male","left",1,1,FALSE
1847,"E_F_sandra_bullock.jpg","P_M_donald_trump.jpg","FALSE","pictures/stimuli/E","pictures/stimuli/P","F","M","6","574b5c065bef98000eaf8bc3","04/26/2022, 07:40:52","E_F_sandra_bullock.jpg P_M_donald_trump.jpg",0.675738808945829,"32","Male","left",0,1,TRUE
2974,"P_M_david_cameron.jpg","P_M_donald_trump.jpg","TRUE","pictures/stimuli/P","pictures/stimuli/P","M","M","2","574b5c065bef98000eaf8bc3","04/26/2022, 07:40:52","P_M_david_cameron.jpg P_M_donald_trump.jpg",-1.51896843378421,"32","Male","left",1,1,FALSE
2325,"E_F_keira_knightley.jpg","P_F_tehresy_may.jpg","FALSE","pictures/stimuli/E","pictures/stimuli/P","F","F","5","574b5c065bef98000eaf8bc3","04/26/2022, 07:40:52","E_F_keira_knightley.jpg P_F_tehresy_may.jpg",0.127061998263318,"32","Male","left",1,1,FALSE
2234,"E_M_michael_caine.jpg","P_F_tehresy_may.jpg","FALSE","pictures/stimuli/E","pictures/stimuli/P","M","F","6","574b5c065bef98000eaf8bc3","04/26/2022, 07:40:52","E_M_michael_caine.jpg P_F_tehresy_may.jpg",0.675738808945829,"32","Male","left",1,1,FALSE
5421,"E_M_nicolas_cage.jpg","P_M_bill_clinton.jpg","FALSE","pictures/stimuli/E","pictures/stimuli/P","M","M","6","574b5c065bef98000eaf8bc3","04/26/2022, 07:40:52","E_M_nicolas_cage.jpg P_M_bill_clinton.jpg",0.675738808945829,"32","Male","left",1,1,FALSE
51000,"P_F_nicola_sturgeon.jpg","P_M_david_cameron.jpg","TRUE","pictures/stimuli/P","pictures/stimuli/P","F","M","6","574b5c065bef98000eaf8bc3","04/26/2022, 07:40:52","P_F_nicola_sturgeon.jpg P_M_david_cameron.jpg",0.675738808945829,"32","Male","left",1,1,TRUE
25651,"E_F_keira_knightley.jpg","P_M_david_cameron.jpg","FALSE","pictures/stimuli/E","pictures/stimuli/P","F","M","6","574b5c065bef98000eaf8bc3","04/26/2022, 07:40:52","E_F_keira_knightley.jpg P_M_david_cameron.jpg",0.675738808945829,"32","Male","left",1,1,FALSE
2020,"E_F_keira_knightley.jpg","P_M_boris_johnson.jpg","FALSE","pictures/stimuli/E","pictures/stimuli/P","F","M","6","574b5c065bef98000eaf8bc3","04/26/2022, 07:40:52","E_F_keira_knightley.jpg P_M_boris_johnson.jpg",0.675738808945829,"32","Male","left",1,1,FALSE
6698,"E_F_Kate_Winslet.jpg","P_M_david_cameron.jpg","FALSE","pictures/stimuli/E","pictures/stimuli/P","F","M","6","574b5c065bef98000eaf8bc3","04/26/2022, 07:40:52","E_F_Kate_Winslet.jpg P_M_david_cameron.jpg",0.675738808945829,"32","Male","left",1,1,FALSE
22780,"E_F_keira_knightley.jpg","E_M_Hugh_Grant.jpg","TRUE","pictures/stimuli/E","pictures/stimuli/E","F","M","4","574b5c065bef98000eaf8bc3","04/26/2022, 07:40:52","E_F_keira_knightley.jpg E_M_Hugh_Grant.jpg",-0.421614812419193,"32","Male","left",1,1,FALSE
2476,"E_F_sandra_bullock.jpg","E_M_nicolas_cage.jpg","TRUE","pictures/stimuli/E","pictures/stimuli/E","F","M","6","574b5c065bef98000eaf8bc3","04/26/2022, 07:40:52","E_F_sandra_bullock.jpg E_M_nicolas_cage.jpg",0.675738808945829,"32","Male","left",0,1,TRUE
4776,"E_M_nicolas_cage.jpg","P_M_david_cameron.jpg","FALSE","pictures/stimuli/E","pictures/stimuli/P","M","M","6","574b5c065bef98000eaf8bc3","04/26/2022, 07:40:52","E_M_nicolas_cage.jpg P_M_david_cameron.jpg",0.675738808945829,"32","Male","left",1,1,FALSE
1973,"E_F_jennifer_aniston.jpg","P_M_david_cameron.jpg","FALSE","pictures/stimuli/E","pictures/stimuli/P","F","M","6","574b5c065bef98000eaf8bc3","04/26/2022, 07:40:52","E_F_jennifer_aniston.jpg P_M_david_cameron.jpg",0.675738808945829,"32","Male","left",1,1,FALSE
2089,"E_F_angelina_jolie.jpg","P_F_tehresy_may.jpg","FALSE","pictures/stimuli/E","pictures/stimuli/P","F","F","6","574b5c065bef98000eaf8bc3","04/26/2022, 07:40:52","E_F_angelina_jolie.jpg P_F_tehresy_may.jpg",0.675738808945829,"32","Male","left",1,1,FALSE
1719,"E_M_Hugh_Grant.jpg","P_M_donald_trump.jpg","FALSE","pictures/stimuli/E","pictures/stimuli/P","M","M","6","574b5c065bef98000eaf8bc3","04/26/2022, 07:40:52","E_M_Hugh_Grant.jpg P_M_donald_trump.jpg",0.675738808945829,"32","Male","left",1,1,FALSE
2187,"E_F_angelina_jolie.jpg","P_M_george_Wbush.jpg","FALSE","pictures/stimuli/E","pictures/stimuli/P","F","M","6","574b5c065bef98000eaf8bc3","04/26/2022, 07:40:52","E_F_angelina_jolie.jpg P_M_george_Wbush.jpg",0.675738808945829,"32","Male","left",1,1,FALSE
2140,"E_M_tom_hankes.jpg","P_M_david_cameron.jpg","FALSE","pictures/stimuli/E","pictures/stimuli/P","M","M","6","574b5c065bef98000eaf8bc3","04/26/2022, 07:40:52","E_M_tom_hankes.jpg P_M_david_cameron.jpg",0.675738808945829,"32","Male","left",1,1,FALSE
2130,"E_M_nicolas_cage.jpg","P_M_george_Wbush.jpg","FALSE","pictures/stimuli/E","pictures/stimuli/P","M","M","6","574b5c065bef98000eaf8bc3","04/26/2022, 07:40:52","E_M_nicolas_cage.jpg P_M_george_Wbush.jpg",0.675738808945829,"32","Male","left",1,1,FALSE
4951,"E_F_sandra_bullock.jpg","P_F_nicola_sturgeon.jpg","FALSE","pictures/stimuli/E","pictures/stimuli/P","F","F","5","574b5c065bef98000eaf8bc3","04/26/2022, 07:40:52","E_F_sandra_bullock.jpg P_F_nicola_sturgeon.jpg",0.127061998263318,"32","Male","left",0,1,TRUE
2829,"E_F_angelina_jolie.jpg","E_F_Judi_Dench.jpg","TRUE","pictures/stimuli/E","pictures/stimuli/E","F","F","3","574b5c065bef98000eaf8bc3","04/26/2022, 07:40:52","E_F_angelina_jolie.jpg E_F_Judi_Dench.jpg",-0.970291623101703,"32","Male","left",1,1,FALSE
4194,"E_F_angelina_jolie.jpg","E_F_sandra_bullock.jpg","TRUE","pictures/stimuli/E","pictures/stimuli/E","F","F","1","574b5c065bef98000eaf8bc3","04/26/2022, 07:40:52","E_F_angelina_jolie.jpg E_F_sandra_bullock.jpg",-2.06764524446672,"32","Male","left",1,0,TRUE
3252,"E_F_angelina_jolie.jpg","E_M_nicolas_cage.jpg","TRUE","pictures/stimuli/E","pictures/stimuli/E","F","M","5","574b5c065bef98000eaf8bc3","04/26/2022, 07:40:52","E_F_angelina_jolie.jpg E_M_nicolas_cage.jpg",0.127061998263318,"32","Male","left",1,1,FALSE
5621,"E_M_nicolas_cage.jpg","P_F_nicola_sturgeon.jpg","FALSE","pictures/stimuli/E","pictures/stimuli/P","M","F","6","574b5c065bef98000eaf8bc3","04/26/2022, 07:40:52","E_M_nicolas_cage.jpg P_F_nicola_sturgeon.jpg",0.675738808945829,"32","Male","left",1,1,FALSE
3725,"E_F_Judi_Dench.jpg","E_M_Hugh_Grant.jpg","TRUE","pictures/stimuli/E","pictures/stimuli/E","F","M","6","574b5c065bef98000eaf8bc3","04/26/2022, 07:40:52","E_F_Judi_Dench.jpg E_M_Hugh_Grant.jpg",0.675738808945829,"32","Male","left",1,1,FALSE
13977,"E_F_keira_knightley.jpg","P_M_george_Wbush.jpg","FALSE","pictures/stimuli/E","pictures/stimuli/P","F","M","6","574b5c065bef98000eaf8bc3","04/26/2022, 07:40:52","E_F_keira_knightley.jpg P_M_george_Wbush.jpg",0.675738808945829,"32","Male","left",1,1,FALSE
39316,"E_F_Judi_Dench.jpg","P_M_david_cameron.jpg","FALSE","pictures/stimuli/E","pictures/stimuli/P","F","M","6","574b5c065bef98000eaf8bc3","04/26/2022, 07:40:52","E_F_Judi_Dench.jpg P_M_david_cameron.jpg",0.675738808945829,"32","Male","left",1,1,TRUE
2406,"E_F_jennifer_aniston.jpg","E_M_Hugh_Grant.jpg","TRUE","pictures/stimuli/E","pictures/stimuli/E","F","M","6","574b5c065bef98000eaf8bc3","04/26/2022, 07:40:52","E_F_jennifer_aniston.jpg E_M_Hugh_Grant.jpg",0.675738808945829,"32","Male","left",1,1,FALSE
5308,"E_F_Kate_Winslet.jpg","E_F_keira_knightley.jpg","TRUE","pictures/stimuli/E","pictures/stimuli/E","F","F","3","574b5c065bef98000eaf8bc3","04/26/2022, 07:40:52","E_F_Kate_Winslet.jpg E_F_keira_knightley.jpg",-0.970291623101703,"32","Male","left",1,1,FALSE
7914,"P_M_david_cameron.jpg","P_M_Tony_Blair.jpg","TRUE","pictures/stimuli/P","pictures/stimuli/P","M","M","4","574b5c065bef98000eaf8bc3","04/26/2022, 07:40:52","P_M_david_cameron.jpg P_M_Tony_Blair.jpg",-0.421614812419193,"32","Male","left",1,1,FALSE
1572,"E_F_jennifer_aniston.jpg","P_M_george_Wbush.jpg","FALSE","pictures/stimuli/E","pictures/stimuli/P","F","M","6","574b5c065bef98000eaf8bc3","04/26/2022, 07:40:52","E_F_jennifer_aniston.jpg P_M_george_Wbush.jpg",0.675738808945829,"32","Male","left",1,1,FALSE
2374,"E_F_Judi_Dench.jpg","P_F_tehresy_may.jpg","FALSE","pictures/stimuli/E","pictures/stimuli/P","F","F","6","574b5c065bef98000eaf8bc3","04/26/2022, 07:40:52","E_F_Judi_Dench.jpg P_F_tehresy_may.jpg",0.675738808945829,"32","Male","left",1,1,FALSE
11577,"P_F_nicola_sturgeon.jpg","P_M_donald_trump.jpg","TRUE","pictures/stimuli/P","pictures/stimuli/P","F","M","6","574b5c065bef98000eaf8bc3","04/26/2022, 07:40:52","P_F_nicola_sturgeon.jpg P_M_donald_trump.jpg",0.675738808945829,"32","Male","left",1,1,FALSE
7062,"E_M_Hugh_Grant.jpg","P_F_nicola_sturgeon.jpg","FALSE","pictures/stimuli/E","pictures/stimuli/P","M","F","6","574b5c065bef98000eaf8bc3","04/26/2022, 07:40:52","E_M_Hugh_Grant.jpg P_F_nicola_sturgeon.jpg",0.675738808945829,"32","Male","left",1,1,FALSE
40160,"E_M_robert_de_niro.jpg","P_M_bill_clinton.jpg","FALSE","pictures/stimuli/E","pictures/stimuli/P","M","M","5","574b5c065bef98000eaf8bc3","04/26/2022, 07:40:52","E_M_robert_de_niro.jpg P_M_bill_clinton.jpg",0.127061998263318,"32","Male","left",1,1,TRUE
59563,"P_M_bill_clinton.jpg","P_M_george_Wbush.jpg","TRUE","pictures/stimuli/P","pictures/stimuli/P","M","M","6","574b5c065bef98000eaf8bc3","04/26/2022, 07:40:52","P_M_bill_clinton.jpg P_M_george_Wbush.jpg",0.675738808945829,"32","Male","left",1,1,TRUE
1884,"E_M_tom_hankes.jpg","P_F_hillary_clinton.jpg","FALSE","pictures/stimuli/E","pictures/stimuli/P","M","F","6","574b5c065bef98000eaf8bc3","04/26/2022, 07:40:52","E_M_tom_hankes.jpg P_F_hillary_clinton.jpg",0.675738808945829,"32","Male","left",1,1,FALSE
1734,"E_M_nicolas_cage.jpg","P_M_boris_johnson.jpg","FALSE","pictures/stimuli/E","pictures/stimuli/P","M","M","6","574b5c065bef98000eaf8bc3","04/26/2022, 07:40:52","E_M_nicolas_cage.jpg P_M_boris_johnson.jpg",0.675738808945829,"32","Male","left",1,1,FALSE
1574,"E_M_michael_caine.jpg","P_F_hillary_clinton.jpg","FALSE","pictures/stimuli/E","pictures/stimuli/P","M","F","5","574b5c065bef98000eaf8bc3","04/26/2022, 07:40:52","E_M_michael_caine.jpg P_F_hillary_clinton.jpg",0.127061998263318,"32","Male","left",1,1,FALSE
2364,"E_F_Kate_Winslet.jpg","E_M_michael_caine.jpg","TRUE","pictures/stimuli/E","pictures/stimuli/E","F","M","5","574b5c065bef98000eaf8bc3","04/26/2022, 07:40:52","E_F_Kate_Winslet.jpg E_M_michael_caine.jpg",0.127061998263318,"32","Male","left",1,1,FALSE
2013,"E_M_michael_caine.jpg","P_M_george_Wbush.jpg","FALSE","pictures/stimuli/E","pictures/stimuli/P","M","M","6","574b5c065bef98000eaf8bc3","04/26/2022, 07:40:52","E_M_michael_caine.jpg P_M_george_Wbush.jpg",0.675738808945829,"32","Male","left",1,1,FALSE
2310,"E_M_Hugh_Grant.jpg","P_M_boris_johnson.jpg","FALSE","pictures/stimuli/E","pictures/stimuli/P","M","M","4","574b5c065bef98000eaf8bc3","04/26/2022, 07:40:52","E_M_Hugh_Grant.jpg P_M_boris_johnson.jpg",-0.421614812419193,"32","Male","left",1,1,FALSE
3093,"E_F_angelina_jolie.jpg","E_M_Hugh_Grant.jpg","TRUE","pictures/stimuli/E","pictures/stimuli/E","F","M","4","574b5c065bef98000eaf8bc3","04/26/2022, 07:40:52","E_F_angelina_jolie.jpg E_M_Hugh_Grant.jpg",-0.421614812419193,"32","Male","left",1,1,FALSE
3124,"E_F_Kate_Winslet.jpg","P_F_hillary_clinton.jpg","FALSE","pictures/stimuli/E","pictures/stimuli/P","F","F","6","574b5c065bef98000eaf8bc3","04/26/2022, 07:40:52","E_F_Kate_Winslet.jpg P_F_hillary_clinton.jpg",0.675738808945829,"32","Male","left",1,1,FALSE
3511,"P_F_hillary_clinton.jpg","P_M_boris_johnson.jpg","TRUE","pictures/stimuli/P","pictures/stimuli/P","F","M","1","574b5c065bef98000eaf8bc3","04/26/2022, 07:40:52","P_F_hillary_clinton.jpg P_M_boris_johnson.jpg",-2.06764524446672,"32","Male","left",1,1,FALSE
2137,"E_F_Kate_Winslet.jpg","E_F_sandra_bullock.jpg","TRUE","pictures/stimuli/E","pictures/stimuli/E","F","F","3","574b5c065bef98000eaf8bc3","04/26/2022, 07:40:52","E_F_Kate_Winslet.jpg E_F_sandra_bullock.jpg",-0.970291623101703,"32","Male","left",1,0,TRUE
4581,"E_F_Judi_Dench.jpg","P_M_george_Wbush.jpg","FALSE","pictures/stimuli/E","pictures/stimuli/P","F","M","6","574b5c065bef98000eaf8bc3","04/26/2022, 07:40:52","E_F_Judi_Dench.jpg P_M_george_Wbush.jpg",0.675738808945829,"32","Male","left",1,1,FALSE
4004,"E_M_Hugh_Grant.jpg","E_M_tom_hankes.jpg","TRUE","pictures/stimuli/E","pictures/stimuli/E","M","M","2","574b5c065bef98000eaf8bc3","04/26/2022, 07:40:52","E_M_Hugh_Grant.jpg E_M_tom_hankes.jpg",-1.51896843378421,"32","Male","left",1,1,FALSE
7065,"E_F_jennifer_aniston.jpg","E_M_robert_de_niro.jpg","TRUE","pictures/stimuli/E","pictures/stimuli/E","F","M","6","574b5c065bef98000eaf8bc3","04/26/2022, 07:40:52","E_F_jennifer_aniston.jpg E_M_robert_de_niro.jpg",0.675738808945829,"32","Male","left",1,1,FALSE
2167,"E_F_sandra_bullock.jpg","P_M_bill_clinton.jpg","FALSE","pictures/stimuli/E","pictures/stimuli/P","F","M","6","574b5c065bef98000eaf8bc3","04/26/2022, 07:40:52","E_F_sandra_bullock.jpg P_M_bill_clinton.jpg",0.675738808945829,"32","Male","left",0,1,TRUE
1545,"E_F_Judi_Dench.jpg","P_M_donald_trump.jpg","FALSE","pictures/stimuli/E","pictures/stimuli/P","F","M","6","574b5c065bef98000eaf8bc3","04/26/2022, 07:40:52","E_F_Judi_Dench.jpg P_M_donald_trump.jpg",0.675738808945829,"32","Male","left",1,1,FALSE
2372,"P_M_boris_johnson.jpg","P_M_david_cameron.jpg","TRUE","pictures/stimuli/P","pictures/stimuli/P","M","M","1","574b5c065bef98000eaf8bc3","04/26/2022, 07:40:52","P_M_boris_johnson.jpg P_M_david_cameron.jpg",-2.06764524446672,"32","Male","left",1,1,FALSE
1973,"P_M_boris_johnson.jpg","P_M_george_Wbush.jpg","TRUE","pictures/stimuli/P","pictures/stimuli/P","M","M","1","574b5c065bef98000eaf8bc3","04/26/2022, 07:40:52","P_M_boris_johnson.jpg P_M_george_Wbush.jpg",-2.06764524446672,"32","Male","left",1,1,FALSE
5717,"E_F_Judi_Dench.jpg","E_M_tom_hankes.jpg","TRUE","pictures/stimuli/E","pictures/stimuli/E","F","M","1","574b5c065bef98000eaf8bc3","04/26/2022, 07:40:52","E_F_Judi_Dench.jpg E_M_tom_hankes.jpg",-2.06764524446672,"32","Male","left",1,1,FALSE
3916,"E_M_Hugh_Grant.jpg","P_M_Tony_Blair.jpg","FALSE","pictures/stimuli/E","pictures/stimuli/P","M","M","1","574b5c065bef98000eaf8bc3","04/26/2022, 07:40:52","E_M_Hugh_Grant.jpg P_M_Tony_Blair.jpg",-2.06764524446672,"32","Male","left",1,1,FALSE
3205,"E_M_michael_caine.jpg","P_M_david_cameron.jpg","FALSE","pictures/stimuli/E","pictures/stimuli/P","M","M","4","574b5c065bef98000eaf8bc3","04/26/2022, 07:40:52","E_M_michael_caine.jpg P_M_david_cameron.jpg",-0.421614812419193,"32","Male","left",1,1,FALSE
1919,"E_F_jennifer_aniston.jpg","E_M_nicolas_cage.jpg","TRUE","pictures/stimuli/E","pictures/stimuli/E","F","M","6","574b5c065bef98000eaf8bc3","04/26/2022, 07:40:52","E_F_jennifer_aniston.jpg E_M_nicolas_cage.jpg",0.675738808945829,"32","Male","left",1,1,FALSE
1597,"E_M_Hugh_Grant.jpg","P_M_george_Wbush.jpg","FALSE","pictures/stimuli/E","pictures/stimuli/P","M","M","6","574b5c065bef98000eaf8bc3","04/26/2022, 07:40:52","E_M_Hugh_Grant.jpg P_M_george_Wbush.jpg",0.675738808945829,"32","Male","left",1,1,FALSE
3241,"E_M_michael_caine.jpg","E_M_tom_hankes.jpg","TRUE","pictures/stimuli/E","pictures/stimuli/E","M","M","2","574b5c065bef98000eaf8bc3","04/26/2022, 07:40:52","E_M_michael_caine.jpg E_M_tom_hankes.jpg",-1.51896843378421,"32","Male","left",1,1,FALSE
1562,"E_F_Judi_Dench.jpg","P_M_Tony_Blair.jpg","FALSE","pictures/stimuli/E","pictures/stimuli/P","F","M","6","574b5c065bef98000eaf8bc3","04/26/2022, 07:40:52","E_F_Judi_Dench.jpg P_M_Tony_Blair.jpg",0.675738808945829,"32","Male","left",1,1,FALSE
4940,"E_F_sandra_bullock.jpg","P_F_tehresy_may.jpg","FALSE","pictures/stimuli/E","pictures/stimuli/P","F","F","6","574b5c065bef98000eaf8bc3","04/26/2022, 07:40:52","E_F_sandra_bullock.jpg P_F_tehresy_may.jpg",0.675738808945829,"32","Male","left",0,1,TRUE
2589,"P_M_bill_clinton.jpg","P_M_Tony_Blair.jpg","TRUE","pictures/stimuli/P","pictures/stimuli/P","M","M","1","574b5c065bef98000eaf8bc3","04/26/2022, 07:40:52","P_M_bill_clinton.jpg P_M_Tony_Blair.jpg",-2.06764524446672,"32","Male","left",1,1,FALSE
2581,"P_F_hillary_clinton.jpg","P_M_bill_clinton.jpg","TRUE","pictures/stimuli/P","pictures/stimuli/P","F","M","1","574b5c065bef98000eaf8bc3","04/26/2022, 07:40:52","P_F_hillary_clinton.jpg P_M_bill_clinton.jpg",-2.06764524446672,"32","Male","left",1,1,FALSE
2414,"E_M_robert_de_niro.jpg","P_M_george_Wbush.jpg","FALSE","pictures/stimuli/E","pictures/stimuli/P","M","M","6","574b5c065bef98000eaf8bc3","04/26/2022, 07:40:52","E_M_robert_de_niro.jpg P_M_george_Wbush.jpg",0.675738808945829,"32","Male","left",1,1,FALSE
3175,"E_M_robert_de_niro.jpg","P_F_tehresy_may.jpg","FALSE","pictures/stimuli/E","pictures/stimuli/P","M","F","5","574b5c065bef98000eaf8bc3","04/26/2022, 07:40:52","E_M_robert_de_niro.jpg P_F_tehresy_may.jpg",0.127061998263318,"32","Male","left",1,1,FALSE
2030,"E_M_robert_de_niro.jpg","P_M_donald_trump.jpg","FALSE","pictures/stimuli/E","pictures/stimuli/P","M","M","5","574b5c065bef98000eaf8bc3","04/26/2022, 07:40:52","E_M_robert_de_niro.jpg P_M_donald_trump.jpg",0.127061998263318,"32","Male","left",1,1,FALSE
2106,"E_F_jennifer_aniston.jpg","P_F_tehresy_may.jpg","FALSE","pictures/stimuli/E","pictures/stimuli/P","F","F","6","574b5c065bef98000eaf8bc3","04/26/2022, 07:40:52","E_F_jennifer_aniston.jpg P_F_tehresy_may.jpg",0.675738808945829,"32","Male","left",1,1,FALSE
4116,"E_M_michael_caine.jpg","E_M_robert_de_niro.jpg","TRUE","pictures/stimuli/E","pictures/stimuli/E","M","M","1","574b5c065bef98000eaf8bc3","04/26/2022, 07:40:52","E_M_michael_caine.jpg E_M_robert_de_niro.jpg",-2.06764524446672,"32","Male","left",1,1,FALSE
8399,"E_F_Kate_Winslet.jpg","E_M_Hugh_Grant.jpg","TRUE","pictures/stimuli/E","pictures/stimuli/E","F","M","5","574b5c065bef98000eaf8bc3","04/26/2022, 07:40:52","E_F_Kate_Winslet.jpg E_M_Hugh_Grant.jpg",0.127061998263318,"32","Male","left",1,1,FALSE
6408,"E_M_michael_caine.jpg","P_F_nicola_sturgeon.jpg","FALSE","pictures/stimuli/E","pictures/stimuli/P","M","F","6","574b5c065bef98000eaf8bc3","04/26/2022, 07:40:52","E_M_michael_caine.jpg P_F_nicola_sturgeon.jpg",0.675738808945829,"32","Male","left",1,1,FALSE
9731,"E_M_nicolas_cage.jpg","E_M_robert_de_niro.jpg","TRUE","pictures/stimuli/E","pictures/stimuli/E","M","M","1","574b5c065bef98000eaf8bc3","04/26/2022, 07:40:52","E_M_nicolas_cage.jpg E_M_robert_de_niro.jpg",-2.06764524446672,"32","Male","left",1,1,FALSE
5672,"E_F_jennifer_aniston.jpg","P_M_Tony_Blair.jpg","FALSE","pictures/stimuli/E","pictures/stimuli/P","F","M","6","574b5c065bef98000eaf8bc3","04/26/2022, 07:40:52","E_F_jennifer_aniston.jpg P_M_Tony_Blair.jpg",0.675738808945829,"32","Male","left",1,1,FALSE
2437,"E_F_angelina_jolie.jpg","E_F_keira_knightley.jpg","TRUE","pictures/stimuli/E","pictures/stimuli/E","F","F","2","574b5c065bef98000eaf8bc3","04/26/2022, 07:40:52","E_F_angelina_jolie.jpg E_F_keira_knightley.jpg",-1.51896843378421,"32","Male","left",1,1,FALSE
59076,"E_F_Judi_Dench.jpg","P_F_nicola_sturgeon.jpg","FALSE","pictures/stimuli/E","pictures/stimuli/P","F","F","6","574b5c065bef98000eaf8bc3","04/26/2022, 07:40:52","E_F_Judi_Dench.jpg P_F_nicola_sturgeon.jpg",0.675738808945829,"32","Male","left",1,1,TRUE
2885,"E_M_tom_hankes.jpg","P_M_Tony_Blair.jpg","FALSE","pictures/stimuli/E","pictures/stimuli/P","M","M","6","574b5c065bef98000eaf8bc3","04/26/2022, 07:40:52","E_M_tom_hankes.jpg P_M_Tony_Blair.jpg",0.675738808945829,"32","Male","left",1,1,FALSE
3528,"P_M_bill_clinton.jpg","P_M_boris_johnson.jpg","TRUE","pictures/stimuli/P","pictures/stimuli/P","M","M","1","574b5c065bef98000eaf8bc3","04/26/2022, 07:40:52","P_M_bill_clinton.jpg P_M_boris_johnson.jpg",-2.06764524446672,"32","Male","left",1,1,FALSE
45499,"P_F_hillary_clinton.jpg","P_M_george_Wbush.jpg","TRUE","pictures/stimuli/P","pictures/stimuli/P","F","M","3","574b5c065bef98000eaf8bc3","04/26/2022, 07:40:52","P_F_hillary_clinton.jpg P_M_george_Wbush.jpg",-0.970291623101703,"32","Male","left",1,1,TRUE
1486,"E_F_angelina_jolie.jpg","P_M_boris_johnson.jpg","FALSE","pictures/stimuli/E","pictures/stimuli/P","F","M","6","574b5c065bef98000eaf8bc3","04/26/2022, 07:40:52","E_F_angelina_jolie.jpg P_M_boris_johnson.jpg",0.675738808945829,"32","Male","left",1,1,FALSE
6405,"E_M_nicolas_cage.jpg","E_M_tom_hankes.jpg","TRUE","pictures/stimuli/E","pictures/stimuli/E","M","M","1","574b5c065bef98000eaf8bc3","04/26/2022, 07:40:52","E_M_nicolas_cage.jpg E_M_tom_hankes.jpg",-2.06764524446672,"32","Male","left",1,1,FALSE
2396,"P_M_donald_trump.jpg","P_M_george_Wbush.jpg","TRUE","pictures/stimuli/P","pictures/stimuli/P","M","M","1","574b5c065bef98000eaf8bc3","04/26/2022, 07:40:52","P_M_donald_trump.jpg P_M_george_Wbush.jpg",-2.06764524446672,"32","Male","left",1,1,FALSE
2519,"E_F_Judi_Dench.jpg","E_M_michael_caine.jpg","TRUE","pictures/stimuli/E","pictures/stimuli/E","F","M","1","574b5c065bef98000eaf8bc3","04/26/2022, 07:40:52","E_F_Judi_Dench.jpg E_M_michael_caine.jpg",-2.06764524446672,"32","Male","left",1,1,FALSE
5046,"E_F_keira_knightley.jpg","P_M_donald_trump.jpg","FALSE","pictures/stimuli/E","pictures/stimuli/P","F","M","6","574b5c065bef98000eaf8bc3","04/26/2022, 07:40:52","E_F_keira_knightley.jpg P_M_donald_trump.jpg",0.675738808945829,"32","Male","left",1,1,FALSE
5914,"E_M_tom_hankes.jpg","P_F_tehresy_may.jpg","FALSE","pictures/stimuli/E","pictures/stimuli/P","M","F","6","574b5c065bef98000eaf8bc3","04/26/2022, 07:40:52","E_M_tom_hankes.jpg P_F_tehresy_may.jpg",0.675738808945829,"32","Male","left",1,1,FALSE
3597,"P_F_nicola_sturgeon.jpg","P_M_george_Wbush.jpg","TRUE","pictures/stimuli/P","pictures/stimuli/P","F","M","6","574b5c065bef98000eaf8bc3","04/26/2022, 07:40:52","P_F_nicola_sturgeon.jpg P_M_george_Wbush.jpg",0.675738808945829,"32","Male","left",1,1,FALSE
1667,"E_F_sandra_bullock.jpg","P_M_Tony_Blair.jpg","FALSE","pictures/stimuli/E","pictures/stimuli/P","F","M","6","574b5c065bef98000eaf8bc3","04/26/2022, 07:40:52","E_F_sandra_bullock.jpg P_M_Tony_Blair.jpg",0.675738808945829,"32","Male","left",0,1,TRUE
8003,"P_F_tehresy_may.jpg","P_M_boris_johnson.jpg","TRUE","pictures/stimuli/P","pictures/stimuli/P","F","M","2","574b5c065bef98000eaf8bc3","04/26/2022, 07:40:52","P_F_tehresy_may.jpg P_M_boris_johnson.jpg",-1.51896843378421,"32","Male","left",1,1,FALSE
2340,"E_F_Judi_Dench.jpg","E_F_keira_knightley.jpg","TRUE","pictures/stimuli/E","pictures/stimuli/E","F","F","6","574b5c065bef98000eaf8bc3","04/26/2022, 07:40:52","E_F_Judi_Dench.jpg E_F_keira_knightley.jpg",0.675738808945829,"32","Male","left",1,1,FALSE
17690,"E_F_sandra_bullock.jpg","P_F_hillary_clinton.jpg","FALSE","pictures/stimuli/E","pictures/stimuli/P","F","F","6","574b5c065bef98000eaf8bc3","04/26/2022, 07:40:52","E_F_sandra_bullock.jpg P_F_hillary_clinton.jpg",0.675738808945829,"32","Male","left",0,1,TRUE
3448,"E_F_Kate_Winslet.jpg","P_M_boris_johnson.jpg","FALSE","pictures/stimuli/E","pictures/stimuli/P","F","M","6","574b5c065bef98000eaf8bc3","04/26/2022, 07:40:52","E_F_Kate_Winslet.jpg P_M_boris_johnson.jpg",0.675738808945829,"32","Male","left",1,1,FALSE
2029,"E_F_Judi_Dench.jpg","P_M_bill_clinton.jpg","FALSE","pictures/stimuli/E","pictures/stimuli/P","F","M","6","574b5c065bef98000eaf8bc3","04/26/2022, 07:40:52","E_F_Judi_Dench.jpg P_M_bill_clinton.jpg",0.675738808945829,"32","Male","left",1,1,FALSE
2084,"E_F_sandra_bullock.jpg","P_M_george_Wbush.jpg","FALSE","pictures/stimuli/E","pictures/stimuli/P","F","M","6","574b5c065bef98000eaf8bc3","04/26/2022, 07:40:52","E_F_sandra_bullock.jpg P_M_george_Wbush.jpg",0.675738808945829,"32","Male","left",0,1,TRUE
3308,"E_F_sandra_bullock.jpg","P_M_boris_johnson.jpg","FALSE","pictures/stimuli/E","pictures/stimuli/P","F","M","6","574b5c065bef98000eaf8bc3","04/26/2022, 07:40:52","E_F_sandra_bullock.jpg P_M_boris_johnson.jpg",0.675738808945829,"32","Male","left",0,1,TRUE
2118,"P_F_nicola_sturgeon.jpg","P_F_tehresy_may.jpg","TRUE","pictures/stimuli/P","pictures/stimuli/P","F","F","3","574b5c065bef98000eaf8bc3","04/26/2022, 07:40:52","P_F_nicola_sturgeon.jpg P_F_tehresy_may.jpg",-0.970291623101703,"32","Male","left",1,1,FALSE
2133,"E_F_jennifer_aniston.jpg","E_F_sandra_bullock.jpg","TRUE","pictures/stimuli/E","pictures/stimuli/E","F","F","1","574b5c065bef98000eaf8bc3","04/26/2022, 07:40:52","E_F_jennifer_aniston.jpg E_F_sandra_bullock.jpg",-2.06764524446672,"32","Male","left",1,0,TRUE
1509,"E_F_Kate_Winslet.jpg","P_M_george_Wbush.jpg","FALSE","pictures/stimuli/E","pictures/stimuli/P","F","M","6","574b5c065bef98000eaf8bc3","04/26/2022, 07:40:52","E_F_Kate_Winslet.jpg P_M_george_Wbush.jpg",0.675738808945829,"32","Male","left",1,1,FALSE
3101,"E_F_angelina_jolie.jpg","E_F_Kate_Winslet.jpg","TRUE","pictures/stimuli/E","pictures/stimuli/E","F","F","1","574b5c065bef98000eaf8bc3","04/26/2022, 07:40:52","E_F_angelina_jolie.jpg E_F_Kate_Winslet.jpg",-2.06764524446672,"32","Male","left",1,1,FALSE
5455,"E_F_jennifer_aniston.jpg","P_F_nicola_sturgeon.jpg","FALSE","pictures/stimuli/E","pictures/stimuli/P","F","F","6","574b5c065bef98000eaf8bc3","04/26/2022, 07:40:52","E_F_jennifer_aniston.jpg P_F_nicola_sturgeon.jpg",0.675738808945829,"32","Male","left",1,1,FALSE
2879,"P_F_hillary_clinton.jpg","P_M_david_cameron.jpg","TRUE","pictures/stimuli/P","pictures/stimuli/P","F","M","1","574b5c065bef98000eaf8bc3","04/26/2022, 07:40:52","P_F_hillary_clinton.jpg P_M_david_cameron.jpg",-2.06764524446672,"32","Male","left",1,1,FALSE
1789,"E_F_sandra_bullock.jpg","E_M_michael_caine.jpg","TRUE","pictures/stimuli/E","pictures/stimuli/E","F","M","6","574b5c065bef98000eaf8bc3","04/26/2022, 07:40:52","E_F_sandra_bullock.jpg E_M_michael_caine.jpg",0.675738808945829,"32","Male","left",0,1,TRUE
2671,"E_M_michael_caine.jpg","E_M_nicolas_cage.jpg","TRUE","pictures/stimuli/E","pictures/stimuli/E","M","M","3","574b5c065bef98000eaf8bc3","04/26/2022, 07:40:52","E_M_michael_caine.jpg E_M_nicolas_cage.jpg",-0.970291623101703,"32","Male","left",1,1,FALSE
2940,"E_F_Kate_Winslet.jpg","P_M_Tony_Blair.jpg","FALSE","pictures/stimuli/E","pictures/stimuli/P","F","M","6","574b5c065bef98000eaf8bc3","04/26/2022, 07:40:52","E_F_Kate_Winslet.jpg P_M_Tony_Blair.jpg",0.675738808945829,"32","Male","left",1,1,FALSE
3732,"E_M_tom_hankes.jpg","P_M_bill_clinton.jpg","FALSE","pictures/stimuli/E","pictures/stimuli/P","M","M","6","574b5c065bef98000eaf8bc3","04/26/2022, 07:40:52","E_M_tom_hankes.jpg P_M_bill_clinton.jpg",0.675738808945829,"32","Male","left",1,1,FALSE
2629,"E_F_angelina_jolie.jpg","P_F_hillary_clinton.jpg","FALSE","pictures/stimuli/E","pictures/stimuli/P","F","F","6","574b5c065bef98000eaf8bc3","04/26/2022, 07:40:52","E_F_angelina_jolie.jpg P_F_hillary_clinton.jpg",0.675738808945829,"32","Male","left",1,1,FALSE
5813,"P_M_bill_clinton.jpg","P_M_david_cameron.jpg","TRUE","pictures/stimuli/P","pictures/stimuli/P","M","M","4","574b5c065bef98000eaf8bc3","04/26/2022, 07:40:52","P_M_bill_clinton.jpg P_M_david_cameron.jpg",-0.421614812419193,"32","Male","left",1,1,FALSE
1964,"E_F_angelina_jolie.jpg","P_M_Tony_Blair.jpg","FALSE","pictures/stimuli/E","pictures/stimuli/P","F","M","6","574b5c065bef98000eaf8bc3","04/26/2022, 07:40:52","E_F_angelina_jolie.jpg P_M_Tony_Blair.jpg",0.675738808945829,"32","Male","left",1,1,FALSE
3018,"E_M_Hugh_Grant.jpg","E_M_robert_de_niro.jpg","TRUE","pictures/stimuli/E","pictures/stimuli/E","M","M","3","574b5c065bef98000eaf8bc3","04/26/2022, 07:40:52","E_M_Hugh_Grant.jpg E_M_robert_de_niro.jpg",-0.970291623101703,"32","Male","left",1,1,FALSE
1815,"E_F_sandra_bullock.jpg","E_M_robert_de_niro.jpg","TRUE","pictures/stimuli/E","pictures/stimuli/E","F","M","6","574b5c065bef98000eaf8bc3","04/26/2022, 07:40:52","E_F_sandra_bullock.jpg E_M_robert_de_niro.jpg",0.675738808945829,"32","Male","left",0,1,TRUE
1981,"E_M_tom_hankes.jpg","P_M_boris_johnson.jpg","FALSE","pictures/stimuli/E","pictures/stimuli/P","M","M","6","574b5c065bef98000eaf8bc3","04/26/2022, 07:40:52","E_M_tom_hankes.jpg P_M_boris_johnson.jpg",0.675738808945829,"32","Male","left",1,1,FALSE
1590,"E_F_Kate_Winslet.jpg","P_M_bill_clinton.jpg","FALSE","pictures/stimuli/E","pictures/stimuli/P","F","M","6","574b5c065bef98000eaf8bc3","04/26/2022, 07:40:52","E_F_Kate_Winslet.jpg P_M_bill_clinton.jpg",0.675738808945829,"32","Male","left",1,1,FALSE
4306,"E_F_keira_knightley.jpg","P_F_hillary_clinton.jpg","FALSE","pictures/stimuli/E","pictures/stimuli/P","F","F","6","574b5c065bef98000eaf8bc3","04/26/2022, 07:40:52","E_F_keira_knightley.jpg P_F_hillary_clinton.jpg",0.675738808945829,"32","Male","left",1,1,FALSE
1780,"P_M_boris_johnson.jpg","P_M_donald_trump.jpg","TRUE","pictures/stimuli/P","pictures/stimuli/P","M","M","1","574b5c065bef98000eaf8bc3","04/26/2022, 07:40:52","P_M_boris_johnson.jpg P_M_donald_trump.jpg",-2.06764524446672,"32","Male","left",1,1,FALSE
2015,"E_F_keira_knightley.jpg","E_M_nicolas_cage.jpg","TRUE","pictures/stimuli/E","pictures/stimuli/E","F","M","6","574b5c065bef98000eaf8bc3","04/26/2022, 07:40:52","E_F_keira_knightley.jpg E_M_nicolas_cage.jpg",0.675738808945829,"32","Male","left",1,1,FALSE
2112,"P_F_nicola_sturgeon.jpg","P_M_bill_clinton.jpg","TRUE","pictures/stimuli/P","pictures/stimuli/P","F","M","6","574b5c065bef98000eaf8bc3","04/26/2022, 07:40:52","P_F_nicola_sturgeon.jpg P_M_bill_clinton.jpg",0.675738808945829,"32","Male","left",1,1,FALSE
2333,"E_M_michael_caine.jpg","P_M_boris_johnson.jpg","FALSE","pictures/stimuli/E","pictures/stimuli/P","M","M","6","574b5c065bef98000eaf8bc3","04/26/2022, 07:40:52","E_M_michael_caine.jpg P_M_boris_johnson.jpg",0.675738808945829,"32","Male","left",1,1,FALSE
2399,"E_M_robert_de_niro.jpg","P_F_nicola_sturgeon.jpg","FALSE","pictures/stimuli/E","pictures/stimuli/P","M","F","6","574b5c065bef98000eaf8bc3","04/26/2022, 07:40:52","E_M_robert_de_niro.jpg P_F_nicola_sturgeon.jpg",0.675738808945829,"32","Male","left",1,1,FALSE
2651,"E_F_jennifer_aniston.jpg","P_F_hillary_clinton.jpg","FALSE","pictures/stimuli/E","pictures/stimuli/P","F","F","6","574b5c065bef98000eaf8bc3","04/26/2022, 07:40:52","E_F_jennifer_aniston.jpg P_F_hillary_clinton.jpg",0.675738808945829,"32","Male","left",1,1,FALSE
1629,"E_F_angelina_jolie.jpg","E_M_michael_caine.jpg","TRUE","pictures/stimuli/E","pictures/stimuli/E","F","M","6","574b5c065bef98000eaf8bc3","04/26/2022, 07:40:52","E_F_angelina_jolie.jpg E_M_michael_caine.jpg",0.675738808945829,"32","Male","left",1,1,FALSE
4388,"P_F_hillary_clinton.jpg","P_M_Tony_Blair.jpg","TRUE","pictures/stimuli/P","pictures/stimuli/P","F","M","3","574b5c065bef98000eaf8bc3","04/26/2022, 07:40:52","P_F_hillary_clinton.jpg P_M_Tony_Blair.jpg",-0.970291623101703,"32","Male","left",1,1,FALSE
1725,"E_M_michael_caine.jpg","P_M_bill_clinton.jpg","FALSE","pictures/stimuli/E","pictures/stimuli/P","M","M","6","574b5c065bef98000eaf8bc3","04/26/2022, 07:40:52","E_M_michael_caine.jpg P_M_bill_clinton.jpg",0.675738808945829,"32","Male","left",1,1,FALSE
3029,"E_M_robert_de_niro.jpg","E_M_tom_hankes.jpg","TRUE","pictures/stimuli/E","pictures/stimuli/E","M","M","1","574b5c065bef98000eaf8bc3","04/26/2022, 07:40:52","E_M_robert_de_niro.jpg E_M_tom_hankes.jpg",-2.06764524446672,"32","Male","left",1,1,FALSE
2031,"E_M_robert_de_niro.jpg","P_M_boris_johnson.jpg","FALSE","pictures/stimuli/E","pictures/stimuli/P","M","M","6","574b5c065bef98000eaf8bc3","04/26/2022, 07:40:52","E_M_robert_de_niro.jpg P_M_boris_johnson.jpg",0.675738808945829,"32","Male","left",1,1,FALSE
2058,"E_M_tom_hankes.jpg","P_M_george_Wbush.jpg","FALSE","pictures/stimuli/E","pictures/stimuli/P","M","M","6","574b5c065bef98000eaf8bc3","04/26/2022, 07:40:52","E_M_tom_hankes.jpg P_M_george_Wbush.jpg",0.675738808945829,"32","Male","left",1,1,FALSE
2637,"E_F_Judi_Dench.jpg","P_M_boris_johnson.jpg","FALSE","pictures/stimuli/E","pictures/stimuli/P","F","M","6","574b5c065bef98000eaf8bc3","04/26/2022, 07:40:52","E_F_Judi_Dench.jpg P_M_boris_johnson.jpg",0.675738808945829,"32","Male","left",1,1,FALSE
1590,"E_F_angelina_jolie.jpg","P_F_nicola_sturgeon.jpg","FALSE","pictures/stimuli/E","pictures/stimuli/P","F","F","6","574b5c065bef98000eaf8bc3","04/26/2022, 07:40:52","E_F_angelina_jolie.jpg P_F_nicola_sturgeon.jpg",0.675738808945829,"32","Male","left",1,1,FALSE
1765,"E_M_robert_de_niro.jpg","P_F_hillary_clinton.jpg","FALSE","pictures/stimuli/E","pictures/stimuli/P","M","F","6","574b5c065bef98000eaf8bc3","04/26/2022, 07:40:52","E_M_robert_de_niro.jpg P_F_hillary_clinton.jpg",0.675738808945829,"32","Male","left",1,1,FALSE
1795,"E_F_Kate_Winslet.jpg","E_M_nicolas_cage.jpg","TRUE","pictures/stimuli/E","pictures/stimuli/E","F","M","6","574b5c065bef98000eaf8bc3","04/26/2022, 07:40:52","E_F_Kate_Winslet.jpg E_M_nicolas_cage.jpg",0.675738808945829,"32","Male","left",1,1,FALSE
1990,"E_M_tom_hankes.jpg","P_M_donald_trump.jpg","FALSE","pictures/stimuli/E","pictures/stimuli/P","M","M","6","574b5c065bef98000eaf8bc3","04/26/2022, 07:40:52","E_M_tom_hankes.jpg P_M_donald_trump.jpg",0.675738808945829,"32","Male","left",1,1,FALSE
2334,"P_F_tehresy_may.jpg","P_M_Tony_Blair.jpg","TRUE","pictures/stimuli/P","pictures/stimuli/P","F","M","4","574b5c065bef98000eaf8bc3","04/26/2022, 07:40:52","P_F_tehresy_may.jpg P_M_Tony_Blair.jpg",-0.421614812419193,"32","Male","left",1,1,FALSE
3597,"E_F_angelina_jolie.jpg","E_F_jennifer_aniston.jpg","TRUE","pictures/stimuli/E","pictures/stimuli/E","F","F","2","574b5c065bef98000eaf8bc3","04/26/2022, 07:40:52","E_F_angelina_jolie.jpg E_F_jennifer_aniston.jpg",-1.51896843378421,"32","Male","left",1,1,FALSE
2052,"E_M_nicolas_cage.jpg","P_F_hillary_clinton.jpg","FALSE","pictures/stimuli/E","pictures/stimuli/P","M","F","6","574b5c065bef98000eaf8bc3","04/26/2022, 07:40:52","E_M_nicolas_cage.jpg P_F_hillary_clinton.jpg",0.675738808945829,"32","Male","left",1,1,FALSE
2482,"P_F_hillary_clinton.jpg","P_M_donald_trump.jpg","TRUE","pictures/stimuli/P","pictures/stimuli/P","F","M","1","574b5c065bef98000eaf8bc3","04/26/2022, 07:40:52","P_F_hillary_clinton.jpg P_M_donald_trump.jpg",-2.06764524446672,"32","Male","left",1,1,FALSE
2175,"P_F_tehresy_may.jpg","P_M_donald_trump.jpg","TRUE","pictures/stimuli/P","pictures/stimuli/P","F","M","5","574b5c065bef98000eaf8bc3","04/26/2022, 07:40:52","P_F_tehresy_may.jpg P_M_donald_trump.jpg",0.127061998263318,"32","Male","left",1,1,FALSE
3563,"P_F_hillary_clinton.jpg","P_F_nicola_sturgeon.jpg","TRUE","pictures/stimuli/P","pictures/stimuli/P","F","F","5","574b5c065bef98000eaf8bc3","04/26/2022, 07:40:52","P_F_hillary_clinton.jpg P_F_nicola_sturgeon.jpg",0.127061998263318,"32","Male","left",1,1,FALSE
6677,"E_F_Kate_Winslet.jpg","P_F_hillary_clinton.jpg","FALSE","pictures/stimuli/E","pictures/stimuli/P","F","F","4","59497c498fb2140001afda85","04/26/2022, 07:20:30","E_F_Kate_Winslet.jpg P_F_hillary_clinton.jpg",-0.0076916334607615,"29","Female","right",0,0,TRUE
3460,"P_M_bill_clinton.jpg","P_M_george_Wbush.jpg","TRUE","pictures/stimuli/P","pictures/stimuli/P","M","M","6","59497c498fb2140001afda85","04/26/2022, 07:20:30","P_M_bill_clinton.jpg P_M_george_Wbush.jpg",1.45371872408398,"29","Female","right",0,1,TRUE
3724,"E_F_Kate_Winslet.jpg","P_M_donald_trump.jpg","FALSE","pictures/stimuli/E","pictures/stimuli/P","F","M","6","59497c498fb2140001afda85","04/26/2022, 07:20:30","E_F_Kate_Winslet.jpg P_M_donald_trump.jpg",1.45371872408398,"29","Female","right",0,1,TRUE
4376,"E_F_Kate_Winslet.jpg","E_F_sandra_bullock.jpg","TRUE","pictures/stimuli/E","pictures/stimuli/E","F","F","5","59497c498fb2140001afda85","04/26/2022, 07:20:30","E_F_Kate_Winslet.jpg E_F_sandra_bullock.jpg",0.72301354531161,"29","Female","right",0,1,TRUE
4215,"E_F_Kate_Winslet.jpg","E_M_robert_de_niro.jpg","TRUE","pictures/stimuli/E","pictures/stimuli/E","F","M","6","59497c498fb2140001afda85","04/26/2022, 07:20:30","E_F_Kate_Winslet.jpg E_M_robert_de_niro.jpg",1.45371872408398,"29","Female","right",0,0,TRUE
3278,"E_M_michael_caine.jpg","P_M_david_cameron.jpg","FALSE","pictures/stimuli/E","pictures/stimuli/P","M","M","5","59497c498fb2140001afda85","04/26/2022, 07:20:30","E_M_michael_caine.jpg P_M_david_cameron.jpg",0.72301354531161,"29","Female","right",0,1,TRUE
3521,"E_F_jennifer_aniston.jpg","E_F_Kate_Winslet.jpg","TRUE","pictures/stimuli/E","pictures/stimuli/E","F","F","4","59497c498fb2140001afda85","04/26/2022, 07:20:30","E_F_jennifer_aniston.jpg E_F_Kate_Winslet.jpg",-0.0076916334607615,"29","Female","right",1,0,TRUE
7277,"P_F_nicola_sturgeon.jpg","P_M_Tony_Blair.jpg","TRUE","pictures/stimuli/P","pictures/stimuli/P","F","M","2","59497c498fb2140001afda85","04/26/2022, 07:20:30","P_F_nicola_sturgeon.jpg P_M_Tony_Blair.jpg",-1.4691019910055,"29","Female","right",1,1,TRUE
4470,"E_M_robert_de_niro.jpg","P_M_george_Wbush.jpg","FALSE","pictures/stimuli/E","pictures/stimuli/P","M","M","4","59497c498fb2140001afda85","04/26/2022, 07:20:30","E_M_robert_de_niro.jpg P_M_george_Wbush.jpg",-0.0076916334607615,"29","Female","right",0,1,TRUE
3751,"P_M_bill_clinton.jpg","P_M_donald_trump.jpg","TRUE","pictures/stimuli/P","pictures/stimuli/P","M","M","4","59497c498fb2140001afda85","04/26/2022, 07:20:30","P_M_bill_clinton.jpg P_M_donald_trump.jpg",-0.0076916334607615,"29","Female","right",0,1,TRUE
4179,"E_M_robert_de_niro.jpg","P_F_hillary_clinton.jpg","FALSE","pictures/stimuli/E","pictures/stimuli/P","M","F","4","59497c498fb2140001afda85","04/26/2022, 07:20:30","E_M_robert_de_niro.jpg P_F_hillary_clinton.jpg",-0.0076916334607615,"29","Female","right",0,0,TRUE
5731,"E_F_Kate_Winslet.jpg","E_M_Hugh_Grant.jpg","TRUE","pictures/stimuli/E","pictures/stimuli/E","F","M","3","59497c498fb2140001afda85","04/26/2022, 07:20:30","E_F_Kate_Winslet.jpg E_M_Hugh_Grant.jpg",-0.738396812233132,"29","Female","right",0,1,TRUE
4092,"E_F_angelina_jolie.jpg","P_M_Tony_Blair.jpg","FALSE","pictures/stimuli/E","pictures/stimuli/P","F","M","6","59497c498fb2140001afda85","04/26/2022, 07:20:30","E_F_angelina_jolie.jpg P_M_Tony_Blair.jpg",1.45371872408398,"29","Female","right",1,1,TRUE
3618,"P_F_nicola_sturgeon.jpg","P_M_david_cameron.jpg","TRUE","pictures/stimuli/P","pictures/stimuli/P","F","M","1","59497c498fb2140001afda85","04/26/2022, 07:20:30","P_F_nicola_sturgeon.jpg P_M_david_cameron.jpg",-2.19980716977787,"29","Female","right",1,1,TRUE
3107,"E_F_Judi_Dench.jpg","P_M_bill_clinton.jpg","FALSE","pictures/stimuli/E","pictures/stimuli/P","F","M","4","59497c498fb2140001afda85","04/26/2022, 07:20:30","E_F_Judi_Dench.jpg P_M_bill_clinton.jpg",-0.0076916334607615,"29","Female","right",1,0,TRUE
5395,"E_M_robert_de_niro.jpg","P_M_donald_trump.jpg","FALSE","pictures/stimuli/E","pictures/stimuli/P","M","M","6","59497c498fb2140001afda85","04/26/2022, 07:20:30","E_M_robert_de_niro.jpg P_M_donald_trump.jpg",1.45371872408398,"29","Female","right",0,1,TRUE
3215,"E_M_michael_caine.jpg","P_M_Tony_Blair.jpg","FALSE","pictures/stimuli/E","pictures/stimuli/P","M","M","4","59497c498fb2140001afda85","04/26/2022, 07:20:30","E_M_michael_caine.jpg P_M_Tony_Blair.jpg",-0.0076916334607615,"29","Female","right",0,1,TRUE
4192,"E_M_nicolas_cage.jpg","P_F_hillary_clinton.jpg","FALSE","pictures/stimuli/E","pictures/stimuli/P","M","F","4","59497c498fb2140001afda85","04/26/2022, 07:20:30","E_M_nicolas_cage.jpg P_F_hillary_clinton.jpg",-0.0076916334607615,"29","Female","right",0,0,TRUE
3224,"E_F_Judi_Dench.jpg","P_F_hillary_clinton.jpg","FALSE","pictures/stimuli/E","pictures/stimuli/P","F","F","4","59497c498fb2140001afda85","04/26/2022, 07:20:30","E_F_Judi_Dench.jpg P_F_hillary_clinton.jpg",-0.0076916334607615,"29","Female","right",1,0,TRUE
3718,"P_M_boris_johnson.jpg","P_M_david_cameron.jpg","TRUE","pictures/stimuli/P","pictures/stimuli/P","M","M","1","59497c498fb2140001afda85","04/26/2022, 07:20:30","P_M_boris_johnson.jpg P_M_david_cameron.jpg",-2.19980716977787,"29","Female","right",1,1,TRUE
4588,"E_F_keira_knightley.jpg","P_M_donald_trump.jpg","FALSE","pictures/stimuli/E","pictures/stimuli/P","F","M","6","59497c498fb2140001afda85","04/26/2022, 07:20:30","E_F_keira_knightley.jpg P_M_donald_trump.jpg",1.45371872408398,"29","Female","right",0,1,TRUE
5246,"E_F_Judi_Dench.jpg","P_M_george_Wbush.jpg","FALSE","pictures/stimuli/E","pictures/stimuli/P","F","M","4","59497c498fb2140001afda85","04/26/2022, 07:20:30","E_F_Judi_Dench.jpg P_M_george_Wbush.jpg",-0.0076916334607615,"29","Female","right",1,1,TRUE
4536,"E_M_nicolas_cage.jpg","P_F_tehresy_may.jpg","FALSE","pictures/stimuli/E","pictures/stimuli/P","M","F","4","59497c498fb2140001afda85","04/26/2022, 07:20:30","E_M_nicolas_cage.jpg P_F_tehresy_may.jpg",-0.0076916334607615,"29","Female","right",0,1,TRUE
2714,"E_M_michael_caine.jpg","P_F_hillary_clinton.jpg","FALSE","pictures/stimuli/E","pictures/stimuli/P","M","F","4","59497c498fb2140001afda85","04/26/2022, 07:20:30","E_M_michael_caine.jpg P_F_hillary_clinton.jpg",-0.0076916334607615,"29","Female","right",0,0,TRUE
2834,"E_M_Hugh_Grant.jpg","P_M_bill_clinton.jpg","FALSE","pictures/stimuli/E","pictures/stimuli/P","M","M","4","59497c498fb2140001afda85","04/26/2022, 07:20:30","E_M_Hugh_Grant.jpg P_M_bill_clinton.jpg",-0.0076916334607615,"29","Female","right",1,0,TRUE
2489,"E_M_michael_caine.jpg","P_M_george_Wbush.jpg","FALSE","pictures/stimuli/E","pictures/stimuli/P","M","M","4","59497c498fb2140001afda85","04/26/2022, 07:20:30","E_M_michael_caine.jpg P_M_george_Wbush.jpg",-0.0076916334607615,"29","Female","right",0,1,TRUE
2668,"E_M_Hugh_Grant.jpg","E_M_tom_hankes.jpg","TRUE","pictures/stimuli/E","pictures/stimuli/E","M","M","4","59497c498fb2140001afda85","04/26/2022, 07:20:30","E_M_Hugh_Grant.jpg E_M_tom_hankes.jpg",-0.0076916334607615,"29","Female","right",1,0,TRUE
3871,"E_F_jennifer_aniston.jpg","E_M_robert_de_niro.jpg","TRUE","pictures/stimuli/E","pictures/stimuli/E","F","M","3","59497c498fb2140001afda85","04/26/2022, 07:20:30","E_F_jennifer_aniston.jpg E_M_robert_de_niro.jpg",-0.738396812233132,"29","Female","right",1,0,TRUE
2952,"E_F_angelina_jolie.jpg","E_M_tom_hankes.jpg","TRUE","pictures/stimuli/E","pictures/stimuli/E","F","M","4","59497c498fb2140001afda85","04/26/2022, 07:20:30","E_F_angelina_jolie.jpg E_M_tom_hankes.jpg",-0.0076916334607615,"29","Female","right",1,0,TRUE
3431,"E_M_nicolas_cage.jpg","E_M_robert_de_niro.jpg","TRUE","pictures/stimuli/E","pictures/stimuli/E","M","M","4","59497c498fb2140001afda85","04/26/2022, 07:20:30","E_M_nicolas_cage.jpg E_M_robert_de_niro.jpg",-0.0076916334607615,"29","Female","right",0,0,TRUE
2477,"P_M_bill_clinton.jpg","P_M_Tony_Blair.jpg","TRUE","pictures/stimuli/P","pictures/stimuli/P","M","M","4","59497c498fb2140001afda85","04/26/2022, 07:20:30","P_M_bill_clinton.jpg P_M_Tony_Blair.jpg",-0.0076916334607615,"29","Female","right",0,1,TRUE
5288,"E_F_Kate_Winslet.jpg","P_F_tehresy_may.jpg","FALSE","pictures/stimuli/E","pictures/stimuli/P","F","F","5","59497c498fb2140001afda85","04/26/2022, 07:20:30","E_F_Kate_Winslet.jpg P_F_tehresy_may.jpg",0.72301354531161,"29","Female","right",0,1,TRUE
2568,"E_F_Judi_Dench.jpg","E_M_tom_hankes.jpg","TRUE","pictures/stimuli/E","pictures/stimuli/E","F","M","4","59497c498fb2140001afda85","04/26/2022, 07:20:30","E_F_Judi_Dench.jpg E_M_tom_hankes.jpg",-0.0076916334607615,"29","Female","right",1,0,TRUE
2430,"E_F_Judi_Dench.jpg","P_F_tehresy_may.jpg","FALSE","pictures/stimuli/E","pictures/stimuli/P","F","F","4","59497c498fb2140001afda85","04/26/2022, 07:20:30","E_F_Judi_Dench.jpg P_F_tehresy_may.jpg",-0.0076916334607615,"29","Female","right",1,1,TRUE
2685,"E_F_Judi_Dench.jpg","E_M_michael_caine.jpg","TRUE","pictures/stimuli/E","pictures/stimuli/E","F","M","4","59497c498fb2140001afda85","04/26/2022, 07:20:30","E_F_Judi_Dench.jpg E_M_michael_caine.jpg",-0.0076916334607615,"29","Female","right",1,0,TRUE
4713,"E_M_robert_de_niro.jpg","P_F_tehresy_may.jpg","FALSE","pictures/stimuli/E","pictures/stimuli/P","M","F","5","59497c498fb2140001afda85","04/26/2022, 07:20:30","E_M_robert_de_niro.jpg P_F_tehresy_may.jpg",0.72301354531161,"29","Female","right",0,1,TRUE
3636,"E_F_angelina_jolie.jpg","E_F_Kate_Winslet.jpg","TRUE","pictures/stimuli/E","pictures/stimuli/E","F","F","1","59497c498fb2140001afda85","04/26/2022, 07:20:30","E_F_angelina_jolie.jpg E_F_Kate_Winslet.jpg",-2.19980716977787,"29","Female","right",1,0,TRUE
3763,"E_F_keira_knightley.jpg","P_M_bill_clinton.jpg","FALSE","pictures/stimuli/E","pictures/stimuli/P","F","M","4","59497c498fb2140001afda85","04/26/2022, 07:20:30","E_F_keira_knightley.jpg P_M_bill_clinton.jpg",-0.0076916334607615,"29","Female","right",0,0,TRUE
4685,"E_F_jennifer_aniston.jpg","P_M_george_Wbush.jpg","FALSE","pictures/stimuli/E","pictures/stimuli/P","F","M","6","59497c498fb2140001afda85","04/26/2022, 07:20:30","E_F_jennifer_aniston.jpg P_M_george_Wbush.jpg",1.45371872408398,"29","Female","right",1,1,TRUE
4499,"E_F_sandra_bullock.jpg","P_M_david_cameron.jpg","FALSE","pictures/stimuli/E","pictures/stimuli/P","F","M","6","59497c498fb2140001afda85","04/26/2022, 07:20:30","E_F_sandra_bullock.jpg P_M_david_cameron.jpg",1.45371872408398,"29","Female","right",1,1,TRUE
4707,"E_F_angelina_jolie.jpg","P_M_donald_trump.jpg","FALSE","pictures/stimuli/E","pictures/stimuli/P","F","M","5","59497c498fb2140001afda85","04/26/2022, 07:20:30","E_F_angelina_jolie.jpg P_M_donald_trump.jpg",0.72301354531161,"29","Female","right",1,1,TRUE
2829,"E_F_keira_knightley.jpg","E_M_nicolas_cage.jpg","TRUE","pictures/stimuli/E","pictures/stimuli/E","F","M","4","59497c498fb2140001afda85","04/26/2022, 07:20:30","E_F_keira_knightley.jpg E_M_nicolas_cage.jpg",-0.0076916334607615,"29","Female","right",0,0,TRUE
2256,"E_F_keira_knightley.jpg","P_F_hillary_clinton.jpg","FALSE","pictures/stimuli/E","pictures/stimuli/P","F","F","4","59497c498fb2140001afda85","04/26/2022, 07:20:30","E_F_keira_knightley.jpg P_F_hillary_clinton.jpg",-0.0076916334607615,"29","Female","right",0,0,TRUE
3217,"P_F_hillary_clinton.jpg","P_M_Tony_Blair.jpg","TRUE","pictures/stimuli/P","pictures/stimuli/P","F","M","4","59497c498fb2140001afda85","04/26/2022, 07:20:30","P_F_hillary_clinton.jpg P_M_Tony_Blair.jpg",-0.0076916334607615,"29","Female","right",0,1,TRUE
4360,"P_M_boris_johnson.jpg","P_M_Tony_Blair.jpg","TRUE","pictures/stimuli/P","pictures/stimuli/P","M","M","1","59497c498fb2140001afda85","04/26/2022, 07:20:30","P_M_boris_johnson.jpg P_M_Tony_Blair.jpg",-2.19980716977787,"29","Female","right",1,1,TRUE
4966,"E_F_Judi_Dench.jpg","P_M_boris_johnson.jpg","FALSE","pictures/stimuli/E","pictures/stimuli/P","F","M","5","59497c498fb2140001afda85","04/26/2022, 07:20:30","E_F_Judi_Dench.jpg P_M_boris_johnson.jpg",0.72301354531161,"29","Female","right",1,1,TRUE
2970,"E_M_michael_caine.jpg","P_M_boris_johnson.jpg","FALSE","pictures/stimuli/E","pictures/stimuli/P","M","M","4","59497c498fb2140001afda85","04/26/2022, 07:20:30","E_M_michael_caine.jpg P_M_boris_johnson.jpg",-0.0076916334607615,"29","Female","right",0,1,TRUE
4345,"P_F_nicola_sturgeon.jpg","P_F_tehresy_may.jpg","TRUE","pictures/stimuli/P","pictures/stimuli/P","F","F","1","59497c498fb2140001afda85","04/26/2022, 07:20:30","P_F_nicola_sturgeon.jpg P_F_tehresy_may.jpg",-2.19980716977787,"29","Female","right",1,1,TRUE
2833,"E_M_tom_hankes.jpg","P_F_hillary_clinton.jpg","FALSE","pictures/stimuli/E","pictures/stimuli/P","M","F","4","59497c498fb2140001afda85","04/26/2022, 07:20:30","E_M_tom_hankes.jpg P_F_hillary_clinton.jpg",-0.0076916334607615,"29","Female","right",0,0,TRUE
3933,"E_F_angelina_jolie.jpg","P_M_george_Wbush.jpg","FALSE","pictures/stimuli/E","pictures/stimuli/P","F","M","6","59497c498fb2140001afda85","04/26/2022, 07:20:30","E_F_angelina_jolie.jpg P_M_george_Wbush.jpg",1.45371872408398,"29","Female","right",1,1,TRUE
3100,"E_F_sandra_bullock.jpg","P_F_hillary_clinton.jpg","FALSE","pictures/stimuli/E","pictures/stimuli/P","F","F","4","59497c498fb2140001afda85","04/26/2022, 07:20:30","E_F_sandra_bullock.jpg P_F_hillary_clinton.jpg",-0.0076916334607615,"29","Female","right",1,0,TRUE
2163,"E_M_robert_de_niro.jpg","E_M_tom_hankes.jpg","TRUE","pictures/stimuli/E","pictures/stimuli/E","M","M","4","59497c498fb2140001afda85","04/26/2022, 07:20:30","E_M_robert_de_niro.jpg E_M_tom_hankes.jpg",-0.0076916334607615,"29","Female","right",0,0,TRUE
3853,"E_F_jennifer_aniston.jpg","P_M_boris_johnson.jpg","FALSE","pictures/stimuli/E","pictures/stimuli/P","F","M","6","59497c498fb2140001afda85","04/26/2022, 07:20:30","E_F_jennifer_aniston.jpg P_M_boris_johnson.jpg",1.45371872408398,"29","Female","right",1,1,TRUE
2744,"E_F_Kate_Winslet.jpg","P_F_nicola_sturgeon.jpg","FALSE","pictures/stimuli/E","pictures/stimuli/P","F","F","4","59497c498fb2140001afda85","04/26/2022, 07:20:30","E_F_Kate_Winslet.jpg P_F_nicola_sturgeon.jpg",-0.0076916334607615,"29","Female","right",0,1,TRUE
3941,"E_F_angelina_jolie.jpg","E_M_Hugh_Grant.jpg","TRUE","pictures/stimuli/E","pictures/stimuli/E","F","M","3","59497c498fb2140001afda85","04/26/2022, 07:20:30","E_F_angelina_jolie.jpg E_M_Hugh_Grant.jpg",-0.738396812233132,"29","Female","right",1,1,TRUE
2508,"E_F_angelina_jolie.jpg","P_F_hillary_clinton.jpg","FALSE","pictures/stimuli/E","pictures/stimuli/P","F","F","4","59497c498fb2140001afda85","04/26/2022, 07:20:30","E_F_angelina_jolie.jpg P_F_hillary_clinton.jpg",-0.0076916334607615,"29","Female","right",1,0,TRUE
2573,"E_F_jennifer_aniston.jpg","E_M_michael_caine.jpg","TRUE","pictures/stimuli/E","pictures/stimuli/E","F","M","4","59497c498fb2140001afda85","04/26/2022, 07:20:30","E_F_jennifer_aniston.jpg E_M_michael_caine.jpg",-0.0076916334607615,"29","Female","right",1,0,TRUE
3768,"P_M_boris_johnson.jpg","P_M_donald_trump.jpg","TRUE","pictures/stimuli/P","pictures/stimuli/P","M","M","1","59497c498fb2140001afda85","04/26/2022, 07:20:30","P_M_boris_johnson.jpg P_M_donald_trump.jpg",-2.19980716977787,"29","Female","right",1,1,TRUE
3652,"P_F_hillary_clinton.jpg","P_M_boris_johnson.jpg","TRUE","pictures/stimuli/P","pictures/stimuli/P","F","M","4","59497c498fb2140001afda85","04/26/2022, 07:20:30","P_F_hillary_clinton.jpg P_M_boris_johnson.jpg",-0.0076916334607615,"29","Female","right",0,1,TRUE
3703,"E_M_robert_de_niro.jpg","P_M_boris_johnson.jpg","FALSE","pictures/stimuli/E","pictures/stimuli/P","M","M","5","59497c498fb2140001afda85","04/26/2022, 07:20:30","E_M_robert_de_niro.jpg P_M_boris_johnson.jpg",0.72301354531161,"29","Female","right",0,1,TRUE
2839,"E_F_jennifer_aniston.jpg","P_M_bill_clinton.jpg","FALSE","pictures/stimuli/E","pictures/stimuli/P","F","M","4","59497c498fb2140001afda85","04/26/2022, 07:20:30","E_F_jennifer_aniston.jpg P_M_bill_clinton.jpg",-0.0076916334607615,"29","Female","right",1,0,TRUE
2274,"E_F_jennifer_aniston.jpg","E_M_tom_hankes.jpg","TRUE","pictures/stimuli/E","pictures/stimuli/E","F","M","4","59497c498fb2140001afda85","04/26/2022, 07:20:30","E_F_jennifer_aniston.jpg E_M_tom_hankes.jpg",-0.0076916334607615,"29","Female","right",1,0,TRUE
10164,"E_F_jennifer_aniston.jpg","P_M_Tony_Blair.jpg","FALSE","pictures/stimuli/E","pictures/stimuli/P","F","M","6","59497c498fb2140001afda85","04/26/2022, 07:20:30","E_F_jennifer_aniston.jpg P_M_Tony_Blair.jpg",1.45371872408398,"29","Female","right",1,1,TRUE
2787,"E_F_Judi_Dench.jpg","P_M_david_cameron.jpg","FALSE","pictures/stimuli/E","pictures/stimuli/P","F","M","4","59497c498fb2140001afda85","04/26/2022, 07:20:30","E_F_Judi_Dench.jpg P_M_david_cameron.jpg",-0.0076916334607615,"29","Female","right",1,1,TRUE
3470,"P_M_donald_trump.jpg","P_M_Tony_Blair.jpg","TRUE","pictures/stimuli/P","pictures/stimuli/P","M","M","1","59497c498fb2140001afda85","04/26/2022, 07:20:30","P_M_donald_trump.jpg P_M_Tony_Blair.jpg",-2.19980716977787,"29","Female","right",1,1,TRUE
2864,"E_F_jennifer_aniston.jpg","E_M_nicolas_cage.jpg","TRUE","pictures/stimuli/E","pictures/stimuli/E","F","M","4","59497c498fb2140001afda85","04/26/2022, 07:20:30","E_F_jennifer_aniston.jpg E_M_nicolas_cage.jpg",-0.0076916334607615,"29","Female","right",1,0,TRUE
2515,"E_F_Judi_Dench.jpg","E_M_Hugh_Grant.jpg","TRUE","pictures/stimuli/E","pictures/stimuli/E","F","M","4","59497c498fb2140001afda85","04/26/2022, 07:20:30","E_F_Judi_Dench.jpg E_M_Hugh_Grant.jpg",-0.0076916334607615,"29","Female","right",1,1,TRUE
2012,"E_F_sandra_bullock.jpg","E_M_tom_hankes.jpg","TRUE","pictures/stimuli/E","pictures/stimuli/E","F","M","4","59497c498fb2140001afda85","04/26/2022, 07:20:30","E_F_sandra_bullock.jpg E_M_tom_hankes.jpg",-0.0076916334607615,"29","Female","right",1,0,TRUE
3324,"E_M_michael_caine.jpg","P_M_bill_clinton.jpg","FALSE","pictures/stimuli/E","pictures/stimuli/P","M","M","4","59497c498fb2140001afda85","04/26/2022, 07:20:30","E_M_michael_caine.jpg P_M_bill_clinton.jpg",-0.0076916334607615,"29","Female","right",0,0,TRUE
1777,"E_F_angelina_jolie.jpg","P_M_bill_clinton.jpg","FALSE","pictures/stimuli/E","pictures/stimuli/P","F","M","4","59497c498fb2140001afda85","04/26/2022, 07:20:30","E_F_angelina_jolie.jpg P_M_bill_clinton.jpg",-0.0076916334607615,"29","Female","right",1,0,TRUE
3031,"E_M_michael_caine.jpg","E_M_nicolas_cage.jpg","TRUE","pictures/stimuli/E","pictures/stimuli/E","M","M","4","59497c498fb2140001afda85","04/26/2022, 07:20:30","E_M_michael_caine.jpg E_M_nicolas_cage.jpg",-0.0076916334607615,"29","Female","right",0,0,TRUE
3456,"E_F_angelina_jolie.jpg","P_F_nicola_sturgeon.jpg","FALSE","pictures/stimuli/E","pictures/stimuli/P","F","F","6","59497c498fb2140001afda85","04/26/2022, 07:20:30","E_F_angelina_jolie.jpg P_F_nicola_sturgeon.jpg",1.45371872408398,"29","Female","right",1,1,TRUE
3043,"E_F_jennifer_aniston.jpg","E_F_keira_knightley.jpg","TRUE","pictures/stimuli/E","pictures/stimuli/E","F","F","4","59497c498fb2140001afda85","04/26/2022, 07:20:30","E_F_jennifer_aniston.jpg E_F_keira_knightley.jpg",-0.0076916334607615,"29","Female","right",1,0,TRUE
4858,"E_M_tom_hankes.jpg","P_M_david_cameron.jpg","FALSE","pictures/stimuli/E","pictures/stimuli/P","M","M","5","59497c498fb2140001afda85","04/26/2022, 07:20:30","E_M_tom_hankes.jpg P_M_david_cameron.jpg",0.72301354531161,"29","Female","right",0,1,TRUE
3994,"P_F_tehresy_may.jpg","P_M_david_cameron.jpg","TRUE","pictures/stimuli/P","pictures/stimuli/P","F","M","1","59497c498fb2140001afda85","04/26/2022, 07:20:30","P_F_tehresy_may.jpg P_M_david_cameron.jpg",-2.19980716977787,"29","Female","right",1,1,TRUE
1995,"E_F_keira_knightley.jpg","E_M_tom_hankes.jpg","TRUE","pictures/stimuli/E","pictures/stimuli/E","F","M","4","59497c498fb2140001afda85","04/26/2022, 07:20:30","E_F_keira_knightley.jpg E_M_tom_hankes.jpg",-0.0076916334607615,"29","Female","right",0,0,TRUE
1930,"E_F_keira_knightley.jpg","E_M_michael_caine.jpg","TRUE","pictures/stimuli/E","pictures/stimuli/E","F","M","4","59497c498fb2140001afda85","04/26/2022, 07:20:30","E_F_keira_knightley.jpg E_M_michael_caine.jpg",-0.0076916334607615,"29","Female","right",0,0,TRUE
1931,"E_M_michael_caine.jpg","E_M_tom_hankes.jpg","TRUE","pictures/stimuli/E","pictures/stimuli/E","M","M","4","59497c498fb2140001afda85","04/26/2022, 07:20:30","E_M_michael_caine.jpg E_M_tom_hankes.jpg",-0.0076916334607615,"29","Female","right",0,0,TRUE
1730,"E_F_keira_knightley.jpg","E_F_sandra_bullock.jpg","TRUE","pictures/stimuli/E","pictures/stimuli/E","F","F","4","59497c498fb2140001afda85","04/26/2022, 07:20:30","E_F_keira_knightley.jpg E_F_sandra_bullock.jpg",-0.0076916334607615,"29","Female","right",0,1,TRUE
2606,"E_F_Kate_Winslet.jpg","P_M_david_cameron.jpg","FALSE","pictures/stimuli/E","pictures/stimuli/P","F","M","6","59497c498fb2140001afda85","04/26/2022, 07:20:30","E_F_Kate_Winslet.jpg P_M_david_cameron.jpg",1.45371872408398,"29","Female","right",0,1,TRUE
3700,"E_M_michael_caine.jpg","P_F_nicola_sturgeon.jpg","FALSE","pictures/stimuli/E","pictures/stimuli/P","M","F","4","59497c498fb2140001afda85","04/26/2022, 07:20:30","E_M_michael_caine.jpg P_F_nicola_sturgeon.jpg",-0.0076916334607615,"29","Female","right",0,1,TRUE
2801,"E_M_nicolas_cage.jpg","P_M_Tony_Blair.jpg","FALSE","pictures/stimuli/E","pictures/stimuli/P","M","M","4","59497c498fb2140001afda85","04/26/2022, 07:20:30","E_M_nicolas_cage.jpg P_M_Tony_Blair.jpg",-0.0076916334607615,"29","Female","right",0,1,TRUE
4692,"E_F_sandra_bullock.jpg","P_F_tehresy_may.jpg","FALSE","pictures/stimuli/E","pictures/stimuli/P","F","F","6","59497c498fb2140001afda85","04/26/2022, 07:20:30","E_F_sandra_bullock.jpg P_F_tehresy_may.jpg",1.45371872408398,"29","Female","right",1,1,TRUE
2536,"E_F_angelina_jolie.jpg","P_M_boris_johnson.jpg","FALSE","pictures/stimuli/E","pictures/stimuli/P","F","M","6","59497c498fb2140001afda85","04/26/2022, 07:20:30","E_F_angelina_jolie.jpg P_M_boris_johnson.jpg",1.45371872408398,"29","Female","right",1,1,TRUE
4519,"E_M_Hugh_Grant.jpg","P_M_donald_trump.jpg","FALSE","pictures/stimuli/E","pictures/stimuli/P","M","M","6","59497c498fb2140001afda85","04/26/2022, 07:20:30","E_M_Hugh_Grant.jpg P_M_donald_trump.jpg",1.45371872408398,"29","Female","right",1,1,TRUE
2737,"P_M_david_cameron.jpg","P_M_Tony_Blair.jpg","TRUE","pictures/stimuli/P","pictures/stimuli/P","M","M","1","59497c498fb2140001afda85","04/26/2022, 07:20:30","P_M_david_cameron.jpg P_M_Tony_Blair.jpg",-2.19980716977787,"29","Female","right",1,1,TRUE
1964,"P_F_hillary_clinton.jpg","P_M_donald_trump.jpg","TRUE","pictures/stimuli/P","pictures/stimuli/P","F","M","4","59497c498fb2140001afda85","04/26/2022, 07:20:30","P_F_hillary_clinton.jpg P_M_donald_trump.jpg",-0.0076916334607615,"29","Female","right",0,1,TRUE
3057,"E_F_sandra_bullock.jpg","P_M_george_Wbush.jpg","FALSE","pictures/stimuli/E","pictures/stimuli/P","F","M","6","59497c498fb2140001afda85","04/26/2022, 07:20:30","E_F_sandra_bullock.jpg P_M_george_Wbush.jpg",1.45371872408398,"29","Female","right",1,1,TRUE
2942,"P_F_tehresy_may.jpg","P_M_Tony_Blair.jpg","TRUE","pictures/stimuli/P","pictures/stimuli/P","F","M","1","59497c498fb2140001afda85","04/26/2022, 07:20:30","P_F_tehresy_may.jpg P_M_Tony_Blair.jpg",-2.19980716977787,"29","Female","right",1,1,TRUE
4942,"E_F_angelina_jolie.jpg","E_M_robert_de_niro.jpg","TRUE","pictures/stimuli/E","pictures/stimuli/E","F","M","2","59497c498fb2140001afda85","04/26/2022, 07:20:30","E_F_angelina_jolie.jpg E_M_robert_de_niro.jpg",-1.4691019910055,"29","Female","right",1,0,TRUE
1875,"E_F_Kate_Winslet.jpg","P_M_bill_clinton.jpg","FALSE","pictures/stimuli/E","pictures/stimuli/P","F","M","4","59497c498fb2140001afda85","04/26/2022, 07:20:30","E_F_Kate_Winslet.jpg P_M_bill_clinton.jpg",-0.0076916334607615,"29","Female","right",0,0,TRUE
2360,"E_F_angelina_jolie.jpg","E_F_Judi_Dench.jpg","TRUE","pictures/stimuli/E","pictures/stimuli/E","F","F","4","59497c498fb2140001afda85","04/26/2022, 07:20:30","E_F_angelina_jolie.jpg E_F_Judi_Dench.jpg",-0.0076916334607615,"29","Female","right",1,1,TRUE
2552,"E_F_Judi_Dench.jpg","E_F_keira_knightley.jpg","TRUE","pictures/stimuli/E","pictures/stimuli/E","F","F","4","59497c498fb2140001afda85","04/26/2022, 07:20:30","E_F_Judi_Dench.jpg E_F_keira_knightley.jpg",-0.0076916334607615,"29","Female","right",1,0,TRUE
3847,"E_M_Hugh_Grant.jpg","P_F_nicola_sturgeon.jpg","FALSE","pictures/stimuli/E","pictures/stimuli/P","M","F","5","59497c498fb2140001afda85","04/26/2022, 07:20:30","E_M_Hugh_Grant.jpg P_F_nicola_sturgeon.jpg",0.72301354531161,"29","Female","right",1,1,TRUE
1555,"E_F_keira_knightley.jpg","E_M_Hugh_Grant.jpg","TRUE","pictures/stimuli/E","pictures/stimuli/E","F","M","4","59497c498fb2140001afda85","04/26/2022, 07:20:30","E_F_keira_knightley.jpg E_M_Hugh_Grant.jpg",-0.0076916334607615,"29","Female","right",0,1,TRUE
1602,"P_F_tehresy_may.jpg","P_M_bill_clinton.jpg","TRUE","pictures/stimuli/P","pictures/stimuli/P","F","M","4","59497c498fb2140001afda85","04/26/2022, 07:20:30","P_F_tehresy_may.jpg P_M_bill_clinton.jpg",-0.0076916334607615,"29","Female","right",1,0,TRUE
1228,"P_M_bill_clinton.jpg","P_M_david_cameron.jpg","TRUE","pictures/stimuli/P","pictures/stimuli/P","M","M","4","59497c498fb2140001afda85","04/26/2022, 07:20:30","P_M_bill_clinton.jpg P_M_david_cameron.jpg",-0.0076916334607615,"29","Female","right",0,1,TRUE
3642,"P_M_boris_johnson.jpg","P_M_george_Wbush.jpg","TRUE","pictures/stimuli/P","pictures/stimuli/P","M","M","1","59497c498fb2140001afda85","04/26/2022, 07:20:30","P_M_boris_johnson.jpg P_M_george_Wbush.jpg",-2.19980716977787,"29","Female","right",1,1,TRUE
1875,"E_M_nicolas_cage.jpg","P_F_nicola_sturgeon.jpg","FALSE","pictures/stimuli/E","pictures/stimuli/P","M","F","4","59497c498fb2140001afda85","04/26/2022, 07:20:30","E_M_nicolas_cage.jpg P_F_nicola_sturgeon.jpg",-0.0076916334607615,"29","Female","right",0,1,TRUE
2225,"E_F_angelina_jolie.jpg","P_F_tehresy_may.jpg","FALSE","pictures/stimuli/E","pictures/stimuli/P","F","F","4","59497c498fb2140001afda85","04/26/2022, 07:20:30","E_F_angelina_jolie.jpg P_F_tehresy_may.jpg",-0.0076916334607615,"29","Female","right",1,1,TRUE
6250,"E_F_sandra_bullock.jpg","E_M_michael_caine.jpg","TRUE","pictures/stimuli/E","pictures/stimuli/E","F","M","4","59497c498fb2140001afda85","04/26/2022, 07:20:30","E_F_sandra_bullock.jpg E_M_michael_caine.jpg",-0.0076916334607615,"29","Female","right",1,0,TRUE
2466,"E_F_Judi_Dench.jpg","P_M_donald_trump.jpg","FALSE","pictures/stimuli/E","pictures/stimuli/P","F","M","4","59497c498fb2140001afda85","04/26/2022, 07:20:30","E_F_Judi_Dench.jpg P_M_donald_trump.jpg",-0.0076916334607615,"29","Female","right",1,1,TRUE
2479,"E_M_Hugh_Grant.jpg","E_M_michael_caine.jpg","TRUE","pictures/stimuli/E","pictures/stimuli/E","M","M","4","59497c498fb2140001afda85","04/26/2022, 07:20:30","E_M_Hugh_Grant.jpg E_M_michael_caine.jpg",-0.0076916334607615,"29","Female","right",1,0,TRUE
3069,"E_F_sandra_bullock.jpg","E_M_Hugh_Grant.jpg","TRUE","pictures/stimuli/E","pictures/stimuli/E","F","M","3","59497c498fb2140001afda85","04/26/2022, 07:20:30","E_F_sandra_bullock.jpg E_M_Hugh_Grant.jpg",-0.738396812233132,"29","Female","right",1,1,TRUE
2118,"P_F_hillary_clinton.jpg","P_F_nicola_sturgeon.jpg","TRUE","pictures/stimuli/P","pictures/stimuli/P","F","F","4","59497c498fb2140001afda85","04/26/2022, 07:20:30","P_F_hillary_clinton.jpg P_F_nicola_sturgeon.jpg",-0.0076916334607615,"29","Female","right",0,1,TRUE
3454,"E_F_keira_knightley.jpg","P_M_david_cameron.jpg","FALSE","pictures/stimuli/E","pictures/stimuli/P","F","M","5","59497c498fb2140001afda85","04/26/2022, 07:20:30","E_F_keira_knightley.jpg P_M_david_cameron.jpg",0.72301354531161,"29","Female","right",0,1,TRUE
3436,"P_M_david_cameron.jpg","P_M_donald_trump.jpg","TRUE","pictures/stimuli/P","pictures/stimuli/P","M","M","1","59497c498fb2140001afda85","04/26/2022, 07:20:30","P_M_david_cameron.jpg P_M_donald_trump.jpg",-2.19980716977787,"29","Female","right",1,1,TRUE
3556,"E_F_angelina_jolie.jpg","E_F_jennifer_aniston.jpg","TRUE","pictures/stimuli/E","pictures/stimuli/E","F","F","1","59497c498fb2140001afda85","04/26/2022, 07:20:30","E_F_angelina_jolie.jpg E_F_jennifer_aniston.jpg",-2.19980716977787,"29","Female","right",1,1,TRUE
2164,"E_M_nicolas_cage.jpg","P_M_bill_clinton.jpg","FALSE","pictures/stimuli/E","pictures/stimuli/P","M","M","4","59497c498fb2140001afda85","04/26/2022, 07:20:30","E_M_nicolas_cage.jpg P_M_bill_clinton.jpg",-0.0076916334607615,"29","Female","right",0,0,TRUE
1764,"P_F_hillary_clinton.jpg","P_M_george_Wbush.jpg","TRUE","pictures/stimuli/P","pictures/stimuli/P","F","M","4","59497c498fb2140001afda85","04/26/2022, 07:20:30","P_F_hillary_clinton.jpg P_M_george_Wbush.jpg",-0.0076916334607615,"29","Female","right",0,1,TRUE
1937,"E_F_Judi_Dench.jpg","P_F_nicola_sturgeon.jpg","FALSE","pictures/stimuli/E","pictures/stimuli/P","F","F","4","59497c498fb2140001afda85","04/26/2022, 07:20:30","E_F_Judi_Dench.jpg P_F_nicola_sturgeon.jpg",-0.0076916334607615,"29","Female","right",1,1,TRUE
3737,"E_F_Kate_Winslet.jpg","P_M_boris_johnson.jpg","FALSE","pictures/stimuli/E","pictures/stimuli/P","F","M","6","59497c498fb2140001afda85","04/26/2022, 07:20:30","E_F_Kate_Winslet.jpg P_M_boris_johnson.jpg",1.45371872408398,"29","Female","right",0,1,TRUE
5521,"E_M_robert_de_niro.jpg","P_M_Tony_Blair.jpg","FALSE","pictures/stimuli/E","pictures/stimuli/P","M","M","6","59497c498fb2140001afda85","04/26/2022, 07:20:30","E_M_robert_de_niro.jpg P_M_Tony_Blair.jpg",1.45371872408398,"29","Female","right",0,1,TRUE
2485,"E_M_tom_hankes.jpg","P_M_boris_johnson.jpg","FALSE","pictures/stimuli/E","pictures/stimuli/P","M","M","4","59497c498fb2140001afda85","04/26/2022, 07:20:30","E_M_tom_hankes.jpg P_M_boris_johnson.jpg",-0.0076916334607615,"29","Female","right",0,1,TRUE
2109,"E_M_michael_caine.jpg","E_M_robert_de_niro.jpg","TRUE","pictures/stimuli/E","pictures/stimuli/E","M","M","4","59497c498fb2140001afda85","04/26/2022, 07:20:30","E_M_michael_caine.jpg E_M_robert_de_niro.jpg",-0.0076916334607615,"29","Female","right",0,0,TRUE
1920,"E_M_tom_hankes.jpg","P_M_bill_clinton.jpg","FALSE","pictures/stimuli/E","pictures/stimuli/P","M","M","4","59497c498fb2140001afda85","04/26/2022, 07:20:30","E_M_tom_hankes.jpg P_M_bill_clinton.jpg",-0.0076916334607615,"29","Female","right",0,0,TRUE
4520,"E_M_Hugh_Grant.jpg","P_M_boris_johnson.jpg","FALSE","pictures/stimuli/E","pictures/stimuli/P","M","M","6","59497c498fb2140001afda85","04/26/2022, 07:20:30","E_M_Hugh_Grant.jpg P_M_boris_johnson.jpg",1.45371872408398,"29","Female","right",1,1,TRUE
3838,"P_F_tehresy_may.jpg","P_M_george_Wbush.jpg","TRUE","pictures/stimuli/P","pictures/stimuli/P","F","M","2","59497c498fb2140001afda85","04/26/2022, 07:20:30","P_F_tehresy_may.jpg P_M_george_Wbush.jpg",-1.4691019910055,"29","Female","right",1,1,TRUE
2332,"E_M_michael_caine.jpg","P_F_tehresy_may.jpg","FALSE","pictures/stimuli/E","pictures/stimuli/P","M","F","4","59497c498fb2140001afda85","04/26/2022, 07:20:30","E_M_michael_caine.jpg P_F_tehresy_may.jpg",-0.0076916334607615,"29","Female","right",0,1,TRUE
3468,"E_F_Kate_Winslet.jpg","P_M_george_Wbush.jpg","FALSE","pictures/stimuli/E","pictures/stimuli/P","F","M","6","59497c498fb2140001afda85","04/26/2022, 07:20:30","E_F_Kate_Winslet.jpg P_M_george_Wbush.jpg",1.45371872408398,"29","Female","right",0,1,TRUE
5174,"E_F_sandra_bullock.jpg","P_M_boris_johnson.jpg","FALSE","pictures/stimuli/E","pictures/stimuli/P","F","M","6","59497c498fb2140001afda85","04/26/2022, 07:20:30","E_F_sandra_bullock.jpg P_M_boris_johnson.jpg",1.45371872408398,"29","Female","right",1,1,TRUE
4834,"E_F_jennifer_aniston.jpg","P_F_nicola_sturgeon.jpg","FALSE","pictures/stimuli/E","pictures/stimuli/P","F","F","5","59497c498fb2140001afda85","04/26/2022, 07:20:30","E_F_jennifer_aniston.jpg P_F_nicola_sturgeon.jpg",0.72301354531161,"29","Female","right",1,1,TRUE
3346,"E_F_keira_knightley.jpg","P_M_george_Wbush.jpg","FALSE","pictures/stimuli/E","pictures/stimuli/P","F","M","6","59497c498fb2140001afda85","04/26/2022, 07:20:30","E_F_keira_knightley.jpg P_M_george_Wbush.jpg",1.45371872408398,"29","Female","right",0,1,TRUE
2321,"E_F_jennifer_aniston.jpg","P_M_david_cameron.jpg","FALSE","pictures/stimuli/E","pictures/stimuli/P","F","M","6","59497c498fb2140001afda85","04/26/2022, 07:20:30","E_F_jennifer_aniston.jpg P_M_david_cameron.jpg",1.45371872408398,"29","Female","right",1,1,TRUE
3143,"E_F_Judi_Dench.jpg","E_F_Kate_Winslet.jpg","TRUE","pictures/stimuli/E","pictures/stimuli/E","F","F","4","59497c498fb2140001afda85","04/26/2022, 07:20:30","E_F_Judi_Dench.jpg E_F_Kate_Winslet.jpg",-0.0076916334607615,"29","Female","right",1,0,TRUE
5473,"E_F_angelina_jolie.jpg","E_M_michael_caine.jpg","TRUE","pictures/stimuli/E","pictures/stimuli/E","F","M","5","59497c498fb2140001afda85","04/26/2022, 07:20:30","E_F_angelina_jolie.jpg E_M_michael_caine.jpg",0.72301354531161,"29","Female","right",1,0,TRUE
3227,"E_M_Hugh_Grant.jpg","P_F_tehresy_may.jpg","FALSE","pictures/stimuli/E","pictures/stimuli/P","M","F","6","59497c498fb2140001afda85","04/26/2022, 07:20:30","E_M_Hugh_Grant.jpg P_F_tehresy_may.jpg",1.45371872408398,"29","Female","right",1,1,TRUE
1705,"E_F_jennifer_aniston.jpg","P_F_hillary_clinton.jpg","FALSE","pictures/stimuli/E","pictures/stimuli/P","F","F","5","59497c498fb2140001afda85","04/26/2022, 07:20:30","E_F_jennifer_aniston.jpg P_F_hillary_clinton.jpg",0.72301354531161,"29","Female","right",1,0,TRUE
4583,"E_F_Kate_Winslet.jpg","E_M_tom_hankes.jpg","TRUE","pictures/stimuli/E","pictures/stimuli/E","F","M","4","59497c498fb2140001afda85","04/26/2022, 07:20:30","E_F_Kate_Winslet.jpg E_M_tom_hankes.jpg",-0.0076916334607615,"29","Female","right",0,0,TRUE
1392,"E_F_angelina_jolie.jpg","E_M_nicolas_cage.jpg","TRUE","pictures/stimuli/E","pictures/stimuli/E","F","M","4","59497c498fb2140001afda85","04/26/2022, 07:20:30","E_F_angelina_jolie.jpg E_M_nicolas_cage.jpg",-0.0076916334607615,"29","Female","right",1,0,TRUE
2722,"E_F_keira_knightley.jpg","P_M_Tony_Blair.jpg","FALSE","pictures/stimuli/E","pictures/stimuli/P","F","M","6","59497c498fb2140001afda85","04/26/2022, 07:20:30","E_F_keira_knightley.jpg P_M_Tony_Blair.jpg",1.45371872408398,"29","Female","right",0,1,TRUE
2677,"E_M_michael_caine.jpg","P_M_donald_trump.jpg","FALSE","pictures/stimuli/E","pictures/stimuli/P","M","M","4","59497c498fb2140001afda85","04/26/2022, 07:20:30","E_M_michael_caine.jpg P_M_donald_trump.jpg",-0.0076916334607615,"29","Female","right",0,1,TRUE
1172,"E_M_tom_hankes.jpg","P_M_donald_trump.jpg","FALSE","pictures/stimuli/E","pictures/stimuli/P","M","M","4","59497c498fb2140001afda85","04/26/2022, 07:20:30","E_M_tom_hankes.jpg P_M_donald_trump.jpg",-0.0076916334607615,"29","Female","right",0,1,TRUE
2205,"P_M_donald_trump.jpg","P_M_george_Wbush.jpg","TRUE","pictures/stimuli/P","pictures/stimuli/P","M","M","6","59497c498fb2140001afda85","04/26/2022, 07:20:30","P_M_donald_trump.jpg P_M_george_Wbush.jpg",1.45371872408398,"29","Female","right",1,1,TRUE
6793,"E_F_jennifer_aniston.jpg","E_M_Hugh_Grant.jpg","TRUE","pictures/stimuli/E","pictures/stimuli/E","F","M","4","59497c498fb2140001afda85","04/26/2022, 07:20:30","E_F_jennifer_aniston.jpg E_M_Hugh_Grant.jpg",-0.0076916334607615,"29","Female","right",1,1,TRUE
3500,"E_M_Hugh_Grant.jpg","E_M_robert_de_niro.jpg","TRUE","pictures/stimuli/E","pictures/stimuli/E","M","M","4","59497c498fb2140001afda85","04/26/2022, 07:20:30","E_M_Hugh_Grant.jpg E_M_robert_de_niro.jpg",-0.0076916334607615,"29","Female","right",1,0,TRUE
4195,"E_F_Judi_Dench.jpg","P_M_Tony_Blair.jpg","FALSE","pictures/stimuli/E","pictures/stimuli/P","F","M","4","59497c498fb2140001afda85","04/26/2022, 07:20:30","E_F_Judi_Dench.jpg P_M_Tony_Blair.jpg",-0.0076916334607615,"29","Female","right",1,1,TRUE
4048,"E_F_keira_knightley.jpg","P_F_nicola_sturgeon.jpg","FALSE","pictures/stimuli/E","pictures/stimuli/P","F","F","4","59497c498fb2140001afda85","04/26/2022, 07:20:30","E_F_keira_knightley.jpg P_F_nicola_sturgeon.jpg",-0.0076916334607615,"29","Female","right",0,1,TRUE
2012,"P_F_hillary_clinton.jpg","P_M_david_cameron.jpg","TRUE","pictures/stimuli/P","pictures/stimuli/P","F","M","4","59497c498fb2140001afda85","04/26/2022, 07:20:30","P_F_hillary_clinton.jpg P_M_david_cameron.jpg",-0.0076916334607615,"29","Female","right",0,1,TRUE
2083,"E_M_nicolas_cage.jpg","P_M_boris_johnson.jpg","FALSE","pictures/stimuli/E","pictures/stimuli/P","M","M","4","59497c498fb2140001afda85","04/26/2022, 07:20:30","E_M_nicolas_cage.jpg P_M_boris_johnson.jpg",-0.0076916334607615,"29","Female","right",0,1,TRUE
1110,"P_F_hillary_clinton.jpg","P_M_bill_clinton.jpg","TRUE","pictures/stimuli/P","pictures/stimuli/P","F","M","4","59497c498fb2140001afda85","04/26/2022, 07:20:30","P_F_hillary_clinton.jpg P_M_bill_clinton.jpg",-0.0076916334607615,"29","Female","right",0,0,TRUE
1759,"E_F_jennifer_aniston.jpg","P_M_donald_trump.jpg","FALSE","pictures/stimuli/E","pictures/stimuli/P","F","M","4","59497c498fb2140001afda85","04/26/2022, 07:20:30","E_F_jennifer_aniston.jpg P_M_donald_trump.jpg",-0.0076916334607615,"29","Female","right",1,1,TRUE
1734,"E_M_Hugh_Grant.jpg","E_M_nicolas_cage.jpg","TRUE","pictures/stimuli/E","pictures/stimuli/E","M","M","4","59497c498fb2140001afda85","04/26/2022, 07:20:30","E_M_Hugh_Grant.jpg E_M_nicolas_cage.jpg",-0.0076916334607615,"29","Female","right",1,0,TRUE
965,"E_M_nicolas_cage.jpg","E_M_tom_hankes.jpg","TRUE","pictures/stimuli/E","pictures/stimuli/E","M","M","4","59497c498fb2140001afda85","04/26/2022, 07:20:30","E_M_nicolas_cage.jpg E_M_tom_hankes.jpg",-0.0076916334607615,"29","Female","right",0,0,TRUE
2716,"E_F_sandra_bullock.jpg","P_F_nicola_sturgeon.jpg","FALSE","pictures/stimuli/E","pictures/stimuli/P","F","F","5","59497c498fb2140001afda85","04/26/2022, 07:20:30","E_F_sandra_bullock.jpg P_F_nicola_sturgeon.jpg",0.72301354531161,"29","Female","right",1,1,TRUE
3336,"E_F_Kate_Winslet.jpg","E_F_keira_knightley.jpg","TRUE","pictures/stimuli/E","pictures/stimuli/E","F","F","4","59497c498fb2140001afda85","04/26/2022, 07:20:30","E_F_Kate_Winslet.jpg E_F_keira_knightley.jpg",-0.0076916334607615,"29","Female","right",0,0,TRUE
4568,"P_M_george_Wbush.jpg","P_M_Tony_Blair.jpg","TRUE","pictures/stimuli/P","pictures/stimuli/P","M","M","1","59497c498fb2140001afda85","04/26/2022, 07:20:30","P_M_george_Wbush.jpg P_M_Tony_Blair.jpg",-2.19980716977787,"29","Female","right",1,1,TRUE
1948,"P_M_david_cameron.jpg","P_M_george_Wbush.jpg","TRUE","pictures/stimuli/P","pictures/stimuli/P","M","M","1","59497c498fb2140001afda85","04/26/2022, 07:20:30","P_M_david_cameron.jpg P_M_george_Wbush.jpg",-2.19980716977787,"29","Female","right",1,1,TRUE
2740,"E_F_keira_knightley.jpg","P_M_boris_johnson.jpg","FALSE","pictures/stimuli/E","pictures/stimuli/P","F","M","6","59497c498fb2140001afda85","04/26/2022, 07:20:30","E_F_keira_knightley.jpg P_M_boris_johnson.jpg",1.45371872408398,"29","Female","right",0,1,TRUE
4421,"E_M_Hugh_Grant.jpg","P_M_david_cameron.jpg","FALSE","pictures/stimuli/E","pictures/stimuli/P","M","M","3","59497c498fb2140001afda85","04/26/2022, 07:20:30","E_M_Hugh_Grant.jpg P_M_david_cameron.jpg",-0.738396812233132,"29","Female","right",1,1,TRUE
2856,"E_F_angelina_jolie.jpg","E_F_sandra_bullock.jpg","TRUE","pictures/stimuli/E","pictures/stimuli/E","F","F","1","59497c498fb2140001afda85","04/26/2022, 07:20:30","E_F_angelina_jolie.jpg E_F_sandra_bullock.jpg",-2.19980716977787,"29","Female","right",1,1,TRUE
3096,"E_M_robert_de_niro.jpg","P_M_david_cameron.jpg","FALSE","pictures/stimuli/E","pictures/stimuli/P","M","M","3","59497c498fb2140001afda85","04/26/2022, 07:20:30","E_M_robert_de_niro.jpg P_M_david_cameron.jpg",-0.738396812233132,"29","Female","right",0,1,TRUE
3235,"E_F_keira_knightley.jpg","P_F_tehresy_may.jpg","FALSE","pictures/stimuli/E","pictures/stimuli/P","F","F","3","59497c498fb2140001afda85","04/26/2022, 07:20:30","E_F_keira_knightley.jpg P_F_tehresy_may.jpg",-0.738396812233132,"29","Female","right",0,1,TRUE
2372,"E_F_angelina_jolie.jpg","P_M_david_cameron.jpg","FALSE","pictures/stimuli/E","pictures/stimuli/P","F","M","6","59497c498fb2140001afda85","04/26/2022, 07:20:30","E_F_angelina_jolie.jpg P_M_david_cameron.jpg",1.45371872408398,"29","Female","right",1,1,TRUE
4785,"E_F_sandra_bullock.jpg","P_M_donald_trump.jpg","FALSE","pictures/stimuli/E","pictures/stimuli/P","F","M","6","59497c498fb2140001afda85","04/26/2022, 07:20:30","E_F_sandra_bullock.jpg P_M_donald_trump.jpg",1.45371872408398,"29","Female","right",1,1,TRUE
4433,"E_F_sandra_bullock.jpg","P_M_bill_clinton.jpg","FALSE","pictures/stimuli/E","pictures/stimuli/P","F","M","5","59497c498fb2140001afda85","04/26/2022, 07:20:30","E_F_sandra_bullock.jpg P_M_bill_clinton.jpg",0.72301354531161,"29","Female","right",1,0,TRUE
2840,"E_F_angelina_jolie.jpg","E_F_keira_knightley.jpg","TRUE","pictures/stimuli/E","pictures/stimuli/E","F","F","3","59497c498fb2140001afda85","04/26/2022, 07:20:30","E_F_angelina_jolie.jpg E_F_keira_knightley.jpg",-0.738396812233132,"29","Female","right",1,0,TRUE
4772,"E_M_Hugh_Grant.jpg","P_M_george_Wbush.jpg","FALSE","pictures/stimuli/E","pictures/stimuli/P","M","M","3","59497c498fb2140001afda85","04/26/2022, 07:20:30","E_M_Hugh_Grant.jpg P_M_george_Wbush.jpg",-0.738396812233132,"29","Female","right",1,1,TRUE
1978,"P_F_nicola_sturgeon.jpg","P_M_george_Wbush.jpg","TRUE","pictures/stimuli/P","pictures/stimuli/P","F","M","1","59497c498fb2140001afda85","04/26/2022, 07:20:30","P_F_nicola_sturgeon.jpg P_M_george_Wbush.jpg",-2.19980716977787,"29","Female","right",1,1,TRUE
2432,"E_F_jennifer_aniston.jpg","P_F_tehresy_may.jpg","FALSE","pictures/stimuli/E","pictures/stimuli/P","F","F","3","59497c498fb2140001afda85","04/26/2022, 07:20:30","E_F_jennifer_aniston.jpg P_F_tehresy_may.jpg",-0.738396812233132,"29","Female","right",1,1,TRUE
2850,"E_F_jennifer_aniston.jpg","E_F_Judi_Dench.jpg","TRUE","pictures/stimuli/E","pictures/stimuli/E","F","F","3","59497c498fb2140001afda85","04/26/2022, 07:20:30","E_F_jennifer_aniston.jpg E_F_Judi_Dench.jpg",-0.738396812233132,"29","Female","right",1,1,TRUE
2445,"E_M_nicolas_cage.jpg","P_M_donald_trump.jpg","FALSE","pictures/stimuli/E","pictures/stimuli/P","M","M","3","59497c498fb2140001afda85","04/26/2022, 07:20:30","E_M_nicolas_cage.jpg P_M_donald_trump.jpg",-0.738396812233132,"29","Female","right",0,1,TRUE
1644,"E_M_Hugh_Grant.jpg","P_M_Tony_Blair.jpg","FALSE","pictures/stimuli/E","pictures/stimuli/P","M","M","3","59497c498fb2140001afda85","04/26/2022, 07:20:30","E_M_Hugh_Grant.jpg P_M_Tony_Blair.jpg",-0.738396812233132,"29","Female","right",1,1,TRUE
2103,"E_M_robert_de_niro.jpg","P_M_bill_clinton.jpg","FALSE","pictures/stimuli/E","pictures/stimuli/P","M","M","3","59497c498fb2140001afda85","04/26/2022, 07:20:30","E_M_robert_de_niro.jpg P_M_bill_clinton.jpg",-0.738396812233132,"29","Female","right",0,0,TRUE
2233,"P_F_nicola_sturgeon.jpg","P_M_donald_trump.jpg","TRUE","pictures/stimuli/P","pictures/stimuli/P","F","M","2","59497c498fb2140001afda85","04/26/2022, 07:20:30","P_F_nicola_sturgeon.jpg P_M_donald_trump.jpg",-1.4691019910055,"29","Female","right",1,1,TRUE
3273,"E_F_Kate_Winslet.jpg","E_M_nicolas_cage.jpg","TRUE","pictures/stimuli/E","pictures/stimuli/E","F","M","4","59497c498fb2140001afda85","04/26/2022, 07:20:30","E_F_Kate_Winslet.jpg E_M_nicolas_cage.jpg",-0.0076916334607615,"29","Female","right",0,0,TRUE
3974,"P_F_nicola_sturgeon.jpg","P_M_bill_clinton.jpg","TRUE","pictures/stimuli/P","pictures/stimuli/P","F","M","5","59497c498fb2140001afda85","04/26/2022, 07:20:30","P_F_nicola_sturgeon.jpg P_M_bill_clinton.jpg",0.72301354531161,"29","Female","right",1,0,TRUE
2623,"E_M_tom_hankes.jpg","P_M_Tony_Blair.jpg","FALSE","pictures/stimuli/E","pictures/stimuli/P","M","M","4","59497c498fb2140001afda85","04/26/2022, 07:20:30","E_M_tom_hankes.jpg P_M_Tony_Blair.jpg",-0.0076916334607615,"29","Female","right",0,1,TRUE
3526,"P_F_nicola_sturgeon.jpg","P_M_boris_johnson.jpg","TRUE","pictures/stimuli/P","pictures/stimuli/P","F","M","2","59497c498fb2140001afda85","04/26/2022, 07:20:30","P_F_nicola_sturgeon.jpg P_M_boris_johnson.jpg",-1.4691019910055,"29","Female","right",1,1,TRUE
1979,"E_F_Judi_Dench.jpg","E_M_robert_de_niro.jpg","TRUE","pictures/stimuli/E","pictures/stimuli/E","F","M","4","59497c498fb2140001afda85","04/26/2022, 07:20:30","E_F_Judi_Dench.jpg E_M_robert_de_niro.jpg",-0.0076916334607615,"29","Female","right",1,0,TRUE
3152,"E_M_tom_hankes.jpg","P_M_george_Wbush.jpg","FALSE","pictures/stimuli/E","pictures/stimuli/P","M","M","4","59497c498fb2140001afda85","04/26/2022, 07:20:30","E_M_tom_hankes.jpg P_M_george_Wbush.jpg",-0.0076916334607615,"29","Female","right",0,1,TRUE
2643,"E_M_Hugh_Grant.jpg","P_F_hillary_clinton.jpg","FALSE","pictures/stimuli/E","pictures/stimuli/P","M","F","4","59497c498fb2140001afda85","04/26/2022, 07:20:30","E_M_Hugh_Grant.jpg P_F_hillary_clinton.jpg",-0.0076916334607615,"29","Female","right",1,0,TRUE
4324,"E_F_sandra_bullock.jpg","P_M_Tony_Blair.jpg","FALSE","pictures/stimuli/E","pictures/stimuli/P","F","M","6","59497c498fb2140001afda85","04/26/2022, 07:20:30","E_F_sandra_bullock.jpg P_M_Tony_Blair.jpg",1.45371872408398,"29","Female","right",1,1,TRUE
3177,"E_F_Judi_Dench.jpg","E_F_sandra_bullock.jpg","TRUE","pictures/stimuli/E","pictures/stimuli/E","F","F","4","59497c498fb2140001afda85","04/26/2022, 07:20:30","E_F_Judi_Dench.jpg E_F_sandra_bullock.jpg",-0.0076916334607615,"29","Female","right",1,1,TRUE
3102,"E_F_Kate_Winslet.jpg","P_M_Tony_Blair.jpg","FALSE","pictures/stimuli/E","pictures/stimuli/P","F","M","6","59497c498fb2140001afda85","04/26/2022, 07:20:30","E_F_Kate_Winslet.jpg P_M_Tony_Blair.jpg",1.45371872408398,"29","Female","right",0,1,TRUE
2913,"P_F_tehresy_may.jpg","P_M_boris_johnson.jpg","TRUE","pictures/stimuli/P","pictures/stimuli/P","F","M","2","59497c498fb2140001afda85","04/26/2022, 07:20:30","P_F_tehresy_may.jpg P_M_boris_johnson.jpg",-1.4691019910055,"29","Female","right",1,1,TRUE
2137,"E_M_nicolas_cage.jpg","P_M_david_cameron.jpg","FALSE","pictures/stimuli/E","pictures/stimuli/P","M","M","4","59497c498fb2140001afda85","04/26/2022, 07:20:30","E_M_nicolas_cage.jpg P_M_david_cameron.jpg",-0.0076916334607615,"29","Female","right",0,1,TRUE
6107,"E_M_robert_de_niro.jpg","P_F_nicola_sturgeon.jpg","FALSE","pictures/stimuli/E","pictures/stimuli/P","M","F","6","59497c498fb2140001afda85","04/26/2022, 07:20:30","E_M_robert_de_niro.jpg P_F_nicola_sturgeon.jpg",1.45371872408398,"29","Female","right",0,1,TRUE
2996,"E_F_sandra_bullock.jpg","E_M_nicolas_cage.jpg","TRUE","pictures/stimuli/E","pictures/stimuli/E","F","M","4","59497c498fb2140001afda85","04/26/2022, 07:20:30","E_F_sandra_bullock.jpg E_M_nicolas_cage.jpg",-0.0076916334607615,"29","Female","right",1,0,TRUE
4915,"E_F_keira_knightley.jpg","E_M_robert_de_niro.jpg","TRUE","pictures/stimuli/E","pictures/stimuli/E","F","M","5","59497c498fb2140001afda85","04/26/2022, 07:20:30","E_F_keira_knightley.jpg E_M_robert_de_niro.jpg",0.72301354531161,"29","Female","right",0,0,TRUE
2558,"P_M_bill_clinton.jpg","P_M_boris_johnson.jpg","TRUE","pictures/stimuli/P","pictures/stimuli/P","M","M","4","59497c498fb2140001afda85","04/26/2022, 07:20:30","P_M_bill_clinton.jpg P_M_boris_johnson.jpg",-0.0076916334607615,"29","Female","right",0,1,TRUE
4093,"E_M_tom_hankes.jpg","P_F_nicola_sturgeon.jpg","FALSE","pictures/stimuli/E","pictures/stimuli/P","M","F","4","59497c498fb2140001afda85","04/26/2022, 07:20:30","E_M_tom_hankes.jpg P_F_nicola_sturgeon.jpg",-0.0076916334607615,"29","Female","right",0,1,TRUE
2698,"E_M_nicolas_cage.jpg","P_M_george_Wbush.jpg","FALSE","pictures/stimuli/E","pictures/stimuli/P","M","M","5","59497c498fb2140001afda85","04/26/2022, 07:20:30","E_M_nicolas_cage.jpg P_M_george_Wbush.jpg",0.72301354531161,"29","Female","right",0,1,TRUE
3157,"E_F_Judi_Dench.jpg","E_M_nicolas_cage.jpg","TRUE","pictures/stimuli/E","pictures/stimuli/E","F","M","4","59497c498fb2140001afda85","04/26/2022, 07:20:30","E_F_Judi_Dench.jpg E_M_nicolas_cage.jpg",-0.0076916334607615,"29","Female","right",1,0,TRUE
3717,"E_F_Kate_Winslet.jpg","E_M_michael_caine.jpg","TRUE","pictures/stimuli/E","pictures/stimuli/E","F","M","4","59497c498fb2140001afda85","04/26/2022, 07:20:30","E_F_Kate_Winslet.jpg E_M_michael_caine.jpg",-0.0076916334607615,"29","Female","right",0,0,TRUE
2200,"E_F_sandra_bullock.jpg","E_M_robert_de_niro.jpg","TRUE","pictures/stimuli/E","pictures/stimuli/E","F","M","4","59497c498fb2140001afda85","04/26/2022, 07:20:30","E_F_sandra_bullock.jpg E_M_robert_de_niro.jpg",-0.0076916334607615,"29","Female","right",1,0,TRUE
2188,"E_M_tom_hankes.jpg","P_F_tehresy_may.jpg","FALSE","pictures/stimuli/E","pictures/stimuli/P","M","F","4","59497c498fb2140001afda85","04/26/2022, 07:20:30","E_M_tom_hankes.jpg P_F_tehresy_may.jpg",-0.0076916334607615,"29","Female","right",0,1,TRUE
2308,"E_F_jennifer_aniston.jpg","E_F_sandra_bullock.jpg","TRUE","pictures/stimuli/E","pictures/stimuli/E","F","F","1","59497c498fb2140001afda85","04/26/2022, 07:20:30","E_F_jennifer_aniston.jpg E_F_sandra_bullock.jpg",-2.19980716977787,"29","Female","right",1,1,TRUE
2805,"P_F_hillary_clinton.jpg","P_F_tehresy_may.jpg","TRUE","pictures/stimuli/P","pictures/stimuli/P","F","F","4","59497c498fb2140001afda85","04/26/2022, 07:20:30","P_F_hillary_clinton.jpg P_F_tehresy_may.jpg",-0.0076916334607615,"29","Female","right",0,1,TRUE
4202,"P_F_tehresy_may.jpg","P_M_donald_trump.jpg","TRUE","pictures/stimuli/P","pictures/stimuli/P","F","M","2","59497c498fb2140001afda85","04/26/2022, 07:20:30","P_F_tehresy_may.jpg P_M_donald_trump.jpg",-1.4691019910055,"29","Female","right",1,1,TRUE
5234,"E_M_tom_hankes.jpg","P_M_donald_trump.jpg","FALSE","pictures/stimuli/E","pictures/stimuli/P","M","M","3","59a734ce0c87a000017481ed","04/26/2022, 07:26:27","E_M_tom_hankes.jpg P_M_donald_trump.jpg",-0.592177042622274,"33","Female","right",1,1,FALSE
6426,"E_M_Hugh_Grant.jpg","E_M_nicolas_cage.jpg","TRUE","pictures/stimuli/E","pictures/stimuli/E","M","M","3","59a734ce0c87a000017481ed","04/26/2022, 07:26:27","E_M_Hugh_Grant.jpg E_M_nicolas_cage.jpg",-0.592177042622274,"33","Female","right",1,1,FALSE
6204,"P_M_bill_clinton.jpg","P_M_david_cameron.jpg","TRUE","pictures/stimuli/P","pictures/stimuli/P","M","M","3","59a734ce0c87a000017481ed","04/26/2022, 07:26:27","P_M_bill_clinton.jpg P_M_david_cameron.jpg",-0.592177042622274,"33","Female","right",0,1,TRUE
5731,"E_F_keira_knightley.jpg","E_F_sandra_bullock.jpg","TRUE","pictures/stimuli/E","pictures/stimuli/E","F","F","2","59a734ce0c87a000017481ed","04/26/2022, 07:26:27","E_F_keira_knightley.jpg E_F_sandra_bullock.jpg",-1.41344447399623,"33","Female","right",1,1,FALSE
4953,"E_M_michael_caine.jpg","E_M_nicolas_cage.jpg","TRUE","pictures/stimuli/E","pictures/stimuli/E","M","M","4","59a734ce0c87a000017481ed","04/26/2022, 07:26:27","E_M_michael_caine.jpg E_M_nicolas_cage.jpg",0.229090388751683,"33","Female","right",1,1,FALSE
3578,"E_F_keira_knightley.jpg","P_M_boris_johnson.jpg","FALSE","pictures/stimuli/E","pictures/stimuli/P","F","M","5","59a734ce0c87a000017481ed","04/26/2022, 07:26:27","E_F_keira_knightley.jpg P_M_boris_johnson.jpg",1.05035782012564,"33","Female","right",1,1,FALSE
2302,"E_F_keira_knightley.jpg","P_M_george_Wbush.jpg","FALSE","pictures/stimuli/E","pictures/stimuli/P","F","M","5","59a734ce0c87a000017481ed","04/26/2022, 07:26:27","E_F_keira_knightley.jpg P_M_george_Wbush.jpg",1.05035782012564,"33","Female","right",1,1,FALSE
