"RT","img_1","img_2","isSameProffesion","img1proffesion","img2proffesion","img1Gender","img2Gender","keyPressed","participant","time","pair","normlised_keyPress","age","gender","handedness","isFamiliar_img1","isFamiliar_img2","reject_trial"
2867,"E_F_Judi_Dench.png","E_M_tom_hankes.png","TRUE","pictures/stimuli/E","pictures/stimuli/E","F","M","6","595fa59caa841c00018d7225","05/06/2022, 10:54:19","E_F_Judi_Dench.png E_M_tom_hankes.png",0.359724757552318,"27","Female","right",1,0,FALSE
2565,"E_F_angelina_jolie.png","E_M_tom_hankes.png","TRUE","pictures/stimuli/E","pictures/stimuli/E","F","M","6","595fa59caa841c00018d7225","05/06/2022, 10:54:19","E_F_angelina_jolie.png E_M_tom_hankes.png",0.359724757552318,"27","Female","right",0,0,FALSE
6814,"E_M_robert_de_niro.png","P_F_tehresy_may.png","FALSE","pictures/stimuli/E","pictures/stimuli/P","M","F","6","595fa59caa841c00018d7225","05/06/2022, 10:54:19","E_M_robert_de_niro.png P_F_tehresy_may.png",0.359724757552318,"27","Female","right",1,0,FALSE
8014,"E_F_jennifer_aniston.png","P_F_tehresy_may.png","FALSE","pictures/stimuli/E","pictures/stimuli/P","F","F","6","595fa59caa841c00018d7225","05/06/2022, 10:54:19","E_F_jennifer_aniston.png P_F_tehresy_may.png",0.359724757552318,"27","Female","right",0,0,FALSE
4007,"E_F_angelina_jolie.png","E_M_nicolas_cage.png","TRUE","pictures/stimuli/E","pictures/stimuli/E","F","M","6","595fa59caa841c00018d7225","05/06/2022, 10:54:19","E_F_angelina_jolie.png E_M_nicolas_cage.png",0.359724757552318,"27","Female","right",0,0,FALSE
4934,"P_F_nicola_sturgeon.png","P_F_tehresy_may.png","TRUE","pictures/stimuli/P","pictures/stimuli/P","F","F","3","595fa59caa841c00018d7225","05/06/2022, 10:54:19","P_F_nicola_sturgeon.png P_F_tehresy_may.png",-4.00289464255026,"27","Female","right",1,0,FALSE
7743,"E_F_keira_knightley.png","E_F_sandra_bullock.png","TRUE","pictures/stimuli/E","pictures/stimuli/E","F","F","4","595fa59caa841c00018d7225","05/06/2022, 10:54:19","E_F_keira_knightley.png E_F_sandra_bullock.png",-2.5486881758494,"27","Female","right",1,1,FALSE
4919,"E_M_Hugh_Grant.png","E_M_tom_hankes.png","TRUE","pictures/stimuli/E","pictures/stimuli/E","M","M","6","595fa59caa841c00018d7225","05/06/2022, 10:54:19","E_M_Hugh_Grant.png E_M_tom_hankes.png",0.359724757552318,"27","Female","right",1,0,FALSE
2654,"E_F_sandra_bullock.png","P_M_george_Wbush.png","FALSE","pictures/stimuli/E","pictures/stimuli/P","F","M","6","595fa59caa841c00018d7225","05/06/2022, 10:54:19","E_F_sandra_bullock.png P_M_george_Wbush.png",0.359724757552318,"27","Female","right",1,1,FALSE
3958,"E_F_angelina_jolie.png","P_F_tehresy_may.png","FALSE","pictures/stimuli/E","pictures/stimuli/P","F","F","6","595fa59caa841c00018d7225","05/06/2022, 10:54:19","E_F_angelina_jolie.png P_F_tehresy_may.png",0.359724757552318,"27","Female","right",0,0,FALSE
4886,"E_F_Judi_Dench.png","P_M_Tony_Blair.png","FALSE","pictures/stimuli/E","pictures/stimuli/P","F","M","6","595fa59caa841c00018d7225","05/06/2022, 10:54:19","E_F_Judi_Dench.png P_M_Tony_Blair.png",0.359724757552318,"27","Female","right",1,0,FALSE
3662,"E_F_jennifer_aniston.png","P_M_bill_clinton.png","FALSE","pictures/stimuli/E","pictures/stimuli/P","F","M","6","595fa59caa841c00018d7225","05/06/2022, 10:54:19","E_F_jennifer_aniston.png P_M_bill_clinton.png",0.359724757552318,"27","Female","right",0,0,FALSE
3134,"E_M_tom_hankes.png","P_F_tehresy_may.png","FALSE","pictures/stimuli/E","pictures/stimuli/P","M","F","6","595fa59caa841c00018d7225","05/06/2022, 10:54:19","E_M_tom_hankes.png P_F_tehresy_may.png",0.359724757552318,"27","Female","right",0,0,FALSE
2334,"E_F_angelina_jolie.png","P_F_hillary_clinton.png","FALSE","pictures/stimuli/E","pictures/stimuli/P","F","F","6","595fa59caa841c00018d7225","05/06/2022, 10:54:19","E_F_angelina_jolie.png P_F_hillary_clinton.png",0.359724757552318,"27","Female","right",0,0,FALSE
3575,"E_F_angelina_jolie.png","P_M_george_Wbush.png","FALSE","pictures/stimuli/E","pictures/stimuli/P","F","M","6","595fa59caa841c00018d7225","05/06/2022, 10:54:19","E_F_angelina_jolie.png P_M_george_Wbush.png",0.359724757552318,"27","Female","right",0,1,FALSE
3702,"E_F_jennifer_aniston.png","E_M_michael_caine.png","TRUE","pictures/stimuli/E","pictures/stimuli/E","F","M","6","595fa59caa841c00018d7225","05/06/2022, 10:54:19","E_F_jennifer_aniston.png E_M_michael_caine.png",0.359724757552318,"27","Female","right",0,0,FALSE
3029,"E_F_jennifer_aniston.png","E_M_robert_de_niro.png","TRUE","pictures/stimuli/E","pictures/stimuli/E","F","M","6","595fa59caa841c00018d7225","05/06/2022, 10:54:19","E_F_jennifer_aniston.png E_M_robert_de_niro.png",0.359724757552318,"27","Female","right",0,1,FALSE
4855,"E_F_sandra_bullock.png","E_M_Hugh_Grant.png","TRUE","pictures/stimuli/E","pictures/stimuli/E","F","M","6","595fa59caa841c00018d7225","05/06/2022, 10:54:19","E_F_sandra_bullock.png E_M_Hugh_Grant.png",0.359724757552318,"27","Female","right",1,1,FALSE
3830,"E_F_sandra_bullock.png","P_F_hillary_clinton.png","FALSE","pictures/stimuli/E","pictures/stimuli/P","F","F","6","595fa59caa841c00018d7225","05/06/2022, 10:54:19","E_F_sandra_bullock.png P_F_hillary_clinton.png",0.359724757552318,"27","Female","right",1,0,FALSE
4222,"E_F_Judi_Dench.png","P_M_bill_clinton.png","FALSE","pictures/stimuli/E","pictures/stimuli/P","F","M","6","595fa59caa841c00018d7225","05/06/2022, 10:54:19","E_F_Judi_Dench.png P_M_bill_clinton.png",0.359724757552318,"27","Female","right",1,0,FALSE
7415,"E_F_Kate_Winslet.png","P_F_tehresy_may.png","FALSE","pictures/stimuli/E","pictures/stimuli/P","F","F","6","595fa59caa841c00018d7225","05/06/2022, 10:54:19","E_F_Kate_Winslet.png P_F_tehresy_may.png",0.359724757552318,"27","Female","right",0,0,FALSE
6047,"E_M_michael_caine.png","P_F_nicola_sturgeon.png","FALSE","pictures/stimuli/E","pictures/stimuli/P","M","F","6","595fa59caa841c00018d7225","05/06/2022, 10:54:19","E_M_michael_caine.png P_F_nicola_sturgeon.png",0.359724757552318,"27","Female","right",0,1,FALSE
11686,"E_F_angelina_jolie.png","E_F_keira_knightley.png","TRUE","pictures/stimuli/E","pictures/stimuli/E","F","F","3","595fa59caa841c00018d7225","05/06/2022, 10:54:19","E_F_angelina_jolie.png E_F_keira_knightley.png",-4.00289464255026,"27","Female","right",0,1,FALSE
4910,"P_M_bill_clinton.png","P_M_george_Wbush.png","TRUE","pictures/stimuli/P","pictures/stimuli/P","M","M","5","595fa59caa841c00018d7225","05/06/2022, 10:54:19","P_M_bill_clinton.png P_M_george_Wbush.png",-1.09448170914854,"27","Female","right",0,1,FALSE
5735,"E_M_michael_caine.png","P_M_boris_johnson.png","FALSE","pictures/stimuli/E","pictures/stimuli/P","M","M","6","595fa59caa841c00018d7225","05/06/2022, 10:54:19","E_M_michael_caine.png P_M_boris_johnson.png",0.359724757552318,"27","Female","right",0,0,FALSE
5063,"E_F_angelina_jolie.png","E_F_Kate_Winslet.png","TRUE","pictures/stimuli/E","pictures/stimuli/E","F","F","6","595fa59caa841c00018d7225","05/06/2022, 10:54:19","E_F_angelina_jolie.png E_F_Kate_Winslet.png",0.359724757552318,"27","Female","right",0,0,FALSE
3214,"E_F_jennifer_aniston.png","P_M_george_Wbush.png","FALSE","pictures/stimuli/E","pictures/stimuli/P","F","M","6","595fa59caa841c00018d7225","05/06/2022, 10:54:19","E_F_jennifer_aniston.png P_M_george_Wbush.png",0.359724757552318,"27","Female","right",0,1,FALSE
5822,"P_F_nicola_sturgeon.png","P_M_donald_trump.png","TRUE","pictures/stimuli/P","pictures/stimuli/P","F","M","6","595fa59caa841c00018d7225","05/06/2022, 10:54:19","P_F_nicola_sturgeon.png P_M_donald_trump.png",0.359724757552318,"27","Female","right",1,0,FALSE
7391,"E_F_angelina_jolie.png","E_M_robert_de_niro.png","TRUE","pictures/stimuli/E","pictures/stimuli/E","F","M","6","595fa59caa841c00018d7225","05/06/2022, 10:54:19","E_F_angelina_jolie.png E_M_robert_de_niro.png",0.359724757552318,"27","Female","right",0,1,FALSE
5239,"E_M_Hugh_Grant.png","P_M_david_cameron.png","FALSE","pictures/stimuli/E","pictures/stimuli/P","M","M","6","595fa59caa841c00018d7225","05/06/2022, 10:54:19","E_M_Hugh_Grant.png P_M_david_cameron.png",0.359724757552318,"27","Female","right",1,0,FALSE
7839,"E_F_jennifer_aniston.png","P_F_hillary_clinton.png","FALSE","pictures/stimuli/E","pictures/stimuli/P","F","F","6","595fa59caa841c00018d7225","05/06/2022, 10:54:19","E_F_jennifer_aniston.png P_F_hillary_clinton.png",0.359724757552318,"27","Female","right",0,0,FALSE
3943,"E_M_tom_hankes.png","P_M_boris_johnson.png","FALSE","pictures/stimuli/E","pictures/stimuli/P","M","M","6","595fa59caa841c00018d7225","05/06/2022, 10:54:19","E_M_tom_hankes.png P_M_boris_johnson.png",0.359724757552318,"27","Female","right",0,0,FALSE
5703,"P_F_tehresy_may.png","P_M_donald_trump.png","TRUE","pictures/stimuli/P","pictures/stimuli/P","F","M","6","595fa59caa841c00018d7225","05/06/2022, 10:54:19","P_F_tehresy_may.png P_M_donald_trump.png",0.359724757552318,"27","Female","right",0,0,FALSE
7558,"E_F_Kate_Winslet.png","P_M_boris_johnson.png","FALSE","pictures/stimuli/E","pictures/stimuli/P","F","M","6","595fa59caa841c00018d7225","05/06/2022, 10:54:19","E_F_Kate_Winslet.png P_M_boris_johnson.png",0.359724757552318,"27","Female","right",0,0,FALSE
5855,"P_F_hillary_clinton.png","P_M_bill_clinton.png","TRUE","pictures/stimuli/P","pictures/stimuli/P","F","M","6","595fa59caa841c00018d7225","05/06/2022, 10:54:19","P_F_hillary_clinton.png P_M_bill_clinton.png",0.359724757552318,"27","Female","right",0,0,FALSE
9103,"E_M_michael_caine.png","E_M_robert_de_niro.png","TRUE","pictures/stimuli/E","pictures/stimuli/E","M","M","4","595fa59caa841c00018d7225","05/06/2022, 10:54:19","E_M_michael_caine.png E_M_robert_de_niro.png",-2.5486881758494,"27","Female","right",0,1,FALSE
4174,"P_F_nicola_sturgeon.png","P_M_bill_clinton.png","TRUE","pictures/stimuli/P","pictures/stimuli/P","F","M","6","595fa59caa841c00018d7225","05/06/2022, 10:54:19","P_F_nicola_sturgeon.png P_M_bill_clinton.png",0.359724757552318,"27","Female","right",1,0,FALSE
6255,"E_F_Judi_Dench.png","E_F_sandra_bullock.png","TRUE","pictures/stimuli/E","pictures/stimuli/E","F","F","6","595fa59caa841c00018d7225","05/06/2022, 10:54:19","E_F_Judi_Dench.png E_F_sandra_bullock.png",0.359724757552318,"27","Female","right",1,1,FALSE
8239,"E_F_jennifer_aniston.png","E_M_Hugh_Grant.png","TRUE","pictures/stimuli/E","pictures/stimuli/E","F","M","6","595fa59caa841c00018d7225","05/06/2022, 10:54:19","E_F_jennifer_aniston.png E_M_Hugh_Grant.png",0.359724757552318,"27","Female","right",0,1,FALSE
6870,"P_M_bill_clinton.png","P_M_boris_johnson.png","TRUE","pictures/stimuli/P","pictures/stimuli/P","M","M","2","595fa59caa841c00018d7225","05/06/2022, 10:54:19","P_M_bill_clinton.png P_M_boris_johnson.png",-5.45710110925111,"27","Female","right",0,0,FALSE
7622,"P_M_david_cameron.png","P_M_Tony_Blair.png","TRUE","pictures/stimuli/P","pictures/stimuli/P","M","M","6","595fa59caa841c00018d7225","05/06/2022, 10:54:19","P_M_david_cameron.png P_M_Tony_Blair.png",0.359724757552318,"27","Female","right",0,0,FALSE
4398,"P_M_boris_johnson.png","P_M_donald_trump.png","TRUE","pictures/stimuli/P","pictures/stimuli/P","M","M","4","595fa59caa841c00018d7225","05/06/2022, 10:54:19","P_M_boris_johnson.png P_M_donald_trump.png",-2.5486881758494,"27","Female","right",0,0,FALSE
10303,"P_M_bill_clinton.png","P_M_donald_trump.png","TRUE","pictures/stimuli/P","pictures/stimuli/P","M","M","5","595fa59caa841c00018d7225","05/06/2022, 10:54:19","P_M_bill_clinton.png P_M_donald_trump.png",-1.09448170914854,"27","Female","right",0,0,FALSE
7535,"E_F_jennifer_aniston.png","E_M_tom_hankes.png","TRUE","pictures/stimuli/E","pictures/stimuli/E","F","M","6","595fa59caa841c00018d7225","05/06/2022, 10:54:19","E_F_jennifer_aniston.png E_M_tom_hankes.png",0.359724757552318,"27","Female","right",0,0,FALSE
4503,"E_M_michael_caine.png","P_M_george_Wbush.png","FALSE","pictures/stimuli/E","pictures/stimuli/P","M","M","6","595fa59caa841c00018d7225","05/06/2022, 10:54:19","E_M_michael_caine.png P_M_george_Wbush.png",0.359724757552318,"27","Female","right",0,1,FALSE
12134,"P_F_nicola_sturgeon.png","P_M_boris_johnson.png","TRUE","pictures/stimuli/P","pictures/stimuli/P","F","M","6","595fa59caa841c00018d7225","05/06/2022, 10:54:19","P_F_nicola_sturgeon.png P_M_boris_johnson.png",0.359724757552318,"27","Female","right",1,0,FALSE
4854,"E_F_Judi_Dench.png","E_M_Hugh_Grant.png","TRUE","pictures/stimuli/E","pictures/stimuli/E","F","M","6","595fa59caa841c00018d7225","05/06/2022, 10:54:19","E_F_Judi_Dench.png E_M_Hugh_Grant.png",0.359724757552318,"27","Female","right",1,1,FALSE
3295,"E_M_nicolas_cage.png","P_F_hillary_clinton.png","FALSE","pictures/stimuli/E","pictures/stimuli/P","M","F","6","595fa59caa841c00018d7225","05/06/2022, 10:54:19","E_M_nicolas_cage.png P_F_hillary_clinton.png",0.359724757552318,"27","Female","right",0,0,FALSE
6791,"E_F_keira_knightley.png","P_M_bill_clinton.png","FALSE","pictures/stimuli/E","pictures/stimuli/P","F","M","6","595fa59caa841c00018d7225","05/06/2022, 10:54:19","E_F_keira_knightley.png P_M_bill_clinton.png",0.359724757552318,"27","Female","right",1,0,FALSE
5342,"E_M_michael_caine.png","P_F_hillary_clinton.png","FALSE","pictures/stimuli/E","pictures/stimuli/P","M","F","6","595fa59caa841c00018d7225","05/06/2022, 10:54:19","E_M_michael_caine.png P_F_hillary_clinton.png",0.359724757552318,"27","Female","right",0,0,FALSE
4318,"E_F_sandra_bullock.png","E_M_tom_hankes.png","TRUE","pictures/stimuli/E","pictures/stimuli/E","F","M","6","595fa59caa841c00018d7225","05/06/2022, 10:54:19","E_F_sandra_bullock.png E_M_tom_hankes.png",0.359724757552318,"27","Female","right",1,0,FALSE
4135,"E_F_Kate_Winslet.png","P_M_george_Wbush.png","FALSE","pictures/stimuli/E","pictures/stimuli/P","F","M","6","595fa59caa841c00018d7225","05/06/2022, 10:54:19","E_F_Kate_Winslet.png P_M_george_Wbush.png",0.359724757552318,"27","Female","right",0,1,FALSE
12831,"E_M_michael_caine.png","P_F_tehresy_may.png","FALSE","pictures/stimuli/E","pictures/stimuli/P","M","F","5","595fa59caa841c00018d7225","05/06/2022, 10:54:19","E_M_michael_caine.png P_F_tehresy_may.png",-1.09448170914854,"27","Female","right",0,0,FALSE
15215,"P_M_bill_clinton.png","P_M_david_cameron.png","TRUE","pictures/stimuli/P","pictures/stimuli/P","M","M","5","595fa59caa841c00018d7225","05/06/2022, 10:54:19","P_M_bill_clinton.png P_M_david_cameron.png",-1.09448170914854,"27","Female","right",0,0,FALSE
5543,"P_F_nicola_sturgeon.png","P_M_david_cameron.png","TRUE","pictures/stimuli/P","pictures/stimuli/P","F","M","6","595fa59caa841c00018d7225","05/06/2022, 10:54:19","P_F_nicola_sturgeon.png P_M_david_cameron.png",0.359724757552318,"27","Female","right",1,0,FALSE
4326,"E_M_tom_hankes.png","P_M_george_Wbush.png","FALSE","pictures/stimuli/E","pictures/stimuli/P","M","M","6","595fa59caa841c00018d7225","05/06/2022, 10:54:19","E_M_tom_hankes.png P_M_george_Wbush.png",0.359724757552318,"27","Female","right",0,1,FALSE
4286,"E_F_keira_knightley.png","E_M_michael_caine.png","TRUE","pictures/stimuli/E","pictures/stimuli/E","F","M","6","595fa59caa841c00018d7225","05/06/2022, 10:54:19","E_F_keira_knightley.png E_M_michael_caine.png",0.359724757552318,"27","Female","right",1,0,FALSE
6079,"E_M_robert_de_niro.png","P_M_boris_johnson.png","FALSE","pictures/stimuli/E","pictures/stimuli/P","M","M","6","595fa59caa841c00018d7225","05/06/2022, 10:54:19","E_M_robert_de_niro.png P_M_boris_johnson.png",0.359724757552318,"27","Female","right",1,0,FALSE
4133,"E_F_keira_knightley.png","E_M_nicolas_cage.png","TRUE","pictures/stimuli/E","pictures/stimuli/E","F","M","6","595fa59caa841c00018d7225","05/06/2022, 10:54:19","E_F_keira_knightley.png E_M_nicolas_cage.png",0.359724757552318,"27","Female","right",1,0,FALSE
4663,"P_M_boris_johnson.png","P_M_Tony_Blair.png","TRUE","pictures/stimuli/P","pictures/stimuli/P","M","M","6","595fa59caa841c00018d7225","05/06/2022, 10:54:19","P_M_boris_johnson.png P_M_Tony_Blair.png",0.359724757552318,"27","Female","right",0,0,FALSE
3559,"E_F_Judi_Dench.png","E_F_keira_knightley.png","TRUE","pictures/stimuli/E","pictures/stimuli/E","F","F","6","595fa59caa841c00018d7225","05/06/2022, 10:54:19","E_F_Judi_Dench.png E_F_keira_knightley.png",0.359724757552318,"27","Female","right",1,1,FALSE
3726,"P_F_hillary_clinton.png","P_M_Tony_Blair.png","TRUE","pictures/stimuli/P","pictures/stimuli/P","F","M","6","595fa59caa841c00018d7225","05/06/2022, 10:54:19","P_F_hillary_clinton.png P_M_Tony_Blair.png",0.359724757552318,"27","Female","right",0,0,FALSE
4271,"E_F_sandra_bullock.png","E_M_nicolas_cage.png","TRUE","pictures/stimuli/E","pictures/stimuli/E","F","M","6","595fa59caa841c00018d7225","05/06/2022, 10:54:19","E_F_sandra_bullock.png E_M_nicolas_cage.png",0.359724757552318,"27","Female","right",1,0,FALSE
4263,"E_F_angelina_jolie.png","P_M_boris_johnson.png","FALSE","pictures/stimuli/E","pictures/stimuli/P","F","M","6","595fa59caa841c00018d7225","05/06/2022, 10:54:19","E_F_angelina_jolie.png P_M_boris_johnson.png",0.359724757552318,"27","Female","right",0,0,FALSE
4335,"E_F_keira_knightley.png","P_F_nicola_sturgeon.png","FALSE","pictures/stimuli/E","pictures/stimuli/P","F","F","6","595fa59caa841c00018d7225","05/06/2022, 10:54:19","E_F_keira_knightley.png P_F_nicola_sturgeon.png",0.359724757552318,"27","Female","right",1,1,FALSE
5414,"E_F_angelina_jolie.png","E_F_jennifer_aniston.png","TRUE","pictures/stimuli/E","pictures/stimuli/E","F","F","6","595fa59caa841c00018d7225","05/06/2022, 10:54:19","E_F_angelina_jolie.png E_F_jennifer_aniston.png",0.359724757552318,"27","Female","right",0,0,FALSE
9046,"E_F_sandra_bullock.png","P_M_david_cameron.png","FALSE","pictures/stimuli/E","pictures/stimuli/P","F","M","6","595fa59caa841c00018d7225","05/06/2022, 10:54:19","E_F_sandra_bullock.png P_M_david_cameron.png",0.359724757552318,"27","Female","right",1,0,FALSE
5925,"E_F_jennifer_aniston.png","P_M_david_cameron.png","FALSE","pictures/stimuli/E","pictures/stimuli/P","F","M","6","595fa59caa841c00018d7225","05/06/2022, 10:54:19","E_F_jennifer_aniston.png P_M_david_cameron.png",0.359724757552318,"27","Female","right",0,0,FALSE
3967,"E_F_Judi_Dench.png","E_F_Kate_Winslet.png","TRUE","pictures/stimuli/E","pictures/stimuli/E","F","F","6","595fa59caa841c00018d7225","05/06/2022, 10:54:19","E_F_Judi_Dench.png E_F_Kate_Winslet.png",0.359724757552318,"27","Female","right",1,0,FALSE
3295,"E_F_keira_knightley.png","P_M_Tony_Blair.png","FALSE","pictures/stimuli/E","pictures/stimuli/P","F","M","6","595fa59caa841c00018d7225","05/06/2022, 10:54:19","E_F_keira_knightley.png P_M_Tony_Blair.png",0.359724757552318,"27","Female","right",1,0,FALSE
3662,"E_M_nicolas_cage.png","P_F_tehresy_may.png","FALSE","pictures/stimuli/E","pictures/stimuli/P","M","F","6","595fa59caa841c00018d7225","05/06/2022, 10:54:19","E_M_nicolas_cage.png P_F_tehresy_may.png",0.359724757552318,"27","Female","right",0,0,FALSE
7007,"E_M_robert_de_niro.png","P_M_bill_clinton.png","FALSE","pictures/stimuli/E","pictures/stimuli/P","M","M","3","595fa59caa841c00018d7225","05/06/2022, 10:54:19","E_M_robert_de_niro.png P_M_bill_clinton.png",-4.00289464255026,"27","Female","right",1,0,FALSE
2534,"E_M_robert_de_niro.png","P_F_hillary_clinton.png","FALSE","pictures/stimuli/E","pictures/stimuli/P","M","F","6","595fa59caa841c00018d7225","05/06/2022, 10:54:19","E_M_robert_de_niro.png P_F_hillary_clinton.png",0.359724757552318,"27","Female","right",1,0,FALSE
4070,"E_F_Judi_Dench.png","E_M_michael_caine.png","TRUE","pictures/stimuli/E","pictures/stimuli/E","F","M","6","595fa59caa841c00018d7225","05/06/2022, 10:54:19","E_F_Judi_Dench.png E_M_michael_caine.png",0.359724757552318,"27","Female","right",1,0,FALSE
17758,"E_F_Kate_Winslet.png","P_F_hillary_clinton.png","FALSE","pictures/stimuli/E","pictures/stimuli/P","F","F","4","595fa59caa841c00018d7225","05/06/2022, 10:54:19","E_F_Kate_Winslet.png P_F_hillary_clinton.png",-2.5486881758494,"27","Female","right",0,0,FALSE
3454,"E_F_Judi_Dench.png","P_F_nicola_sturgeon.png","FALSE","pictures/stimuli/E","pictures/stimuli/P","F","F","6","595fa59caa841c00018d7225","05/06/2022, 10:54:19","E_F_Judi_Dench.png P_F_nicola_sturgeon.png",0.359724757552318,"27","Female","right",1,1,FALSE
5247,"E_F_keira_knightley.png","P_M_donald_trump.png","FALSE","pictures/stimuli/E","pictures/stimuli/P","F","M","6","595fa59caa841c00018d7225","05/06/2022, 10:54:19","E_F_keira_knightley.png P_M_donald_trump.png",0.359724757552318,"27","Female","right",1,0,FALSE
3846,"E_F_jennifer_aniston.png","P_F_nicola_sturgeon.png","FALSE","pictures/stimuli/E","pictures/stimuli/P","F","F","6","595fa59caa841c00018d7225","05/06/2022, 10:54:19","E_F_jennifer_aniston.png P_F_nicola_sturgeon.png",0.359724757552318,"27","Female","right",0,1,FALSE
5590,"E_F_Kate_Winslet.png","E_M_michael_caine.png","TRUE","pictures/stimuli/E","pictures/stimuli/E","F","M","6","595fa59caa841c00018d7225","05/06/2022, 10:54:19","E_F_Kate_Winslet.png E_M_michael_caine.png",0.359724757552318,"27","Female","right",0,0,FALSE
12583,"E_M_Hugh_Grant.png","P_M_boris_johnson.png","FALSE","pictures/stimuli/E","pictures/stimuli/P","M","M","4","595fa59caa841c00018d7225","05/06/2022, 10:54:19","E_M_Hugh_Grant.png P_M_boris_johnson.png",-2.5486881758494,"27","Female","right",1,0,FALSE
2055,"E_F_keira_knightley.png","P_M_george_Wbush.png","FALSE","pictures/stimuli/E","pictures/stimuli/P","F","M","6","595fa59caa841c00018d7225","05/06/2022, 10:54:19","E_F_keira_knightley.png P_M_george_Wbush.png",0.359724757552318,"27","Female","right",1,1,FALSE
8198,"P_F_tehresy_may.png","P_M_boris_johnson.png","TRUE","pictures/stimuli/P","pictures/stimuli/P","F","M","6","595fa59caa841c00018d7225","05/06/2022, 10:54:19","P_F_tehresy_may.png P_M_boris_johnson.png",0.359724757552318,"27","Female","right",0,0,FALSE
11767,"P_F_hillary_clinton.png","P_F_tehresy_may.png","TRUE","pictures/stimuli/P","pictures/stimuli/P","F","F","4","595fa59caa841c00018d7225","05/06/2022, 10:54:19","P_F_hillary_clinton.png P_F_tehresy_may.png",-2.5486881758494,"27","Female","right",0,0,FALSE
3381,"E_F_jennifer_aniston.png","P_M_donald_trump.png","FALSE","pictures/stimuli/E","pictures/stimuli/P","F","M","6","595fa59caa841c00018d7225","05/06/2022, 10:54:19","E_F_jennifer_aniston.png P_M_donald_trump.png",0.359724757552318,"27","Female","right",0,0,FALSE
3263,"E_M_nicolas_cage.png","P_M_boris_johnson.png","FALSE","pictures/stimuli/E","pictures/stimuli/P","M","M","6","595fa59caa841c00018d7225","05/06/2022, 10:54:19","E_M_nicolas_cage.png P_M_boris_johnson.png",0.359724757552318,"27","Female","right",0,0,FALSE
3382,"P_M_donald_trump.png","P_M_george_Wbush.png","TRUE","pictures/stimuli/P","pictures/stimuli/P","M","M","6","595fa59caa841c00018d7225","05/06/2022, 10:54:19","P_M_donald_trump.png P_M_george_Wbush.png",0.359724757552318,"27","Female","right",0,1,FALSE
2806,"E_F_Kate_Winslet.png","P_M_donald_trump.png","FALSE","pictures/stimuli/E","pictures/stimuli/P","F","M","6","595fa59caa841c00018d7225","05/06/2022, 10:54:19","E_F_Kate_Winslet.png P_M_donald_trump.png",0.359724757552318,"27","Female","right",0,0,FALSE
4991,"E_F_Judi_Dench.png","P_M_donald_trump.png","FALSE","pictures/stimuli/E","pictures/stimuli/P","F","M","5","595fa59caa841c00018d7225","05/06/2022, 10:54:19","E_F_Judi_Dench.png P_M_donald_trump.png",-1.09448170914854,"27","Female","right",1,0,FALSE
3687,"P_F_tehresy_may.png","P_M_bill_clinton.png","TRUE","pictures/stimuli/P","pictures/stimuli/P","F","M","6","595fa59caa841c00018d7225","05/06/2022, 10:54:19","P_F_tehresy_may.png P_M_bill_clinton.png",0.359724757552318,"27","Female","right",0,0,FALSE
2247,"E_F_angelina_jolie.png","P_M_donald_trump.png","FALSE","pictures/stimuli/E","pictures/stimuli/P","F","M","6","595fa59caa841c00018d7225","05/06/2022, 10:54:19","E_F_angelina_jolie.png P_M_donald_trump.png",0.359724757552318,"27","Female","right",0,0,FALSE
3086,"E_M_Hugh_Grant.png","P_M_george_Wbush.png","FALSE","pictures/stimuli/E","pictures/stimuli/P","M","M","6","595fa59caa841c00018d7225","05/06/2022, 10:54:19","E_M_Hugh_Grant.png P_M_george_Wbush.png",0.359724757552318,"27","Female","right",1,1,FALSE
5534,"E_M_michael_caine.png","P_M_bill_clinton.png","FALSE","pictures/stimuli/E","pictures/stimuli/P","M","M","6","595fa59caa841c00018d7225","05/06/2022, 10:54:19","E_M_michael_caine.png P_M_bill_clinton.png",0.359724757552318,"27","Female","right",0,0,FALSE
3854,"E_M_tom_hankes.png","P_F_nicola_sturgeon.png","FALSE","pictures/stimuli/E","pictures/stimuli/P","M","F","6","595fa59caa841c00018d7225","05/06/2022, 10:54:19","E_M_tom_hankes.png P_F_nicola_sturgeon.png",0.359724757552318,"27","Female","right",0,1,FALSE
3719,"P_F_tehresy_may.png","P_M_Tony_Blair.png","TRUE","pictures/stimuli/P","pictures/stimuli/P","F","M","6","595fa59caa841c00018d7225","05/06/2022, 10:54:19","P_F_tehresy_may.png P_M_Tony_Blair.png",0.359724757552318,"27","Female","right",0,0,FALSE
7471,"E_F_Judi_Dench.png","P_M_boris_johnson.png","FALSE","pictures/stimuli/E","pictures/stimuli/P","F","M","6","595fa59caa841c00018d7225","05/06/2022, 10:54:19","E_F_Judi_Dench.png P_M_boris_johnson.png",0.359724757552318,"27","Female","right",1,0,FALSE
2958,"E_F_Judi_Dench.png","E_M_robert_de_niro.png","TRUE","pictures/stimuli/E","pictures/stimuli/E","F","M","6","595fa59caa841c00018d7225","05/06/2022, 10:54:19","E_F_Judi_Dench.png E_M_robert_de_niro.png",0.359724757552318,"27","Female","right",1,1,FALSE
4119,"E_M_Hugh_Grant.png","P_M_Tony_Blair.png","FALSE","pictures/stimuli/E","pictures/stimuli/P","M","M","6","595fa59caa841c00018d7225","05/06/2022, 10:54:19","E_M_Hugh_Grant.png P_M_Tony_Blair.png",0.359724757552318,"27","Female","right",1,0,FALSE
5023,"E_F_sandra_bullock.png","E_M_robert_de_niro.png","TRUE","pictures/stimuli/E","pictures/stimuli/E","F","M","6","595fa59caa841c00018d7225","05/06/2022, 10:54:19","E_F_sandra_bullock.png E_M_robert_de_niro.png",0.359724757552318,"27","Female","right",1,1,FALSE
6406,"E_F_jennifer_aniston.png","E_F_Kate_Winslet.png","TRUE","pictures/stimuli/E","pictures/stimuli/E","F","F","4","595fa59caa841c00018d7225","05/06/2022, 10:54:19","E_F_jennifer_aniston.png E_F_Kate_Winslet.png",-2.5486881758494,"27","Female","right",0,0,FALSE
3319,"E_M_Hugh_Grant.png","E_M_robert_de_niro.png","TRUE","pictures/stimuli/E","pictures/stimuli/E","M","M","6","595fa59caa841c00018d7225","05/06/2022, 10:54:19","E_M_Hugh_Grant.png E_M_robert_de_niro.png",0.359724757552318,"27","Female","right",1,1,FALSE
3047,"E_F_jennifer_aniston.png","E_F_Judi_Dench.png","TRUE","pictures/stimuli/E","pictures/stimuli/E","F","F","6","595fa59caa841c00018d7225","05/06/2022, 10:54:19","E_F_jennifer_aniston.png E_F_Judi_Dench.png",0.359724757552318,"27","Female","right",0,1,FALSE
3982,"P_F_hillary_clinton.png","P_F_nicola_sturgeon.png","TRUE","pictures/stimuli/P","pictures/stimuli/P","F","F","6","595fa59caa841c00018d7225","05/06/2022, 10:54:19","P_F_hillary_clinton.png P_F_nicola_sturgeon.png",0.359724757552318,"27","Female","right",0,1,FALSE
3071,"E_F_keira_knightley.png","E_M_robert_de_niro.png","TRUE","pictures/stimuli/E","pictures/stimuli/E","F","M","6","595fa59caa841c00018d7225","05/06/2022, 10:54:19","E_F_keira_knightley.png E_M_robert_de_niro.png",0.359724757552318,"27","Female","right",1,1,FALSE
4646,"E_M_Hugh_Grant.png","P_F_tehresy_may.png","FALSE","pictures/stimuli/E","pictures/stimuli/P","M","F","6","595fa59caa841c00018d7225","05/06/2022, 10:54:19","E_M_Hugh_Grant.png P_F_tehresy_may.png",0.359724757552318,"27","Female","right",1,0,FALSE
4887,"E_M_Hugh_Grant.png","E_M_michael_caine.png","TRUE","pictures/stimuli/E","pictures/stimuli/E","M","M","6","595fa59caa841c00018d7225","05/06/2022, 10:54:19","E_M_Hugh_Grant.png E_M_michael_caine.png",0.359724757552318,"27","Female","right",1,0,FALSE
2031,"P_F_hillary_clinton.png","P_M_donald_trump.png","TRUE","pictures/stimuli/P","pictures/stimuli/P","F","M","6","595fa59caa841c00018d7225","05/06/2022, 10:54:19","P_F_hillary_clinton.png P_M_donald_trump.png",0.359724757552318,"27","Female","right",0,0,FALSE
4623,"E_M_nicolas_cage.png","P_M_donald_trump.png","FALSE","pictures/stimuli/E","pictures/stimuli/P","M","M","6","595fa59caa841c00018d7225","05/06/2022, 10:54:19","E_M_nicolas_cage.png P_M_donald_trump.png",0.359724757552318,"27","Female","right",0,0,FALSE
3047,"E_F_sandra_bullock.png","P_M_donald_trump.png","FALSE","pictures/stimuli/E","pictures/stimuli/P","F","M","6","595fa59caa841c00018d7225","05/06/2022, 10:54:19","E_F_sandra_bullock.png P_M_donald_trump.png",0.359724757552318,"27","Female","right",1,0,FALSE
3534,"E_M_tom_hankes.png","P_F_hillary_clinton.png","FALSE","pictures/stimuli/E","pictures/stimuli/P","M","F","6","595fa59caa841c00018d7225","05/06/2022, 10:54:19","E_M_tom_hankes.png P_F_hillary_clinton.png",0.359724757552318,"27","Female","right",0,0,FALSE
3159,"E_F_jennifer_aniston.png","P_M_boris_johnson.png","FALSE","pictures/stimuli/E","pictures/stimuli/P","F","M","6","595fa59caa841c00018d7225","05/06/2022, 10:54:19","E_F_jennifer_aniston.png P_M_boris_johnson.png",0.359724757552318,"27","Female","right",0,0,FALSE
3334,"P_F_tehresy_may.png","P_M_david_cameron.png","TRUE","pictures/stimuli/P","pictures/stimuli/P","F","M","6","595fa59caa841c00018d7225","05/06/2022, 10:54:19","P_F_tehresy_may.png P_M_david_cameron.png",0.359724757552318,"27","Female","right",0,0,FALSE
3103,"E_M_michael_caine.png","P_M_donald_trump.png","FALSE","pictures/stimuli/E","pictures/stimuli/P","M","M","5","595fa59caa841c00018d7225","05/06/2022, 10:54:19","E_M_michael_caine.png P_M_donald_trump.png",-1.09448170914854,"27","Female","right",0,0,FALSE
9326,"P_M_boris_johnson.png","P_M_david_cameron.png","TRUE","pictures/stimuli/P","pictures/stimuli/P","M","M","5","595fa59caa841c00018d7225","05/06/2022, 10:54:19","P_M_boris_johnson.png P_M_david_cameron.png",-1.09448170914854,"27","Female","right",0,0,FALSE
3597,"E_F_angelina_jolie.png","P_M_david_cameron.png","FALSE","pictures/stimuli/E","pictures/stimuli/P","F","M","6","595fa59caa841c00018d7225","05/06/2022, 10:54:19","E_F_angelina_jolie.png P_M_david_cameron.png",0.359724757552318,"27","Female","right",0,0,FALSE
4182,"E_M_nicolas_cage.png","P_M_Tony_Blair.png","FALSE","pictures/stimuli/E","pictures/stimuli/P","M","M","6","595fa59caa841c00018d7225","05/06/2022, 10:54:19","E_M_nicolas_cage.png P_M_Tony_Blair.png",0.359724757552318,"27","Female","right",0,0,FALSE
3679,"E_F_jennifer_aniston.png","E_M_nicolas_cage.png","TRUE","pictures/stimuli/E","pictures/stimuli/E","F","M","6","595fa59caa841c00018d7225","05/06/2022, 10:54:19","E_F_jennifer_aniston.png E_M_nicolas_cage.png",0.359724757552318,"27","Female","right",0,0,FALSE
6774,"E_F_sandra_bullock.png","P_F_nicola_sturgeon.png","FALSE","pictures/stimuli/E","pictures/stimuli/P","F","F","6","595fa59caa841c00018d7225","05/06/2022, 10:54:19","E_F_sandra_bullock.png P_F_nicola_sturgeon.png",0.359724757552318,"27","Female","right",1,1,FALSE
3655,"E_F_jennifer_aniston.png","P_M_Tony_Blair.png","FALSE","pictures/stimuli/E","pictures/stimuli/P","F","M","6","595fa59caa841c00018d7225","05/06/2022, 10:54:19","E_F_jennifer_aniston.png P_M_Tony_Blair.png",0.359724757552318,"27","Female","right",0,0,FALSE
12462,"P_M_donald_trump.png","P_M_Tony_Blair.png","TRUE","pictures/stimuli/P","pictures/stimuli/P","M","M","5","595fa59caa841c00018d7225","05/06/2022, 10:54:19","P_M_donald_trump.png P_M_Tony_Blair.png",-1.09448170914854,"27","Female","right",0,0,FALSE
7535,"E_M_tom_hankes.png","P_M_david_cameron.png","FALSE","pictures/stimuli/E","pictures/stimuli/P","M","M","3","595fa59caa841c00018d7225","05/06/2022, 10:54:19","E_M_tom_hankes.png P_M_david_cameron.png",-4.00289464255026,"27","Female","right",0,0,FALSE
2062,"P_F_hillary_clinton.png","P_M_david_cameron.png","TRUE","pictures/stimuli/P","pictures/stimuli/P","F","M","6","595fa59caa841c00018d7225","05/06/2022, 10:54:19","P_F_hillary_clinton.png P_M_david_cameron.png",0.359724757552318,"27","Female","right",0,0,FALSE
5383,"E_F_angelina_jolie.png","P_F_nicola_sturgeon.png","FALSE","pictures/stimuli/E","pictures/stimuli/P","F","F","6","595fa59caa841c00018d7225","05/06/2022, 10:54:19","E_F_angelina_jolie.png P_F_nicola_sturgeon.png",0.359724757552318,"27","Female","right",0,1,FALSE
2471,"E_F_angelina_jolie.png","E_F_Judi_Dench.png","TRUE","pictures/stimuli/E","pictures/stimuli/E","F","F","6","595fa59caa841c00018d7225","05/06/2022, 10:54:19","E_F_angelina_jolie.png E_F_Judi_Dench.png",0.359724757552318,"27","Female","right",0,1,FALSE
1765,"E_F_Kate_Winslet.png","E_M_nicolas_cage.png","TRUE","pictures/stimuli/E","pictures/stimuli/E","F","M","6","595fa59caa841c00018d7225","05/06/2022, 10:54:19","E_F_Kate_Winslet.png E_M_nicolas_cage.png",0.359724757552318,"27","Female","right",0,0,FALSE
4598,"P_M_bill_clinton.png","P_M_Tony_Blair.png","TRUE","pictures/stimuli/P","pictures/stimuli/P","M","M","6","595fa59caa841c00018d7225","05/06/2022, 10:54:19","P_M_bill_clinton.png P_M_Tony_Blair.png",0.359724757552318,"27","Female","right",0,0,FALSE
4087,"E_M_Hugh_Grant.png","P_M_donald_trump.png","FALSE","pictures/stimuli/E","pictures/stimuli/P","M","M","6","595fa59caa841c00018d7225","05/06/2022, 10:54:19","E_M_Hugh_Grant.png P_M_donald_trump.png",0.359724757552318,"27","Female","right",1,0,FALSE
6694,"E_F_keira_knightley.png","P_M_david_cameron.png","FALSE","pictures/stimuli/E","pictures/stimuli/P","F","M","6","595fa59caa841c00018d7225","05/06/2022, 10:54:19","E_F_keira_knightley.png P_M_david_cameron.png",0.359724757552318,"27","Female","right",1,0,FALSE
2326,"E_F_Kate_Winslet.png","P_M_david_cameron.png","FALSE","pictures/stimuli/E","pictures/stimuli/P","F","M","6","595fa59caa841c00018d7225","05/06/2022, 10:54:19","E_F_Kate_Winslet.png P_M_david_cameron.png",0.359724757552318,"27","Female","right",0,0,FALSE
2663,"E_M_tom_hankes.png","P_M_donald_trump.png","FALSE","pictures/stimuli/E","pictures/stimuli/P","M","M","6","595fa59caa841c00018d7225","05/06/2022, 10:54:19","E_M_tom_hankes.png P_M_donald_trump.png",0.359724757552318,"27","Female","right",0,0,FALSE
5726,"E_F_keira_knightley.png","E_M_Hugh_Grant.png","TRUE","pictures/stimuli/E","pictures/stimuli/E","F","M","6","595fa59caa841c00018d7225","05/06/2022, 10:54:19","E_F_keira_knightley.png E_M_Hugh_Grant.png",0.359724757552318,"27","Female","right",1,1,FALSE
3214,"P_M_boris_johnson.png","P_M_george_Wbush.png","TRUE","pictures/stimuli/P","pictures/stimuli/P","M","M","6","595fa59caa841c00018d7225","05/06/2022, 10:54:19","P_M_boris_johnson.png P_M_george_Wbush.png",0.359724757552318,"27","Female","right",0,1,FALSE
2798,"P_F_nicola_sturgeon.png","P_M_Tony_Blair.png","TRUE","pictures/stimuli/P","pictures/stimuli/P","F","M","6","595fa59caa841c00018d7225","05/06/2022, 10:54:19","P_F_nicola_sturgeon.png P_M_Tony_Blair.png",0.359724757552318,"27","Female","right",1,0,FALSE
5030,"E_F_sandra_bullock.png","P_M_Tony_Blair.png","FALSE","pictures/stimuli/E","pictures/stimuli/P","F","M","6","595fa59caa841c00018d7225","05/06/2022, 10:54:19","E_F_sandra_bullock.png P_M_Tony_Blair.png",0.359724757552318,"27","Female","right",1,0,FALSE
3718,"E_M_michael_caine.png","E_M_tom_hankes.png","TRUE","pictures/stimuli/E","pictures/stimuli/E","M","M","6","595fa59caa841c00018d7225","05/06/2022, 10:54:19","E_M_michael_caine.png E_M_tom_hankes.png",0.359724757552318,"27","Female","right",0,0,FALSE
4766,"E_M_robert_de_niro.png","P_M_george_Wbush.png","FALSE","pictures/stimuli/E","pictures/stimuli/P","M","M","6","595fa59caa841c00018d7225","05/06/2022, 10:54:19","E_M_robert_de_niro.png P_M_george_Wbush.png",0.359724757552318,"27","Female","right",1,1,FALSE
4717,"E_F_Kate_Winslet.png","E_F_sandra_bullock.png","TRUE","pictures/stimuli/E","pictures/stimuli/E","F","F","6","595fa59caa841c00018d7225","05/06/2022, 10:54:19","E_F_Kate_Winslet.png E_F_sandra_bullock.png",0.359724757552318,"27","Female","right",0,1,FALSE
13141,"E_M_Hugh_Grant.png","P_M_bill_clinton.png","FALSE","pictures/stimuli/E","pictures/stimuli/P","M","M","5","595fa59caa841c00018d7225","05/06/2022, 10:54:19","E_M_Hugh_Grant.png P_M_bill_clinton.png",-1.09448170914854,"27","Female","right",1,0,FALSE
3182,"E_M_nicolas_cage.png","P_M_bill_clinton.png","FALSE","pictures/stimuli/E","pictures/stimuli/P","M","M","6","595fa59caa841c00018d7225","05/06/2022, 10:54:19","E_M_nicolas_cage.png P_M_bill_clinton.png",0.359724757552318,"27","Female","right",0,0,FALSE
1839,"E_F_keira_knightley.png","P_F_hillary_clinton.png","FALSE","pictures/stimuli/E","pictures/stimuli/P","F","F","6","595fa59caa841c00018d7225","05/06/2022, 10:54:19","E_F_keira_knightley.png P_F_hillary_clinton.png",0.359724757552318,"27","Female","right",1,0,FALSE
2175,"E_M_Hugh_Grant.png","E_M_nicolas_cage.png","TRUE","pictures/stimuli/E","pictures/stimuli/E","M","M","6","595fa59caa841c00018d7225","05/06/2022, 10:54:19","E_M_Hugh_Grant.png E_M_nicolas_cage.png",0.359724757552318,"27","Female","right",1,0,FALSE
2527,"E_F_keira_knightley.png","P_F_tehresy_may.png","FALSE","pictures/stimuli/E","pictures/stimuli/P","F","F","6","595fa59caa841c00018d7225","05/06/2022, 10:54:19","E_F_keira_knightley.png P_F_tehresy_may.png",0.359724757552318,"27","Female","right",1,0,FALSE
4254,"E_M_robert_de_niro.png","P_M_Tony_Blair.png","FALSE","pictures/stimuli/E","pictures/stimuli/P","M","M","5","595fa59caa841c00018d7225","05/06/2022, 10:54:19","E_M_robert_de_niro.png P_M_Tony_Blair.png",-1.09448170914854,"27","Female","right",1,0,FALSE
2326,"E_F_keira_knightley.png","P_M_boris_johnson.png","FALSE","pictures/stimuli/E","pictures/stimuli/P","F","M","6","595fa59caa841c00018d7225","05/06/2022, 10:54:19","E_F_keira_knightley.png P_M_boris_johnson.png",0.359724757552318,"27","Female","right",1,0,FALSE
3295,"P_F_nicola_sturgeon.png","P_M_george_Wbush.png","TRUE","pictures/stimuli/P","pictures/stimuli/P","F","M","6","595fa59caa841c00018d7225","05/06/2022, 10:54:19","P_F_nicola_sturgeon.png P_M_george_Wbush.png",0.359724757552318,"27","Female","right",1,1,FALSE
5887,"E_F_sandra_bullock.png","P_F_tehresy_may.png","FALSE","pictures/stimuli/E","pictures/stimuli/P","F","F","6","595fa59caa841c00018d7225","05/06/2022, 10:54:19","E_F_sandra_bullock.png P_F_tehresy_may.png",0.359724757552318,"27","Female","right",1,0,FALSE
8678,"E_M_robert_de_niro.png","P_M_david_cameron.png","FALSE","pictures/stimuli/E","pictures/stimuli/P","M","M","6","595fa59caa841c00018d7225","05/06/2022, 10:54:19","E_M_robert_de_niro.png P_M_david_cameron.png",0.359724757552318,"27","Female","right",1,0,FALSE
3262,"P_M_george_Wbush.png","P_M_Tony_Blair.png","TRUE","pictures/stimuli/P","pictures/stimuli/P","M","M","6","595fa59caa841c00018d7225","05/06/2022, 10:54:19","P_M_george_Wbush.png P_M_Tony_Blair.png",0.359724757552318,"27","Female","right",1,0,FALSE
3366,"E_F_angelina_jolie.png","P_M_bill_clinton.png","FALSE","pictures/stimuli/E","pictures/stimuli/P","F","M","6","595fa59caa841c00018d7225","05/06/2022, 10:54:19","E_F_angelina_jolie.png P_M_bill_clinton.png",0.359724757552318,"27","Female","right",0,0,FALSE
3214,"E_F_Judi_Dench.png","P_M_george_Wbush.png","FALSE","pictures/stimuli/E","pictures/stimuli/P","F","M","6","595fa59caa841c00018d7225","05/06/2022, 10:54:19","E_F_Judi_Dench.png P_M_george_Wbush.png",0.359724757552318,"27","Female","right",1,1,FALSE
2639,"E_F_keira_knightley.png","E_M_tom_hankes.png","TRUE","pictures/stimuli/E","pictures/stimuli/E","F","M","6","595fa59caa841c00018d7225","05/06/2022, 10:54:19","E_F_keira_knightley.png E_M_tom_hankes.png",0.359724757552318,"27","Female","right",1,0,FALSE
3326,"E_F_Kate_Winslet.png","P_M_bill_clinton.png","FALSE","pictures/stimuli/E","pictures/stimuli/P","F","M","6","595fa59caa841c00018d7225","05/06/2022, 10:54:19","E_F_Kate_Winslet.png P_M_bill_clinton.png",0.359724757552318,"27","Female","right",0,0,FALSE
2639,"P_F_hillary_clinton.png","P_M_boris_johnson.png","TRUE","pictures/stimuli/P","pictures/stimuli/P","F","M","6","595fa59caa841c00018d7225","05/06/2022, 10:54:19","P_F_hillary_clinton.png P_M_boris_johnson.png",0.359724757552318,"27","Female","right",0,0,FALSE
2694,"E_F_Kate_Winslet.png","E_M_tom_hankes.png","TRUE","pictures/stimuli/E","pictures/stimuli/E","F","M","6","595fa59caa841c00018d7225","05/06/2022, 10:54:19","E_F_Kate_Winslet.png E_M_tom_hankes.png",0.359724757552318,"27","Female","right",0,0,FALSE
3295,"E_M_nicolas_cage.png","E_M_robert_de_niro.png","TRUE","pictures/stimuli/E","pictures/stimuli/E","M","M","6","595fa59caa841c00018d7225","05/06/2022, 10:54:19","E_M_nicolas_cage.png E_M_robert_de_niro.png",0.359724757552318,"27","Female","right",0,1,FALSE
2631,"E_F_Kate_Winslet.png","P_F_nicola_sturgeon.png","FALSE","pictures/stimuli/E","pictures/stimuli/P","F","F","6","595fa59caa841c00018d7225","05/06/2022, 10:54:19","E_F_Kate_Winslet.png P_F_nicola_sturgeon.png",0.359724757552318,"27","Female","right",0,1,FALSE
3862,"E_M_robert_de_niro.png","P_M_donald_trump.png","FALSE","pictures/stimuli/E","pictures/stimuli/P","M","M","6","595fa59caa841c00018d7225","05/06/2022, 10:54:19","E_M_robert_de_niro.png P_M_donald_trump.png",0.359724757552318,"27","Female","right",1,0,FALSE
5022,"P_M_david_cameron.png","P_M_george_Wbush.png","TRUE","pictures/stimuli/P","pictures/stimuli/P","M","M","6","595fa59caa841c00018d7225","05/06/2022, 10:54:19","P_M_david_cameron.png P_M_george_Wbush.png",0.359724757552318,"27","Female","right",0,1,FALSE
4495,"E_M_nicolas_cage.png","E_M_tom_hankes.png","TRUE","pictures/stimuli/E","pictures/stimuli/E","M","M","6","595fa59caa841c00018d7225","05/06/2022, 10:54:19","E_M_nicolas_cage.png E_M_tom_hankes.png",0.359724757552318,"27","Female","right",0,0,FALSE
5173,"E_M_tom_hankes.png","P_M_Tony_Blair.png","FALSE","pictures/stimuli/E","pictures/stimuli/P","M","M","6","595fa59caa841c00018d7225","05/06/2022, 10:54:19","E_M_tom_hankes.png P_M_Tony_Blair.png",0.359724757552318,"27","Female","right",0,0,FALSE
4303,"E_M_michael_caine.png","E_M_nicolas_cage.png","TRUE","pictures/stimuli/E","pictures/stimuli/E","M","M","6","595fa59caa841c00018d7225","05/06/2022, 10:54:19","E_M_michael_caine.png E_M_nicolas_cage.png",0.359724757552318,"27","Female","right",0,0,FALSE
5118,"E_M_tom_hankes.png","P_M_bill_clinton.png","FALSE","pictures/stimuli/E","pictures/stimuli/P","M","M","5","595fa59caa841c00018d7225","05/06/2022, 10:54:19","E_M_tom_hankes.png P_M_bill_clinton.png",-1.09448170914854,"27","Female","right",0,0,FALSE
2591,"E_F_Judi_Dench.png","P_F_hillary_clinton.png","FALSE","pictures/stimuli/E","pictures/stimuli/P","F","F","6","595fa59caa841c00018d7225","05/06/2022, 10:54:19","E_F_Judi_Dench.png P_F_hillary_clinton.png",0.359724757552318,"27","Female","right",1,0,FALSE
14078,"E_M_robert_de_niro.png","E_M_tom_hankes.png","TRUE","pictures/stimuli/E","pictures/stimuli/E","M","M","4","595fa59caa841c00018d7225","05/06/2022, 10:54:19","E_M_robert_de_niro.png E_M_tom_hankes.png",-2.5486881758494,"27","Female","right",1,0,FALSE
2167,"E_M_nicolas_cage.png","P_F_nicola_sturgeon.png","FALSE","pictures/stimuli/E","pictures/stimuli/P","M","F","6","595fa59caa841c00018d7225","05/06/2022, 10:54:19","E_M_nicolas_cage.png P_F_nicola_sturgeon.png",0.359724757552318,"27","Female","right",0,1,FALSE
6839,"P_F_hillary_clinton.png","P_M_george_Wbush.png","TRUE","pictures/stimuli/P","pictures/stimuli/P","F","M","6","595fa59caa841c00018d7225","05/06/2022, 10:54:19","P_F_hillary_clinton.png P_M_george_Wbush.png",0.359724757552318,"27","Female","right",0,1,FALSE
2383,"E_F_Judi_Dench.png","P_F_tehresy_may.png","FALSE","pictures/stimuli/E","pictures/stimuli/P","F","F","6","595fa59caa841c00018d7225","05/06/2022, 10:54:19","E_F_Judi_Dench.png P_F_tehresy_may.png",0.359724757552318,"27","Female","right",1,0,FALSE
1901,"E_M_michael_caine.png","P_M_david_cameron.png","FALSE","pictures/stimuli/E","pictures/stimuli/P","M","M","6","595fa59caa841c00018d7225","05/06/2022, 10:54:19","E_M_michael_caine.png P_M_david_cameron.png",0.359724757552318,"27","Female","right",0,0,FALSE
2751,"E_M_nicolas_cage.png","P_M_david_cameron.png","FALSE","pictures/stimuli/E","pictures/stimuli/P","M","M","6","595fa59caa841c00018d7225","05/06/2022, 10:54:19","E_M_nicolas_cage.png P_M_david_cameron.png",0.359724757552318,"27","Female","right",0,0,FALSE
2670,"E_M_michael_caine.png","P_M_Tony_Blair.png","FALSE","pictures/stimuli/E","pictures/stimuli/P","M","M","6","595fa59caa841c00018d7225","05/06/2022, 10:54:19","E_M_michael_caine.png P_M_Tony_Blair.png",0.359724757552318,"27","Female","right",0,0,FALSE
2678,"P_F_tehresy_may.png","P_M_george_Wbush.png","TRUE","pictures/stimuli/P","pictures/stimuli/P","F","M","6","595fa59caa841c00018d7225","05/06/2022, 10:54:19","P_F_tehresy_may.png P_M_george_Wbush.png",0.359724757552318,"27","Female","right",0,1,FALSE
2311,"E_M_nicolas_cage.png","P_M_george_Wbush.png","FALSE","pictures/stimuli/E","pictures/stimuli/P","M","M","6","595fa59caa841c00018d7225","05/06/2022, 10:54:19","E_M_nicolas_cage.png P_M_george_Wbush.png",0.359724757552318,"27","Female","right",0,1,FALSE
2294,"E_F_sandra_bullock.png","E_M_michael_caine.png","TRUE","pictures/stimuli/E","pictures/stimuli/E","F","M","6","595fa59caa841c00018d7225","05/06/2022, 10:54:19","E_F_sandra_bullock.png E_M_michael_caine.png",0.359724757552318,"27","Female","right",1,0,FALSE
2006,"E_F_sandra_bullock.png","P_M_bill_clinton.png","FALSE","pictures/stimuli/E","pictures/stimuli/P","F","M","6","595fa59caa841c00018d7225","05/06/2022, 10:54:19","E_F_sandra_bullock.png P_M_bill_clinton.png",0.359724757552318,"27","Female","right",1,0,FALSE
2183,"E_F_Judi_Dench.png","P_M_david_cameron.png","FALSE","pictures/stimuli/E","pictures/stimuli/P","F","M","6","595fa59caa841c00018d7225","05/06/2022, 10:54:19","E_F_Judi_Dench.png P_M_david_cameron.png",0.359724757552318,"27","Female","right",1,0,FALSE
2023,"E_M_Hugh_Grant.png","P_F_hillary_clinton.png","FALSE","pictures/stimuli/E","pictures/stimuli/P","M","F","6","595fa59caa841c00018d7225","05/06/2022, 10:54:19","E_M_Hugh_Grant.png P_F_hillary_clinton.png",0.359724757552318,"27","Female","right",1,0,FALSE
4062,"E_F_angelina_jolie.png","P_M_Tony_Blair.png","FALSE","pictures/stimuli/E","pictures/stimuli/P","F","M","6","595fa59caa841c00018d7225","05/06/2022, 10:54:19","E_F_angelina_jolie.png P_M_Tony_Blair.png",0.359724757552318,"27","Female","right",0,0,FALSE
9590,"E_F_Kate_Winslet.png","E_F_keira_knightley.png","TRUE","pictures/stimuli/E","pictures/stimuli/E","F","F","4","595fa59caa841c00018d7225","05/06/2022, 10:54:19","E_F_Kate_Winslet.png E_F_keira_knightley.png",-2.5486881758494,"27","Female","right",0,1,FALSE
6366,"E_F_angelina_jolie.png","E_F_sandra_bullock.png","TRUE","pictures/stimuli/E","pictures/stimuli/E","F","F","5","595fa59caa841c00018d7225","05/06/2022, 10:54:19","E_F_angelina_jolie.png E_F_sandra_bullock.png",-1.09448170914854,"27","Female","right",0,1,FALSE
2926,"P_M_david_cameron.png","P_M_donald_trump.png","TRUE","pictures/stimuli/P","pictures/stimuli/P","M","M","6","595fa59caa841c00018d7225","05/06/2022, 10:54:19","P_M_david_cameron.png P_M_donald_trump.png",0.359724757552318,"27","Female","right",0,0,FALSE
3159,"E_F_Kate_Winslet.png","E_M_Hugh_Grant.png","TRUE","pictures/stimuli/E","pictures/stimuli/E","F","M","6","595fa59caa841c00018d7225","05/06/2022, 10:54:19","E_F_Kate_Winslet.png E_M_Hugh_Grant.png",0.359724757552318,"27","Female","right",0,1,FALSE
3702,"E_F_jennifer_aniston.png","E_F_keira_knightley.png","TRUE","pictures/stimuli/E","pictures/stimuli/E","F","F","6","595fa59caa841c00018d7225","05/06/2022, 10:54:19","E_F_jennifer_aniston.png E_F_keira_knightley.png",0.359724757552318,"27","Female","right",0,1,FALSE
2366,"E_M_robert_de_niro.png","P_F_nicola_sturgeon.png","FALSE","pictures/stimuli/E","pictures/stimuli/P","M","F","6","595fa59caa841c00018d7225","05/06/2022, 10:54:19","E_M_robert_de_niro.png P_F_nicola_sturgeon.png",0.359724757552318,"27","Female","right",1,1,FALSE
2127,"E_F_sandra_bullock.png","P_M_boris_johnson.png","FALSE","pictures/stimuli/E","pictures/stimuli/P","F","M","6","595fa59caa841c00018d7225","05/06/2022, 10:54:19","E_F_sandra_bullock.png P_M_boris_johnson.png",0.359724757552318,"27","Female","right",1,0,FALSE
2375,"E_M_Hugh_Grant.png","P_F_nicola_sturgeon.png","FALSE","pictures/stimuli/E","pictures/stimuli/P","M","F","6","595fa59caa841c00018d7225","05/06/2022, 10:54:19","E_M_Hugh_Grant.png P_F_nicola_sturgeon.png",0.359724757552318,"27","Female","right",1,1,FALSE
2271,"E_F_Judi_Dench.png","E_M_nicolas_cage.png","TRUE","pictures/stimuli/E","pictures/stimuli/E","F","M","6","595fa59caa841c00018d7225","05/06/2022, 10:54:19","E_F_Judi_Dench.png E_M_nicolas_cage.png",0.359724757552318,"27","Female","right",1,0,FALSE
3327,"E_F_Kate_Winslet.png","P_M_Tony_Blair.png","FALSE","pictures/stimuli/E","pictures/stimuli/P","F","M","6","595fa59caa841c00018d7225","05/06/2022, 10:54:19","E_F_Kate_Winslet.png P_M_Tony_Blair.png",0.359724757552318,"27","Female","right",0,0,FALSE
3063,"E_F_Kate_Winslet.png","E_M_robert_de_niro.png","TRUE","pictures/stimuli/E","pictures/stimuli/E","F","M","6","595fa59caa841c00018d7225","05/06/2022, 10:54:19","E_F_Kate_Winslet.png E_M_robert_de_niro.png",0.359724757552318,"27","Female","right",0,1,FALSE
3885,"E_F_angelina_jolie.png","E_M_michael_caine.png","TRUE","pictures/stimuli/E","pictures/stimuli/E","F","M","6","595fa59caa841c00018d7225","05/06/2022, 10:54:19","E_F_angelina_jolie.png E_M_michael_caine.png",0.359724757552318,"27","Female","right",0,0,FALSE
5775,"E_F_jennifer_aniston.png","E_F_sandra_bullock.png","TRUE","pictures/stimuli/E","pictures/stimuli/E","F","F","5","595fa59caa841c00018d7225","05/06/2022, 10:54:19","E_F_jennifer_aniston.png E_F_sandra_bullock.png",-1.09448170914854,"27","Female","right",0,1,FALSE
3959,"E_F_angelina_jolie.png","E_M_Hugh_Grant.png","TRUE","pictures/stimuli/E","pictures/stimuli/E","F","M","6","595fa59caa841c00018d7225","05/06/2022, 10:54:19","E_F_angelina_jolie.png E_M_Hugh_Grant.png",0.359724757552318,"27","Female","right",0,1,FALSE
4582,"E_M_nicolas_cage.png","P_M_boris_johnson.png","FALSE","pictures/stimuli/E","pictures/stimuli/P","M","M","5","59712abaafd8a4000160ff35","05/06/2022, 10:51:38","E_M_nicolas_cage.png P_M_boris_johnson.png",0.160520876555669,"33","Female","left",0,0,FALSE
5680,"E_F_sandra_bullock.png","E_M_Hugh_Grant.png","TRUE","pictures/stimuli/E","pictures/stimuli/E","F","M","4","59712abaafd8a4000160ff35","05/06/2022, 10:51:38","E_F_sandra_bullock.png E_M_Hugh_Grant.png",-0.763690230886061,"33","Female","left",1,0,FALSE
3318,"E_F_sandra_bullock.png","P_M_david_cameron.png","FALSE","pictures/stimuli/E","pictures/stimuli/P","F","M","6","59712abaafd8a4000160ff35","05/06/2022, 10:51:38","E_F_sandra_bullock.png P_M_david_cameron.png",1.0847319839974,"33","Female","left",1,0,FALSE
7066,"E_F_Judi_Dench.png","P_M_david_cameron.png","FALSE","pictures/stimuli/E","pictures/stimuli/P","F","M","3","59712abaafd8a4000160ff35","05/06/2022, 10:51:38","E_F_Judi_Dench.png P_M_david_cameron.png",-1.68790133832779,"33","Female","left",1,0,FALSE
4534,"E_F_Judi_Dench.png","E_M_robert_de_niro.png","TRUE","pictures/stimuli/E","pictures/stimuli/E","F","M","4","59712abaafd8a4000160ff35","05/06/2022, 10:51:38","E_F_Judi_Dench.png E_M_robert_de_niro.png",-0.763690230886061,"33","Female","left",1,0,FALSE
6295,"P_F_hillary_clinton.png","P_M_Tony_Blair.png","TRUE","pictures/stimuli/P","pictures/stimuli/P","F","M","5","59712abaafd8a4000160ff35","05/06/2022, 10:51:38","P_F_hillary_clinton.png P_M_Tony_Blair.png",0.160520876555669,"33","Female","left",1,0,FALSE
6228,"E_M_tom_hankes.png","P_F_nicola_sturgeon.png","FALSE","pictures/stimuli/E","pictures/stimuli/P","M","F","5","59712abaafd8a4000160ff35","05/06/2022, 10:51:38","E_M_tom_hankes.png P_F_nicola_sturgeon.png",0.160520876555669,"33","Female","left",0,0,FALSE
3211,"E_F_keira_knightley.png","P_M_bill_clinton.png","FALSE","pictures/stimuli/E","pictures/stimuli/P","F","M","5","59712abaafd8a4000160ff35","05/06/2022, 10:51:38","E_F_keira_knightley.png P_M_bill_clinton.png",0.160520876555669,"33","Female","left",0,0,FALSE
2957,"E_F_jennifer_aniston.png","E_M_robert_de_niro.png","TRUE","pictures/stimuli/E","pictures/stimuli/E","F","M","6","59712abaafd8a4000160ff35","05/06/2022, 10:51:38","E_F_jennifer_aniston.png E_M_robert_de_niro.png",1.0847319839974,"33","Female","left",0,0,FALSE
5801,"E_F_Judi_Dench.png","E_F_Kate_Winslet.png","TRUE","pictures/stimuli/E","pictures/stimuli/E","F","F","3","59712abaafd8a4000160ff35","05/06/2022, 10:51:38","E_F_Judi_Dench.png E_F_Kate_Winslet.png",-1.68790133832779,"33","Female","left",1,1,FALSE
8164,"E_F_angelina_jolie.png","E_M_tom_hankes.png","TRUE","pictures/stimuli/E","pictures/stimuli/E","F","M","4","59712abaafd8a4000160ff35","05/06/2022, 10:51:38","E_F_angelina_jolie.png E_M_tom_hankes.png",-0.763690230886061,"33","Female","left",0,0,FALSE
6250,"E_F_Judi_Dench.png","E_F_sandra_bullock.png","TRUE","pictures/stimuli/E","pictures/stimuli/E","F","F","5","59712abaafd8a4000160ff35","05/06/2022, 10:51:38","E_F_Judi_Dench.png E_F_sandra_bullock.png",0.160520876555669,"33","Female","left",1,1,FALSE
5158,"E_F_keira_knightley.png","E_M_Hugh_Grant.png","TRUE","pictures/stimuli/E","pictures/stimuli/E","F","M","6","59712abaafd8a4000160ff35","05/06/2022, 10:51:38","E_F_keira_knightley.png E_M_Hugh_Grant.png",1.0847319839974,"33","Female","left",0,0,FALSE
6305,"E_M_Hugh_Grant.png","P_F_hillary_clinton.png","FALSE","pictures/stimuli/E","pictures/stimuli/P","M","F","6","59712abaafd8a4000160ff35","05/06/2022, 10:51:38","E_M_Hugh_Grant.png P_F_hillary_clinton.png",1.0847319839974,"33","Female","left",0,1,FALSE
5197,"P_F_tehresy_may.png","P_M_bill_clinton.png","TRUE","pictures/stimuli/P","pictures/stimuli/P","F","M","5","59712abaafd8a4000160ff35","05/06/2022, 10:51:38","P_F_tehresy_may.png P_M_bill_clinton.png",0.160520876555669,"33","Female","left",0,0,FALSE
7720,"P_M_boris_johnson.png","P_M_george_Wbush.png","TRUE","pictures/stimuli/P","pictures/stimuli/P","M","M","6","59712abaafd8a4000160ff35","05/06/2022, 10:51:38","P_M_boris_johnson.png P_M_george_Wbush.png",1.0847319839974,"33","Female","left",0,1,FALSE
3751,"P_M_boris_johnson.png","P_M_Tony_Blair.png","TRUE","pictures/stimuli/P","pictures/stimuli/P","M","M","5","59712abaafd8a4000160ff35","05/06/2022, 10:51:38","P_M_boris_johnson.png P_M_Tony_Blair.png",0.160520876555669,"33","Female","left",0,0,FALSE
3584,"E_F_Kate_Winslet.png","P_M_bill_clinton.png","FALSE","pictures/stimuli/E","pictures/stimuli/P","F","M","5","59712abaafd8a4000160ff35","05/06/2022, 10:51:38","E_F_Kate_Winslet.png P_M_bill_clinton.png",0.160520876555669,"33","Female","left",1,0,FALSE
3347,"E_F_angelina_jolie.png","P_M_david_cameron.png","FALSE","pictures/stimuli/E","pictures/stimuli/P","F","M","6","59712abaafd8a4000160ff35","05/06/2022, 10:51:38","E_F_angelina_jolie.png P_M_david_cameron.png",1.0847319839974,"33","Female","left",0,0,FALSE
5765,"E_M_nicolas_cage.png","P_M_Tony_Blair.png","FALSE","pictures/stimuli/E","pictures/stimuli/P","M","M","4","59712abaafd8a4000160ff35","05/06/2022, 10:51:38","E_M_nicolas_cage.png P_M_Tony_Blair.png",-0.763690230886061,"33","Female","left",0,0,FALSE
2776,"E_M_nicolas_cage.png","E_M_tom_hankes.png","TRUE","pictures/stimuli/E","pictures/stimuli/E","M","M","5","59712abaafd8a4000160ff35","05/06/2022, 10:51:38","E_M_nicolas_cage.png E_M_tom_hankes.png",0.160520876555669,"33","Female","left",0,0,FALSE
4651,"E_F_jennifer_aniston.png","P_F_hillary_clinton.png","FALSE","pictures/stimuli/E","pictures/stimuli/P","F","F","5","59712abaafd8a4000160ff35","05/06/2022, 10:51:38","E_F_jennifer_aniston.png P_F_hillary_clinton.png",0.160520876555669,"33","Female","left",0,1,FALSE
2498,"P_M_david_cameron.png","P_M_donald_trump.png","TRUE","pictures/stimuli/P","pictures/stimuli/P","M","M","5","59712abaafd8a4000160ff35","05/06/2022, 10:51:38","P_M_david_cameron.png P_M_donald_trump.png",0.160520876555669,"33","Female","left",0,0,FALSE
3458,"P_F_tehresy_may.png","P_M_boris_johnson.png","TRUE","pictures/stimuli/P","pictures/stimuli/P","F","M","4","59712abaafd8a4000160ff35","05/06/2022, 10:51:38","P_F_tehresy_may.png P_M_boris_johnson.png",-0.763690230886061,"33","Female","left",0,0,FALSE
3401,"E_M_robert_de_niro.png","P_F_nicola_sturgeon.png","FALSE","pictures/stimuli/E","pictures/stimuli/P","M","F","4","59712abaafd8a4000160ff35","05/06/2022, 10:51:38","E_M_robert_de_niro.png P_F_nicola_sturgeon.png",-0.763690230886061,"33","Female","left",0,0,FALSE
3274,"E_F_keira_knightley.png","P_M_donald_trump.png","FALSE","pictures/stimuli/E","pictures/stimuli/P","F","M","6","59712abaafd8a4000160ff35","05/06/2022, 10:51:38","E_F_keira_knightley.png P_M_donald_trump.png",1.0847319839974,"33","Female","left",0,0,FALSE
3545,"E_F_angelina_jolie.png","P_F_tehresy_may.png","FALSE","pictures/stimuli/E","pictures/stimuli/P","F","F","5","59712abaafd8a4000160ff35","05/06/2022, 10:51:38","E_F_angelina_jolie.png P_F_tehresy_may.png",0.160520876555669,"33","Female","left",0,0,FALSE
5270,"E_F_angelina_jolie.png","E_M_nicolas_cage.png","TRUE","pictures/stimuli/E","pictures/stimuli/E","F","M","6","59712abaafd8a4000160ff35","05/06/2022, 10:51:38","E_F_angelina_jolie.png E_M_nicolas_cage.png",1.0847319839974,"33","Female","left",0,0,FALSE
4303,"E_M_michael_caine.png","E_M_nicolas_cage.png","TRUE","pictures/stimuli/E","pictures/stimuli/E","M","M","6","59712abaafd8a4000160ff35","05/06/2022, 10:51:38","E_M_michael_caine.png E_M_nicolas_cage.png",1.0847319839974,"33","Female","left",0,0,FALSE
3422,"E_F_sandra_bullock.png","E_M_tom_hankes.png","TRUE","pictures/stimuli/E","pictures/stimuli/E","F","M","4","59712abaafd8a4000160ff35","05/06/2022, 10:51:38","E_F_sandra_bullock.png E_M_tom_hankes.png",-0.763690230886061,"33","Female","left",1,0,FALSE
3661,"E_F_Kate_Winslet.png","E_M_tom_hankes.png","TRUE","pictures/stimuli/E","pictures/stimuli/E","F","M","4","59712abaafd8a4000160ff35","05/06/2022, 10:51:38","E_F_Kate_Winslet.png E_M_tom_hankes.png",-0.763690230886061,"33","Female","left",1,0,FALSE
7441,"E_F_jennifer_aniston.png","P_F_nicola_sturgeon.png","FALSE","pictures/stimuli/E","pictures/stimuli/P","F","F","4","59712abaafd8a4000160ff35","05/06/2022, 10:51:38","E_F_jennifer_aniston.png P_F_nicola_sturgeon.png",-0.763690230886061,"33","Female","left",0,0,FALSE
2836,"E_F_jennifer_aniston.png","E_F_Kate_Winslet.png","TRUE","pictures/stimuli/E","pictures/stimuli/E","F","F","3","59712abaafd8a4000160ff35","05/06/2022, 10:51:38","E_F_jennifer_aniston.png E_F_Kate_Winslet.png",-1.68790133832779,"33","Female","left",0,1,FALSE
2764,"E_M_Hugh_Grant.png","E_M_nicolas_cage.png","TRUE","pictures/stimuli/E","pictures/stimuli/E","M","M","4","59712abaafd8a4000160ff35","05/06/2022, 10:51:38","E_M_Hugh_Grant.png E_M_nicolas_cage.png",-0.763690230886061,"33","Female","left",0,0,FALSE
4081,"E_F_angelina_jolie.png","E_M_Hugh_Grant.png","TRUE","pictures/stimuli/E","pictures/stimuli/E","F","M","4","59712abaafd8a4000160ff35","05/06/2022, 10:51:38","E_F_angelina_jolie.png E_M_Hugh_Grant.png",-0.763690230886061,"33","Female","left",0,0,FALSE
9002,"E_F_jennifer_aniston.png","E_M_Hugh_Grant.png","TRUE","pictures/stimuli/E","pictures/stimuli/E","F","M","5","59712abaafd8a4000160ff35","05/06/2022, 10:51:38","E_F_jennifer_aniston.png E_M_Hugh_Grant.png",0.160520876555669,"33","Female","left",0,0,FALSE
5267,"E_M_tom_hankes.png","P_M_david_cameron.png","FALSE","pictures/stimuli/E","pictures/stimuli/P","M","M","3","59712abaafd8a4000160ff35","05/06/2022, 10:51:38","E_M_tom_hankes.png P_M_david_cameron.png",-1.68790133832779,"33","Female","left",0,0,FALSE
2775,"P_F_tehresy_may.png","P_M_Tony_Blair.png","TRUE","pictures/stimuli/P","pictures/stimuli/P","F","M","4","59712abaafd8a4000160ff35","05/06/2022, 10:51:38","P_F_tehresy_may.png P_M_Tony_Blair.png",-0.763690230886061,"33","Female","left",0,0,FALSE
2835,"E_F_sandra_bullock.png","P_M_george_Wbush.png","FALSE","pictures/stimuli/E","pictures/stimuli/P","F","M","5","59712abaafd8a4000160ff35","05/06/2022, 10:51:38","E_F_sandra_bullock.png P_M_george_Wbush.png",0.160520876555669,"33","Female","left",1,1,FALSE
4183,"E_F_Judi_Dench.png","P_M_bill_clinton.png","FALSE","pictures/stimuli/E","pictures/stimuli/P","F","M","4","59712abaafd8a4000160ff35","05/06/2022, 10:51:38","E_F_Judi_Dench.png P_M_bill_clinton.png",-0.763690230886061,"33","Female","left",1,0,FALSE
4966,"E_M_robert_de_niro.png","P_M_george_Wbush.png","FALSE","pictures/stimuli/E","pictures/stimuli/P","M","M","2","59712abaafd8a4000160ff35","05/06/2022, 10:51:38","E_M_robert_de_niro.png P_M_george_Wbush.png",-2.61211244576952,"33","Female","left",0,1,FALSE
2535,"P_F_nicola_sturgeon.png","P_F_tehresy_may.png","TRUE","pictures/stimuli/P","pictures/stimuli/P","F","F","2","59712abaafd8a4000160ff35","05/06/2022, 10:51:38","P_F_nicola_sturgeon.png P_F_tehresy_may.png",-2.61211244576952,"33","Female","left",0,0,FALSE
3079,"E_F_Kate_Winslet.png","P_M_george_Wbush.png","FALSE","pictures/stimuli/E","pictures/stimuli/P","F","M","5","59712abaafd8a4000160ff35","05/06/2022, 10:51:38","E_F_Kate_Winslet.png P_M_george_Wbush.png",0.160520876555669,"33","Female","left",1,1,FALSE
2361,"E_M_michael_caine.png","E_M_tom_hankes.png","TRUE","pictures/stimuli/E","pictures/stimuli/E","M","M","6","59712abaafd8a4000160ff35","05/06/2022, 10:51:38","E_M_michael_caine.png E_M_tom_hankes.png",1.0847319839974,"33","Female","left",0,0,FALSE
2956,"E_F_Judi_Dench.png","P_M_boris_johnson.png","FALSE","pictures/stimuli/E","pictures/stimuli/P","F","M","3","59712abaafd8a4000160ff35","05/06/2022, 10:51:38","E_F_Judi_Dench.png P_M_boris_johnson.png",-1.68790133832779,"33","Female","left",1,0,FALSE
4343,"E_M_michael_caine.png","P_M_boris_johnson.png","FALSE","pictures/stimuli/E","pictures/stimuli/P","M","M","5","59712abaafd8a4000160ff35","05/06/2022, 10:51:38","E_M_michael_caine.png P_M_boris_johnson.png",0.160520876555669,"33","Female","left",0,0,FALSE
2348,"E_M_nicolas_cage.png","P_M_donald_trump.png","FALSE","pictures/stimuli/E","pictures/stimuli/P","M","M","4","59712abaafd8a4000160ff35","05/06/2022, 10:51:38","E_M_nicolas_cage.png P_M_donald_trump.png",-0.763690230886061,"33","Female","left",0,0,FALSE
2560,"E_M_tom_hankes.png","P_M_george_Wbush.png","FALSE","pictures/stimuli/E","pictures/stimuli/P","M","M","4","59712abaafd8a4000160ff35","05/06/2022, 10:51:38","E_M_tom_hankes.png P_M_george_Wbush.png",-0.763690230886061,"33","Female","left",0,1,FALSE
4411,"E_F_Judi_Dench.png","P_M_donald_trump.png","FALSE","pictures/stimuli/E","pictures/stimuli/P","F","M","4","59712abaafd8a4000160ff35","05/06/2022, 10:51:38","E_F_Judi_Dench.png P_M_donald_trump.png",-0.763690230886061,"33","Female","left",1,0,FALSE
3955,"E_F_angelina_jolie.png","E_F_sandra_bullock.png","TRUE","pictures/stimuli/E","pictures/stimuli/E","F","F","3","59712abaafd8a4000160ff35","05/06/2022, 10:51:38","E_F_angelina_jolie.png E_F_sandra_bullock.png",-1.68790133832779,"33","Female","left",0,1,FALSE
2587,"E_F_angelina_jolie.png","P_M_bill_clinton.png","FALSE","pictures/stimuli/E","pictures/stimuli/P","F","M","5","59712abaafd8a4000160ff35","05/06/2022, 10:51:38","E_F_angelina_jolie.png P_M_bill_clinton.png",0.160520876555669,"33","Female","left",0,0,FALSE
2768,"P_F_nicola_sturgeon.png","P_M_boris_johnson.png","TRUE","pictures/stimuli/P","pictures/stimuli/P","F","M","4","59712abaafd8a4000160ff35","05/06/2022, 10:51:38","P_F_nicola_sturgeon.png P_M_boris_johnson.png",-0.763690230886061,"33","Female","left",0,0,FALSE
3951,"E_F_sandra_bullock.png","P_F_tehresy_may.png","FALSE","pictures/stimuli/E","pictures/stimuli/P","F","F","4","59712abaafd8a4000160ff35","05/06/2022, 10:51:38","E_F_sandra_bullock.png P_F_tehresy_may.png",-0.763690230886061,"33","Female","left",1,0,FALSE
6886,"E_F_sandra_bullock.png","P_M_Tony_Blair.png","FALSE","pictures/stimuli/E","pictures/stimuli/P","F","M","4","59712abaafd8a4000160ff35","05/06/2022, 10:51:38","E_F_sandra_bullock.png P_M_Tony_Blair.png",-0.763690230886061,"33","Female","left",1,0,FALSE
5587,"E_F_Judi_Dench.png","E_M_nicolas_cage.png","TRUE","pictures/stimuli/E","pictures/stimuli/E","F","M","6","59712abaafd8a4000160ff35","05/06/2022, 10:51:38","E_F_Judi_Dench.png E_M_nicolas_cage.png",1.0847319839974,"33","Female","left",1,0,FALSE
6536,"E_M_Hugh_Grant.png","P_M_boris_johnson.png","FALSE","pictures/stimuli/E","pictures/stimuli/P","M","M","4","59712abaafd8a4000160ff35","05/06/2022, 10:51:38","E_M_Hugh_Grant.png P_M_boris_johnson.png",-0.763690230886061,"33","Female","left",0,0,FALSE
3008,"E_F_Judi_Dench.png","P_F_hillary_clinton.png","FALSE","pictures/stimuli/E","pictures/stimuli/P","F","F","5","59712abaafd8a4000160ff35","05/06/2022, 10:51:38","E_F_Judi_Dench.png P_F_hillary_clinton.png",0.160520876555669,"33","Female","left",1,1,FALSE
5677,"E_F_keira_knightley.png","P_F_hillary_clinton.png","FALSE","pictures/stimuli/E","pictures/stimuli/P","F","F","5","59712abaafd8a4000160ff35","05/06/2022, 10:51:38","E_F_keira_knightley.png P_F_hillary_clinton.png",0.160520876555669,"33","Female","left",0,1,FALSE
2397,"E_M_Hugh_Grant.png","P_M_george_Wbush.png","FALSE","pictures/stimuli/E","pictures/stimuli/P","M","M","5","59712abaafd8a4000160ff35","05/06/2022, 10:51:38","E_M_Hugh_Grant.png P_M_george_Wbush.png",0.160520876555669,"33","Female","left",0,1,FALSE
6034,"E_M_tom_hankes.png","P_M_boris_johnson.png","FALSE","pictures/stimuli/E","pictures/stimuli/P","M","M","3","59712abaafd8a4000160ff35","05/06/2022, 10:51:38","E_M_tom_hankes.png P_M_boris_johnson.png",-1.68790133832779,"33","Female","left",0,0,FALSE
6601,"E_F_keira_knightley.png","P_M_david_cameron.png","FALSE","pictures/stimuli/E","pictures/stimuli/P","F","M","5","59712abaafd8a4000160ff35","05/06/2022, 10:51:38","E_F_keira_knightley.png P_M_david_cameron.png",0.160520876555669,"33","Female","left",0,0,FALSE
2327,"E_M_tom_hankes.png","P_F_tehresy_may.png","FALSE","pictures/stimuli/E","pictures/stimuli/P","M","F","6","59712abaafd8a4000160ff35","05/06/2022, 10:51:38","E_M_tom_hankes.png P_F_tehresy_may.png",1.0847319839974,"33","Female","left",0,0,FALSE
2210,"P_F_nicola_sturgeon.png","P_M_Tony_Blair.png","TRUE","pictures/stimuli/P","pictures/stimuli/P","F","M","5","59712abaafd8a4000160ff35","05/06/2022, 10:51:38","P_F_nicola_sturgeon.png P_M_Tony_Blair.png",0.160520876555669,"33","Female","left",0,0,FALSE
3833,"E_F_keira_knightley.png","P_M_george_Wbush.png","FALSE","pictures/stimuli/E","pictures/stimuli/P","F","M","6","59712abaafd8a4000160ff35","05/06/2022, 10:51:38","E_F_keira_knightley.png P_M_george_Wbush.png",1.0847319839974,"33","Female","left",0,1,FALSE
3375,"E_F_jennifer_aniston.png","P_M_boris_johnson.png","FALSE","pictures/stimuli/E","pictures/stimuli/P","F","M","3","59712abaafd8a4000160ff35","05/06/2022, 10:51:38","E_F_jennifer_aniston.png P_M_boris_johnson.png",-1.68790133832779,"33","Female","left",0,0,FALSE
2700,"E_F_keira_knightley.png","P_F_nicola_sturgeon.png","FALSE","pictures/stimuli/E","pictures/stimuli/P","F","F","5","59712abaafd8a4000160ff35","05/06/2022, 10:51:38","E_F_keira_knightley.png P_F_nicola_sturgeon.png",0.160520876555669,"33","Female","left",0,0,FALSE
4906,"E_F_Judi_Dench.png","P_F_tehresy_may.png","FALSE","pictures/stimuli/E","pictures/stimuli/P","F","F","4","59712abaafd8a4000160ff35","05/06/2022, 10:51:38","E_F_Judi_Dench.png P_F_tehresy_may.png",-0.763690230886061,"33","Female","left",1,0,FALSE
5889,"E_F_Judi_Dench.png","E_M_tom_hankes.png","TRUE","pictures/stimuli/E","pictures/stimuli/E","F","M","5","59712abaafd8a4000160ff35","05/06/2022, 10:51:38","E_F_Judi_Dench.png E_M_tom_hankes.png",0.160520876555669,"33","Female","left",1,0,FALSE
2575,"E_F_Judi_Dench.png","P_M_Tony_Blair.png","FALSE","pictures/stimuli/E","pictures/stimuli/P","F","M","6","59712abaafd8a4000160ff35","05/06/2022, 10:51:38","E_F_Judi_Dench.png P_M_Tony_Blair.png",1.0847319839974,"33","Female","left",1,0,FALSE
2653,"P_F_tehresy_may.png","P_M_george_Wbush.png","TRUE","pictures/stimuli/P","pictures/stimuli/P","F","M","6","59712abaafd8a4000160ff35","05/06/2022, 10:51:38","P_F_tehresy_may.png P_M_george_Wbush.png",1.0847319839974,"33","Female","left",0,1,FALSE
1932,"E_F_Kate_Winslet.png","E_M_michael_caine.png","TRUE","pictures/stimuli/E","pictures/stimuli/E","F","M","6","59712abaafd8a4000160ff35","05/06/2022, 10:51:38","E_F_Kate_Winslet.png E_M_michael_caine.png",1.0847319839974,"33","Female","left",1,0,FALSE
2742,"E_F_angelina_jolie.png","P_M_Tony_Blair.png","FALSE","pictures/stimuli/E","pictures/stimuli/P","F","M","5","59712abaafd8a4000160ff35","05/06/2022, 10:51:38","E_F_angelina_jolie.png P_M_Tony_Blair.png",0.160520876555669,"33","Female","left",0,0,FALSE
5815,"E_F_jennifer_aniston.png","E_M_tom_hankes.png","TRUE","pictures/stimuli/E","pictures/stimuli/E","F","M","3","59712abaafd8a4000160ff35","05/06/2022, 10:51:38","E_F_jennifer_aniston.png E_M_tom_hankes.png",-1.68790133832779,"33","Female","left",0,0,FALSE
2268,"E_F_Kate_Winslet.png","P_F_hillary_clinton.png","FALSE","pictures/stimuli/E","pictures/stimuli/P","F","F","3","59712abaafd8a4000160ff35","05/06/2022, 10:51:38","E_F_Kate_Winslet.png P_F_hillary_clinton.png",-1.68790133832779,"33","Female","left",1,1,FALSE
2303,"E_F_keira_knightley.png","P_M_boris_johnson.png","FALSE","pictures/stimuli/E","pictures/stimuli/P","F","M","6","59712abaafd8a4000160ff35","05/06/2022, 10:51:38","E_F_keira_knightley.png P_M_boris_johnson.png",1.0847319839974,"33","Female","left",0,0,FALSE
4107,"P_F_hillary_clinton.png","P_M_boris_johnson.png","TRUE","pictures/stimuli/P","pictures/stimuli/P","F","M","5","59712abaafd8a4000160ff35","05/06/2022, 10:51:38","P_F_hillary_clinton.png P_M_boris_johnson.png",0.160520876555669,"33","Female","left",1,0,FALSE
2041,"E_M_nicolas_cage.png","P_F_nicola_sturgeon.png","FALSE","pictures/stimuli/E","pictures/stimuli/P","M","F","6","59712abaafd8a4000160ff35","05/06/2022, 10:51:38","E_M_nicolas_cage.png P_F_nicola_sturgeon.png",1.0847319839974,"33","Female","left",0,0,FALSE
4107,"E_F_jennifer_aniston.png","E_M_nicolas_cage.png","TRUE","pictures/stimuli/E","pictures/stimuli/E","F","M","4","59712abaafd8a4000160ff35","05/06/2022, 10:51:38","E_F_jennifer_aniston.png E_M_nicolas_cage.png",-0.763690230886061,"33","Female","left",0,0,FALSE
1905,"E_F_sandra_bullock.png","E_M_michael_caine.png","TRUE","pictures/stimuli/E","pictures/stimuli/E","F","M","6","59712abaafd8a4000160ff35","05/06/2022, 10:51:38","E_F_sandra_bullock.png E_M_michael_caine.png",1.0847319839974,"33","Female","left",1,0,FALSE
2921,"E_F_jennifer_aniston.png","E_F_sandra_bullock.png","TRUE","pictures/stimuli/E","pictures/stimuli/E","F","F","4","59712abaafd8a4000160ff35","05/06/2022, 10:51:38","E_F_jennifer_aniston.png E_F_sandra_bullock.png",-0.763690230886061,"33","Female","left",0,1,FALSE
2436,"P_M_bill_clinton.png","P_M_Tony_Blair.png","TRUE","pictures/stimuli/P","pictures/stimuli/P","M","M","4","59712abaafd8a4000160ff35","05/06/2022, 10:51:38","P_M_bill_clinton.png P_M_Tony_Blair.png",-0.763690230886061,"33","Female","left",0,0,FALSE
6123,"E_F_jennifer_aniston.png","P_M_bill_clinton.png","FALSE","pictures/stimuli/E","pictures/stimuli/P","F","M","5","59712abaafd8a4000160ff35","05/06/2022, 10:51:38","E_F_jennifer_aniston.png P_M_bill_clinton.png",0.160520876555669,"33","Female","left",0,0,FALSE
4331,"P_M_boris_johnson.png","P_M_donald_trump.png","TRUE","pictures/stimuli/P","pictures/stimuli/P","M","M","5","59712abaafd8a4000160ff35","05/06/2022, 10:51:38","P_M_boris_johnson.png P_M_donald_trump.png",0.160520876555669,"33","Female","left",0,0,FALSE
2432,"E_M_robert_de_niro.png","P_M_boris_johnson.png","FALSE","pictures/stimuli/E","pictures/stimuli/P","M","M","4","59712abaafd8a4000160ff35","05/06/2022, 10:51:38","E_M_robert_de_niro.png P_M_boris_johnson.png",-0.763690230886061,"33","Female","left",0,0,FALSE
7295,"E_F_angelina_jolie.png","P_F_nicola_sturgeon.png","FALSE","pictures/stimuli/E","pictures/stimuli/P","F","F","6","59712abaafd8a4000160ff35","05/06/2022, 10:51:38","E_F_angelina_jolie.png P_F_nicola_sturgeon.png",1.0847319839974,"33","Female","left",0,0,FALSE
4808,"E_M_michael_caine.png","P_F_tehresy_may.png","FALSE","pictures/stimuli/E","pictures/stimuli/P","M","F","3","59712abaafd8a4000160ff35","05/06/2022, 10:51:38","E_M_michael_caine.png P_F_tehresy_may.png",-1.68790133832779,"33","Female","left",0,0,FALSE
4523,"E_F_angelina_jolie.png","E_F_Judi_Dench.png","TRUE","pictures/stimuli/E","pictures/stimuli/E","F","F","6","59712abaafd8a4000160ff35","05/06/2022, 10:51:38","E_F_angelina_jolie.png E_F_Judi_Dench.png",1.0847319839974,"33","Female","left",0,1,FALSE
2375,"E_F_angelina_jolie.png","E_M_robert_de_niro.png","TRUE","pictures/stimuli/E","pictures/stimuli/E","F","M","6","59712abaafd8a4000160ff35","05/06/2022, 10:51:38","E_F_angelina_jolie.png E_M_robert_de_niro.png",1.0847319839974,"33","Female","left",0,0,FALSE
4967,"P_F_hillary_clinton.png","P_M_donald_trump.png","TRUE","pictures/stimuli/P","pictures/stimuli/P","F","M","5","59712abaafd8a4000160ff35","05/06/2022, 10:51:38","P_F_hillary_clinton.png P_M_donald_trump.png",0.160520876555669,"33","Female","left",1,0,FALSE
5746,"P_M_donald_trump.png","P_M_Tony_Blair.png","TRUE","pictures/stimuli/P","pictures/stimuli/P","M","M","4","59712abaafd8a4000160ff35","05/06/2022, 10:51:38","P_M_donald_trump.png P_M_Tony_Blair.png",-0.763690230886061,"33","Female","left",0,0,FALSE
2539,"E_F_Kate_Winslet.png","P_F_nicola_sturgeon.png","FALSE","pictures/stimuli/E","pictures/stimuli/P","F","F","5","59712abaafd8a4000160ff35","05/06/2022, 10:51:38","E_F_Kate_Winslet.png P_F_nicola_sturgeon.png",0.160520876555669,"33","Female","left",1,0,FALSE
2389,"E_M_nicolas_cage.png","P_F_hillary_clinton.png","FALSE","pictures/stimuli/E","pictures/stimuli/P","M","F","6","59712abaafd8a4000160ff35","05/06/2022, 10:51:38","E_M_nicolas_cage.png P_F_hillary_clinton.png",1.0847319839974,"33","Female","left",0,1,FALSE
2079,"E_F_keira_knightley.png","E_M_nicolas_cage.png","TRUE","pictures/stimuli/E","pictures/stimuli/E","F","M","5","59712abaafd8a4000160ff35","05/06/2022, 10:51:38","E_F_keira_knightley.png E_M_nicolas_cage.png",0.160520876555669,"33","Female","left",0,0,FALSE
3378,"E_F_angelina_jolie.png","P_M_boris_johnson.png","FALSE","pictures/stimuli/E","pictures/stimuli/P","F","M","6","59712abaafd8a4000160ff35","05/06/2022, 10:51:38","E_F_angelina_jolie.png P_M_boris_johnson.png",1.0847319839974,"33","Female","left",0,0,FALSE
2780,"E_F_sandra_bullock.png","P_M_boris_johnson.png","FALSE","pictures/stimuli/E","pictures/stimuli/P","F","M","5","59712abaafd8a4000160ff35","05/06/2022, 10:51:38","E_F_sandra_bullock.png P_M_boris_johnson.png",0.160520876555669,"33","Female","left",1,0,FALSE
3209,"E_F_Kate_Winslet.png","P_M_donald_trump.png","FALSE","pictures/stimuli/E","pictures/stimuli/P","F","M","6","59712abaafd8a4000160ff35","05/06/2022, 10:51:38","E_F_Kate_Winslet.png P_M_donald_trump.png",1.0847319839974,"33","Female","left",1,0,FALSE
3235,"E_F_sandra_bullock.png","P_M_donald_trump.png","FALSE","pictures/stimuli/E","pictures/stimuli/P","F","M","6","59712abaafd8a4000160ff35","05/06/2022, 10:51:38","E_F_sandra_bullock.png P_M_donald_trump.png",1.0847319839974,"33","Female","left",1,0,FALSE
5206,"E_F_jennifer_aniston.png","P_F_tehresy_may.png","FALSE","pictures/stimuli/E","pictures/stimuli/P","F","F","6","59712abaafd8a4000160ff35","05/06/2022, 10:51:38","E_F_jennifer_aniston.png P_F_tehresy_may.png",1.0847319839974,"33","Female","left",0,0,FALSE
2209,"E_M_robert_de_niro.png","E_M_tom_hankes.png","TRUE","pictures/stimuli/E","pictures/stimuli/E","M","M","5","59712abaafd8a4000160ff35","05/06/2022, 10:51:38","E_M_robert_de_niro.png E_M_tom_hankes.png",0.160520876555669,"33","Female","left",0,0,FALSE
3762,"E_F_keira_knightley.png","P_M_Tony_Blair.png","FALSE","pictures/stimuli/E","pictures/stimuli/P","F","M","6","59712abaafd8a4000160ff35","05/06/2022, 10:51:38","E_F_keira_knightley.png P_M_Tony_Blair.png",1.0847319839974,"33","Female","left",0,0,FALSE
3461,"E_M_robert_de_niro.png","P_M_Tony_Blair.png","FALSE","pictures/stimuli/E","pictures/stimuli/P","M","M","4","59712abaafd8a4000160ff35","05/06/2022, 10:51:38","E_M_robert_de_niro.png P_M_Tony_Blair.png",-0.763690230886061,"33","Female","left",0,0,FALSE
3041,"E_M_nicolas_cage.png","P_M_david_cameron.png","FALSE","pictures/stimuli/E","pictures/stimuli/P","M","M","5","59712abaafd8a4000160ff35","05/06/2022, 10:51:38","E_M_nicolas_cage.png P_M_david_cameron.png",0.160520876555669,"33","Female","left",0,0,FALSE
3640,"E_F_Kate_Winslet.png","P_M_Tony_Blair.png","FALSE","pictures/stimuli/E","pictures/stimuli/P","F","M","6","59712abaafd8a4000160ff35","05/06/2022, 10:51:38","E_F_Kate_Winslet.png P_M_Tony_Blair.png",1.0847319839974,"33","Female","left",1,0,FALSE
3541,"E_F_Judi_Dench.png","P_M_george_Wbush.png","FALSE","pictures/stimuli/E","pictures/stimuli/P","F","M","5","59712abaafd8a4000160ff35","05/06/2022, 10:51:38","E_F_Judi_Dench.png P_M_george_Wbush.png",0.160520876555669,"33","Female","left",1,1,FALSE
2381,"E_M_michael_caine.png","E_M_robert_de_niro.png","TRUE","pictures/stimuli/E","pictures/stimuli/E","M","M","4","59712abaafd8a4000160ff35","05/06/2022, 10:51:38","E_M_michael_caine.png E_M_robert_de_niro.png",-0.763690230886061,"33","Female","left",0,0,FALSE
2450,"E_M_Hugh_Grant.png","P_M_donald_trump.png","FALSE","pictures/stimuli/E","pictures/stimuli/P","M","M","5","59712abaafd8a4000160ff35","05/06/2022, 10:51:38","E_M_Hugh_Grant.png P_M_donald_trump.png",0.160520876555669,"33","Female","left",0,0,FALSE
2045,"E_F_Judi_Dench.png","E_M_michael_caine.png","TRUE","pictures/stimuli/E","pictures/stimuli/E","F","M","6","59712abaafd8a4000160ff35","05/06/2022, 10:51:38","E_F_Judi_Dench.png E_M_michael_caine.png",1.0847319839974,"33","Female","left",1,0,FALSE
2523,"E_F_sandra_bullock.png","P_F_nicola_sturgeon.png","FALSE","pictures/stimuli/E","pictures/stimuli/P","F","F","6","59712abaafd8a4000160ff35","05/06/2022, 10:51:38","E_F_sandra_bullock.png P_F_nicola_sturgeon.png",1.0847319839974,"33","Female","left",1,0,FALSE
7245,"E_M_michael_caine.png","P_M_Tony_Blair.png","FALSE","pictures/stimuli/E","pictures/stimuli/P","M","M","5","59712abaafd8a4000160ff35","05/06/2022, 10:51:38","E_M_michael_caine.png P_M_Tony_Blair.png",0.160520876555669,"33","Female","left",0,0,FALSE
2178,"E_M_nicolas_cage.png","P_M_bill_clinton.png","FALSE","pictures/stimuli/E","pictures/stimuli/P","M","M","5","59712abaafd8a4000160ff35","05/06/2022, 10:51:38","E_M_nicolas_cage.png P_M_bill_clinton.png",0.160520876555669,"33","Female","left",0,0,FALSE
3848,"E_F_Kate_Winslet.png","P_M_david_cameron.png","FALSE","pictures/stimuli/E","pictures/stimuli/P","F","M","4","59712abaafd8a4000160ff35","05/06/2022, 10:51:38","E_F_Kate_Winslet.png P_M_david_cameron.png",-0.763690230886061,"33","Female","left",1,0,FALSE
6759,"E_F_sandra_bullock.png","P_F_hillary_clinton.png","FALSE","pictures/stimuli/E","pictures/stimuli/P","F","F","6","59712abaafd8a4000160ff35","05/06/2022, 10:51:38","E_F_sandra_bullock.png P_F_hillary_clinton.png",1.0847319839974,"33","Female","left",1,1,FALSE
2288,"E_F_angelina_jolie.png","E_F_jennifer_aniston.png","TRUE","pictures/stimuli/E","pictures/stimuli/E","F","F","5","59712abaafd8a4000160ff35","05/06/2022, 10:51:38","E_F_angelina_jolie.png E_F_jennifer_aniston.png",0.160520876555669,"33","Female","left",0,0,FALSE
3445,"E_M_michael_caine.png","P_M_george_Wbush.png","FALSE","pictures/stimuli/E","pictures/stimuli/P","M","M","4","59712abaafd8a4000160ff35","05/06/2022, 10:51:38","E_M_michael_caine.png P_M_george_Wbush.png",-0.763690230886061,"33","Female","left",0,1,FALSE
2910,"P_F_nicola_sturgeon.png","P_M_bill_clinton.png","TRUE","pictures/stimuli/P","pictures/stimuli/P","F","M","4","59712abaafd8a4000160ff35","05/06/2022, 10:51:38","P_F_nicola_sturgeon.png P_M_bill_clinton.png",-0.763690230886061,"33","Female","left",0,0,FALSE
1874,"E_F_Judi_Dench.png","E_F_keira_knightley.png","TRUE","pictures/stimuli/E","pictures/stimuli/E","F","F","5","59712abaafd8a4000160ff35","05/06/2022, 10:51:38","E_F_Judi_Dench.png E_F_keira_knightley.png",0.160520876555669,"33","Female","left",1,0,FALSE
2699,"P_F_hillary_clinton.png","P_M_bill_clinton.png","TRUE","pictures/stimuli/P","pictures/stimuli/P","F","M","5","59712abaafd8a4000160ff35","05/06/2022, 10:51:38","P_F_hillary_clinton.png P_M_bill_clinton.png",0.160520876555669,"33","Female","left",1,0,FALSE
6480,"E_M_Hugh_Grant.png","P_M_bill_clinton.png","FALSE","pictures/stimuli/E","pictures/stimuli/P","M","M","4","59712abaafd8a4000160ff35","05/06/2022, 10:51:38","E_M_Hugh_Grant.png P_M_bill_clinton.png",-0.763690230886061,"33","Female","left",0,0,FALSE
2959,"E_F_Kate_Winslet.png","P_F_tehresy_may.png","FALSE","pictures/stimuli/E","pictures/stimuli/P","F","F","4","59712abaafd8a4000160ff35","05/06/2022, 10:51:38","E_F_Kate_Winslet.png P_F_tehresy_may.png",-0.763690230886061,"33","Female","left",1,0,FALSE
2752,"P_F_nicola_sturgeon.png","P_M_donald_trump.png","TRUE","pictures/stimuli/P","pictures/stimuli/P","F","M","6","59712abaafd8a4000160ff35","05/06/2022, 10:51:38","P_F_nicola_sturgeon.png P_M_donald_trump.png",1.0847319839974,"33","Female","left",0,0,FALSE
1798,"E_F_jennifer_aniston.png","P_M_donald_trump.png","FALSE","pictures/stimuli/E","pictures/stimuli/P","F","M","5","59712abaafd8a4000160ff35","05/06/2022, 10:51:38","E_F_jennifer_aniston.png P_M_donald_trump.png",0.160520876555669,"33","Female","left",0,0,FALSE
2990,"E_F_angelina_jolie.png","E_F_Kate_Winslet.png","TRUE","pictures/stimuli/E","pictures/stimuli/E","F","F","3","59712abaafd8a4000160ff35","05/06/2022, 10:51:38","E_F_angelina_jolie.png E_F_Kate_Winslet.png",-1.68790133832779,"33","Female","left",0,1,FALSE
2249,"E_F_keira_knightley.png","E_M_robert_de_niro.png","TRUE","pictures/stimuli/E","pictures/stimuli/E","F","M","6","59712abaafd8a4000160ff35","05/06/2022, 10:51:38","E_F_keira_knightley.png E_M_robert_de_niro.png",1.0847319839974,"33","Female","left",0,0,FALSE
2281,"P_F_tehresy_may.png","P_M_david_cameron.png","TRUE","pictures/stimuli/P","pictures/stimuli/P","F","M","4","59712abaafd8a4000160ff35","05/06/2022, 10:51:38","P_F_tehresy_may.png P_M_david_cameron.png",-0.763690230886061,"33","Female","left",0,0,FALSE
1936,"E_M_tom_hankes.png","P_M_donald_trump.png","FALSE","pictures/stimuli/E","pictures/stimuli/P","M","M","5","59712abaafd8a4000160ff35","05/06/2022, 10:51:38","E_M_tom_hankes.png P_M_donald_trump.png",0.160520876555669,"33","Female","left",0,0,FALSE
8493,"E_F_keira_knightley.png","E_F_sandra_bullock.png","TRUE","pictures/stimuli/E","pictures/stimuli/E","F","F","4","59712abaafd8a4000160ff35","05/06/2022, 10:51:38","E_F_keira_knightley.png E_F_sandra_bullock.png",-0.763690230886061,"33","Female","left",0,1,FALSE
2288,"E_F_Judi_Dench.png","E_M_Hugh_Grant.png","TRUE","pictures/stimuli/E","pictures/stimuli/E","F","M","6","59712abaafd8a4000160ff35","05/06/2022, 10:51:38","E_F_Judi_Dench.png E_M_Hugh_Grant.png",1.0847319839974,"33","Female","left",1,0,FALSE
1666,"E_M_Hugh_Grant.png","E_M_tom_hankes.png","TRUE","pictures/stimuli/E","pictures/stimuli/E","M","M","5","59712abaafd8a4000160ff35","05/06/2022, 10:51:38","E_M_Hugh_Grant.png E_M_tom_hankes.png",0.160520876555669,"33","Female","left",0,0,FALSE
4888,"E_F_Kate_Winslet.png","E_F_keira_knightley.png","TRUE","pictures/stimuli/E","pictures/stimuli/E","F","F","2","59712abaafd8a4000160ff35","05/06/2022, 10:51:38","E_F_Kate_Winslet.png E_F_keira_knightley.png",-2.61211244576952,"33","Female","left",1,0,FALSE
4730,"E_F_jennifer_aniston.png","E_F_keira_knightley.png","TRUE","pictures/stimuli/E","pictures/stimuli/E","F","F","4","59712abaafd8a4000160ff35","05/06/2022, 10:51:38","E_F_jennifer_aniston.png E_F_keira_knightley.png",-0.763690230886061,"33","Female","left",0,0,FALSE
1918,"E_F_angelina_jolie.png","E_M_michael_caine.png","TRUE","pictures/stimuli/E","pictures/stimuli/E","F","M","6","59712abaafd8a4000160ff35","05/06/2022, 10:51:38","E_F_angelina_jolie.png E_M_michael_caine.png",1.0847319839974,"33","Female","left",0,0,FALSE
2086,"E_M_Hugh_Grant.png","P_M_Tony_Blair.png","FALSE","pictures/stimuli/E","pictures/stimuli/P","M","M","5","59712abaafd8a4000160ff35","05/06/2022, 10:51:38","E_M_Hugh_Grant.png P_M_Tony_Blair.png",0.160520876555669,"33","Female","left",0,0,FALSE
4677,"E_M_tom_hankes.png","P_M_Tony_Blair.png","FALSE","pictures/stimuli/E","pictures/stimuli/P","M","M","5","59712abaafd8a4000160ff35","05/06/2022, 10:51:38","E_M_tom_hankes.png P_M_Tony_Blair.png",0.160520876555669,"33","Female","left",0,0,FALSE
3019,"E_M_nicolas_cage.png","P_F_tehresy_may.png","FALSE","pictures/stimuli/E","pictures/stimuli/P","M","F","6","59712abaafd8a4000160ff35","05/06/2022, 10:51:38","E_M_nicolas_cage.png P_F_tehresy_may.png",1.0847319839974,"33","Female","left",0,0,FALSE
1962,"E_M_michael_caine.png","P_M_david_cameron.png","FALSE","pictures/stimuli/E","pictures/stimuli/P","M","M","5","59712abaafd8a4000160ff35","05/06/2022, 10:51:38","E_M_michael_caine.png P_M_david_cameron.png",0.160520876555669,"33","Female","left",0,0,FALSE
2052,"E_M_nicolas_cage.png","E_M_robert_de_niro.png","TRUE","pictures/stimuli/E","pictures/stimuli/E","M","M","4","59712abaafd8a4000160ff35","05/06/2022, 10:51:38","E_M_nicolas_cage.png E_M_robert_de_niro.png",-0.763690230886061,"33","Female","left",0,0,FALSE
1916,"E_F_keira_knightley.png","P_F_tehresy_may.png","FALSE","pictures/stimuli/E","pictures/stimuli/P","F","F","5","59712abaafd8a4000160ff35","05/06/2022, 10:51:38","E_F_keira_knightley.png P_F_tehresy_may.png",0.160520876555669,"33","Female","left",0,0,FALSE
3348,"P_M_bill_clinton.png","P_M_donald_trump.png","TRUE","pictures/stimuli/P","pictures/stimuli/P","M","M","3","59712abaafd8a4000160ff35","05/06/2022, 10:51:38","P_M_bill_clinton.png P_M_donald_trump.png",-1.68790133832779,"33","Female","left",0,0,FALSE
2977,"E_F_jennifer_aniston.png","P_M_david_cameron.png","FALSE","pictures/stimuli/E","pictures/stimuli/P","F","M","5","59712abaafd8a4000160ff35","05/06/2022, 10:51:38","E_F_jennifer_aniston.png P_M_david_cameron.png",0.160520876555669,"33","Female","left",0,0,FALSE
4036,"E_F_Kate_Winslet.png","P_M_boris_johnson.png","FALSE","pictures/stimuli/E","pictures/stimuli/P","F","M","6","59712abaafd8a4000160ff35","05/06/2022, 10:51:38","E_F_Kate_Winslet.png P_M_boris_johnson.png",1.0847319839974,"33","Female","left",1,0,FALSE
3274,"P_M_bill_clinton.png","P_M_george_Wbush.png","TRUE","pictures/stimuli/P","pictures/stimuli/P","M","M","5","59712abaafd8a4000160ff35","05/06/2022, 10:51:38","P_M_bill_clinton.png P_M_george_Wbush.png",0.160520876555669,"33","Female","left",0,1,FALSE
1927,"E_M_michael_caine.png","P_F_hillary_clinton.png","FALSE","pictures/stimuli/E","pictures/stimuli/P","M","F","6","59712abaafd8a4000160ff35","05/06/2022, 10:51:38","E_M_michael_caine.png P_F_hillary_clinton.png",1.0847319839974,"33","Female","left",0,1,FALSE
3852,"E_M_nicolas_cage.png","P_M_george_Wbush.png","FALSE","pictures/stimuli/E","pictures/stimuli/P","M","M","6","59712abaafd8a4000160ff35","05/06/2022, 10:51:38","E_M_nicolas_cage.png P_M_george_Wbush.png",1.0847319839974,"33","Female","left",0,1,FALSE
2437,"E_M_tom_hankes.png","P_F_hillary_clinton.png","FALSE","pictures/stimuli/E","pictures/stimuli/P","M","F","5","59712abaafd8a4000160ff35","05/06/2022, 10:51:38","E_M_tom_hankes.png P_F_hillary_clinton.png",0.160520876555669,"33","Female","left",0,1,FALSE
4241,"E_F_jennifer_aniston.png","E_F_Judi_Dench.png","TRUE","pictures/stimuli/E","pictures/stimuli/E","F","F","5","59712abaafd8a4000160ff35","05/06/2022, 10:51:38","E_F_jennifer_aniston.png E_F_Judi_Dench.png",0.160520876555669,"33","Female","left",0,1,FALSE
2916,"E_F_Kate_Winslet.png","E_M_robert_de_niro.png","TRUE","pictures/stimuli/E","pictures/stimuli/E","F","M","6","59712abaafd8a4000160ff35","05/06/2022, 10:51:38","E_F_Kate_Winslet.png E_M_robert_de_niro.png",1.0847319839974,"33","Female","left",1,0,FALSE
2823,"E_F_sandra_bullock.png","E_M_nicolas_cage.png","TRUE","pictures/stimuli/E","pictures/stimuli/E","F","M","5","59712abaafd8a4000160ff35","05/06/2022, 10:51:38","E_F_sandra_bullock.png E_M_nicolas_cage.png",0.160520876555669,"33","Female","left",1,0,FALSE
1674,"E_F_sandra_bullock.png","E_M_robert_de_niro.png","TRUE","pictures/stimuli/E","pictures/stimuli/E","F","M","6","59712abaafd8a4000160ff35","05/06/2022, 10:51:38","E_F_sandra_bullock.png E_M_robert_de_niro.png",1.0847319839974,"33","Female","left",1,0,FALSE
2102,"E_F_jennifer_aniston.png","P_M_Tony_Blair.png","FALSE","pictures/stimuli/E","pictures/stimuli/P","F","M","6","59712abaafd8a4000160ff35","05/06/2022, 10:51:38","E_F_jennifer_aniston.png P_M_Tony_Blair.png",1.0847319839974,"33","Female","left",0,0,FALSE
6393,"E_M_robert_de_niro.png","P_M_david_cameron.png","FALSE","pictures/stimuli/E","pictures/stimuli/P","M","M","3","59712abaafd8a4000160ff35","05/06/2022, 10:51:38","E_M_robert_de_niro.png P_M_david_cameron.png",-1.68790133832779,"33","Female","left",0,0,FALSE
2108,"P_M_george_Wbush.png","P_M_Tony_Blair.png","TRUE","pictures/stimuli/P","pictures/stimuli/P","M","M","5","59712abaafd8a4000160ff35","05/06/2022, 10:51:38","P_M_george_Wbush.png P_M_Tony_Blair.png",0.160520876555669,"33","Female","left",1,0,FALSE
2040,"E_M_Hugh_Grant.png","E_M_michael_caine.png","TRUE","pictures/stimuli/E","pictures/stimuli/E","M","M","6","59712abaafd8a4000160ff35","05/06/2022, 10:51:38","E_M_Hugh_Grant.png E_M_michael_caine.png",1.0847319839974,"33","Female","left",0,0,FALSE
4403,"P_M_boris_johnson.png","P_M_david_cameron.png","TRUE","pictures/stimuli/P","pictures/stimuli/P","M","M","4","59712abaafd8a4000160ff35","05/06/2022, 10:51:38","P_M_boris_johnson.png P_M_david_cameron.png",-0.763690230886061,"33","Female","left",0,0,FALSE
2270,"E_M_Hugh_Grant.png","P_M_david_cameron.png","FALSE","pictures/stimuli/E","pictures/stimuli/P","M","M","5","59712abaafd8a4000160ff35","05/06/2022, 10:51:38","E_M_Hugh_Grant.png P_M_david_cameron.png",0.160520876555669,"33","Female","left",0,0,FALSE
2142,"E_F_Kate_Winslet.png","E_M_Hugh_Grant.png","TRUE","pictures/stimuli/E","pictures/stimuli/E","F","M","5","59712abaafd8a4000160ff35","05/06/2022, 10:51:38","E_F_Kate_Winslet.png E_M_Hugh_Grant.png",0.160520876555669,"33","Female","left",1,0,FALSE
2823,"P_M_david_cameron.png","P_M_george_Wbush.png","TRUE","pictures/stimuli/P","pictures/stimuli/P","M","M","6","59712abaafd8a4000160ff35","05/06/2022, 10:51:38","P_M_david_cameron.png P_M_george_Wbush.png",1.0847319839974,"33","Female","left",0,1,FALSE
5708,"E_M_michael_caine.png","P_M_donald_trump.png","FALSE","pictures/stimuli/E","pictures/stimuli/P","M","M","6","59712abaafd8a4000160ff35","05/06/2022, 10:51:38","E_M_michael_caine.png P_M_donald_trump.png",1.0847319839974,"33","Female","left",0,0,FALSE
3388,"E_F_jennifer_aniston.png","P_M_george_Wbush.png","FALSE","pictures/stimuli/E","pictures/stimuli/P","F","M","6","59712abaafd8a4000160ff35","05/06/2022, 10:51:38","E_F_jennifer_aniston.png P_M_george_Wbush.png",1.0847319839974,"33","Female","left",0,1,FALSE
2286,"E_F_angelina_jolie.png","P_M_george_Wbush.png","FALSE","pictures/stimuli/E","pictures/stimuli/P","F","M","6","59712abaafd8a4000160ff35","05/06/2022, 10:51:38","E_F_angelina_jolie.png P_M_george_Wbush.png",1.0847319839974,"33","Female","left",0,1,FALSE
3900,"E_M_michael_caine.png","P_F_nicola_sturgeon.png","FALSE","pictures/stimuli/E","pictures/stimuli/P","M","F","5","59712abaafd8a4000160ff35","05/06/2022, 10:51:38","E_M_michael_caine.png P_F_nicola_sturgeon.png",0.160520876555669,"33","Female","left",0,0,FALSE
3929,"E_M_robert_de_niro.png","P_F_hillary_clinton.png","FALSE","pictures/stimuli/E","pictures/stimuli/P","M","F","5","59712abaafd8a4000160ff35","05/06/2022, 10:51:38","E_M_robert_de_niro.png P_F_hillary_clinton.png",0.160520876555669,"33","Female","left",0,1,FALSE
9198,"P_F_tehresy_may.png","P_M_donald_trump.png","TRUE","pictures/stimuli/P","pictures/stimuli/P","F","M","5","59712abaafd8a4000160ff35","05/06/2022, 10:51:38","P_F_tehresy_may.png P_M_donald_trump.png",0.160520876555669,"33","Female","left",0,0,FALSE
2124,"P_F_nicola_sturgeon.png","P_M_david_cameron.png","TRUE","pictures/stimuli/P","pictures/stimuli/P","F","M","4","59712abaafd8a4000160ff35","05/06/2022, 10:51:38","P_F_nicola_sturgeon.png P_M_david_cameron.png",-0.763690230886061,"33","Female","left",0,0,FALSE
1804,"E_F_sandra_bullock.png","P_M_bill_clinton.png","FALSE","pictures/stimuli/E","pictures/stimuli/P","F","M","5","59712abaafd8a4000160ff35","05/06/2022, 10:51:38","E_F_sandra_bullock.png P_M_bill_clinton.png",0.160520876555669,"33","Female","left",1,0,FALSE
1960,"E_M_Hugh_Grant.png","P_F_nicola_sturgeon.png","FALSE","pictures/stimuli/E","pictures/stimuli/P","M","F","6","59712abaafd8a4000160ff35","05/06/2022, 10:51:38","E_M_Hugh_Grant.png P_F_nicola_sturgeon.png",1.0847319839974,"33","Female","left",0,0,FALSE
2223,"P_F_hillary_clinton.png","P_M_david_cameron.png","TRUE","pictures/stimuli/P","pictures/stimuli/P","F","M","6","59712abaafd8a4000160ff35","05/06/2022, 10:51:38","P_F_hillary_clinton.png P_M_david_cameron.png",1.0847319839974,"33","Female","left",1,0,FALSE
2313,"E_F_Judi_Dench.png","P_F_nicola_sturgeon.png","FALSE","pictures/stimuli/E","pictures/stimuli/P","F","F","5","59712abaafd8a4000160ff35","05/06/2022, 10:51:38","E_F_Judi_Dench.png P_F_nicola_sturgeon.png",0.160520876555669,"33","Female","left",1,0,FALSE
1887,"E_F_keira_knightley.png","E_M_michael_caine.png","TRUE","pictures/stimuli/E","pictures/stimuli/E","F","M","6","59712abaafd8a4000160ff35","05/06/2022, 10:51:38","E_F_keira_knightley.png E_M_michael_caine.png",1.0847319839974,"33","Female","left",0,0,FALSE
1856,"E_F_angelina_jolie.png","P_M_donald_trump.png","FALSE","pictures/stimuli/E","pictures/stimuli/P","F","M","6","59712abaafd8a4000160ff35","05/06/2022, 10:51:38","E_F_angelina_jolie.png P_M_donald_trump.png",1.0847319839974,"33","Female","left",0,0,FALSE
2026,"P_M_bill_clinton.png","P_M_david_cameron.png","TRUE","pictures/stimuli/P","pictures/stimuli/P","M","M","5","59712abaafd8a4000160ff35","05/06/2022, 10:51:38","P_M_bill_clinton.png P_M_david_cameron.png",0.160520876555669,"33","Female","left",0,0,FALSE
2272,"E_F_Kate_Winslet.png","E_F_sandra_bullock.png","TRUE","pictures/stimuli/E","pictures/stimuli/E","F","F","4","59712abaafd8a4000160ff35","05/06/2022, 10:51:38","E_F_Kate_Winslet.png E_F_sandra_bullock.png",-0.763690230886061,"33","Female","left",1,1,FALSE
2011,"E_F_Kate_Winslet.png","E_M_nicolas_cage.png","TRUE","pictures/stimuli/E","pictures/stimuli/E","F","M","6","59712abaafd8a4000160ff35","05/06/2022, 10:51:38","E_F_Kate_Winslet.png E_M_nicolas_cage.png",1.0847319839974,"33","Female","left",1,0,FALSE
1951,"E_F_jennifer_aniston.png","E_M_michael_caine.png","TRUE","pictures/stimuli/E","pictures/stimuli/E","F","M","6","59712abaafd8a4000160ff35","05/06/2022, 10:51:38","E_F_jennifer_aniston.png E_M_michael_caine.png",1.0847319839974,"33","Female","left",0,0,FALSE
5032,"P_F_hillary_clinton.png","P_F_tehresy_may.png","TRUE","pictures/stimuli/P","pictures/stimuli/P","F","F","2","59712abaafd8a4000160ff35","05/06/2022, 10:51:38","P_F_hillary_clinton.png P_F_tehresy_may.png",-2.61211244576952,"33","Female","left",1,0,FALSE
2027,"P_F_nicola_sturgeon.png","P_M_george_Wbush.png","TRUE","pictures/stimuli/P","pictures/stimuli/P","F","M","6","59712abaafd8a4000160ff35","05/06/2022, 10:51:38","P_F_nicola_sturgeon.png P_M_george_Wbush.png",1.0847319839974,"33","Female","left",0,1,FALSE
6623,"P_M_bill_clinton.png","P_M_boris_johnson.png","TRUE","pictures/stimuli/P","pictures/stimuli/P","M","M","1","59712abaafd8a4000160ff35","05/06/2022, 10:51:38","P_M_bill_clinton.png P_M_boris_johnson.png",-3.53632355321125,"33","Female","left",0,0,FALSE
6331,"E_M_tom_hankes.png","P_M_bill_clinton.png","FALSE","pictures/stimuli/E","pictures/stimuli/P","M","M","4","59712abaafd8a4000160ff35","05/06/2022, 10:51:38","E_M_tom_hankes.png P_M_bill_clinton.png",-0.763690230886061,"33","Female","left",0,0,FALSE
4881,"E_M_robert_de_niro.png","P_M_donald_trump.png","FALSE","pictures/stimuli/E","pictures/stimuli/P","M","M","5","59712abaafd8a4000160ff35","05/06/2022, 10:51:38","E_M_robert_de_niro.png P_M_donald_trump.png",0.160520876555669,"33","Female","left",0,0,FALSE
2301,"E_M_robert_de_niro.png","P_M_bill_clinton.png","FALSE","pictures/stimuli/E","pictures/stimuli/P","M","M","3","59712abaafd8a4000160ff35","05/06/2022, 10:51:38","E_M_robert_de_niro.png P_M_bill_clinton.png",-1.68790133832779,"33","Female","left",0,0,FALSE
2175,"E_M_Hugh_Grant.png","P_F_tehresy_may.png","FALSE","pictures/stimuli/E","pictures/stimuli/P","M","F","5","59712abaafd8a4000160ff35","05/06/2022, 10:51:38","E_M_Hugh_Grant.png P_F_tehresy_may.png",0.160520876555669,"33","Female","left",0,0,FALSE
4496,"E_M_Hugh_Grant.png","E_M_robert_de_niro.png","TRUE","pictures/stimuli/E","pictures/stimuli/E","M","M","6","59712abaafd8a4000160ff35","05/06/2022, 10:51:38","E_M_Hugh_Grant.png E_M_robert_de_niro.png",1.0847319839974,"33","Female","left",0,0,FALSE
2572,"E_F_angelina_jolie.png","P_F_hillary_clinton.png","FALSE","pictures/stimuli/E","pictures/stimuli/P","F","F","5","59712abaafd8a4000160ff35","05/06/2022, 10:51:38","E_F_angelina_jolie.png P_F_hillary_clinton.png",0.160520876555669,"33","Female","left",0,1,FALSE
3606,"E_F_keira_knightley.png","E_M_tom_hankes.png","TRUE","pictures/stimuli/E","pictures/stimuli/E","F","M","6","59712abaafd8a4000160ff35","05/06/2022, 10:51:38","E_F_keira_knightley.png E_M_tom_hankes.png",1.0847319839974,"33","Female","left",0,0,FALSE
2505,"P_M_donald_trump.png","P_M_george_Wbush.png","TRUE","pictures/stimuli/P","pictures/stimuli/P","M","M","5","59712abaafd8a4000160ff35","05/06/2022, 10:51:38","P_M_donald_trump.png P_M_george_Wbush.png",0.160520876555669,"33","Female","left",0,1,FALSE
5441,"P_F_hillary_clinton.png","P_F_nicola_sturgeon.png","TRUE","pictures/stimuli/P","pictures/stimuli/P","F","F","4","59712abaafd8a4000160ff35","05/06/2022, 10:51:38","P_F_hillary_clinton.png P_F_nicola_sturgeon.png",-0.763690230886061,"33","Female","left",1,0,FALSE
2482,"E_M_michael_caine.png","P_M_bill_clinton.png","FALSE","pictures/stimuli/E","pictures/stimuli/P","M","M","6","59712abaafd8a4000160ff35","05/06/2022, 10:51:38","E_M_michael_caine.png P_M_bill_clinton.png",1.0847319839974,"33","Female","left",0,0,FALSE
1854,"P_F_hillary_clinton.png","P_M_george_Wbush.png","TRUE","pictures/stimuli/P","pictures/stimuli/P","F","M","6","59712abaafd8a4000160ff35","05/06/2022, 10:51:38","P_F_hillary_clinton.png P_M_george_Wbush.png",1.0847319839974,"33","Female","left",1,1,FALSE
2039,"E_M_robert_de_niro.png","P_F_tehresy_may.png","FALSE","pictures/stimuli/E","pictures/stimuli/P","M","F","6","59712abaafd8a4000160ff35","05/06/2022, 10:51:38","E_M_robert_de_niro.png P_F_tehresy_may.png",1.0847319839974,"33","Female","left",0,0,FALSE
4967,"E_F_angelina_jolie.png","E_F_keira_knightley.png","TRUE","pictures/stimuli/E","pictures/stimuli/E","F","F","2","59712abaafd8a4000160ff35","05/06/2022, 10:51:38","E_F_angelina_jolie.png E_F_keira_knightley.png",-2.61211244576952,"33","Female","left",0,0,FALSE
2250,"P_M_david_cameron.png","P_M_Tony_Blair.png","TRUE","pictures/stimuli/P","pictures/stimuli/P","M","M","3","59712abaafd8a4000160ff35","05/06/2022, 10:51:38","P_M_david_cameron.png P_M_Tony_Blair.png",-1.68790133832779,"33","Female","left",0,0,FALSE
5403,"E_M_nicolas_cage.png","P_F_hillary_clinton.png","FALSE","pictures/stimuli/E","pictures/stimuli/P","M","F","6","5a270517b4a5de00011af15c","05/06/2022, 10:59:44","E_M_nicolas_cage.png P_F_hillary_clinton.png",1.61216816883193,"31","Female","right",0,1,FALSE
5487,"P_M_david_cameron.png","P_M_george_Wbush.png","TRUE","pictures/stimuli/P","pictures/stimuli/P","M","M","4","5a270517b4a5de00011af15c","05/06/2022, 10:59:44","P_M_david_cameron.png P_M_george_Wbush.png",0.069034908992803,"31","Female","right",0,1,FALSE
5496,"E_F_jennifer_aniston.png","P_M_donald_trump.png","FALSE","pictures/stimuli/E","pictures/stimuli/P","F","M","5","5a270517b4a5de00011af15c","05/06/2022, 10:59:44","E_F_jennifer_aniston.png P_M_donald_trump.png",0.840601538912365,"31","Female","right",1,1,FALSE
3887,"E_F_Judi_Dench.png","P_F_hillary_clinton.png","FALSE","pictures/stimuli/E","pictures/stimuli/P","F","F","3","5a270517b4a5de00011af15c","05/06/2022, 10:59:44","E_F_Judi_Dench.png P_F_hillary_clinton.png",-0.702531720926759,"31","Female","right",1,1,FALSE
3856,"E_F_sandra_bullock.png","P_F_hillary_clinton.png","FALSE","pictures/stimuli/E","pictures/stimuli/P","F","F","6","5a270517b4a5de00011af15c","05/06/2022, 10:59:44","E_F_sandra_bullock.png P_F_hillary_clinton.png",1.61216816883193,"31","Female","right",1,1,FALSE
