"RT","img_1","img_2","isSameProffesion","img1proffesion","img2proffesion","img1Gender","img2Gender","keyPressed","participant","time","normlised_keyPress","age","gender","handedness","isFamiliar_img1","isFamiliar_img2","vividness_img1","vividness_img2","reject_trial","pair"
2867,"E_F_Judi_Dench.png","E_M_tom_hankes.png","TRUE","pictures/stimuli/E","pictures/stimuli/E","F","M","6","595fa59caa841c00018d7225","05/06/2022, 10:54:19",0.359724757552318,"27","Female","right",1,0,0,0,FALSE,"E_F_Judi_Dench.png E_M_tom_hankes.png"
2565,"E_F_angelina_jolie.png","E_M_tom_hankes.png","TRUE","pictures/stimuli/E","pictures/stimuli/E","F","M","6","595fa59caa841c00018d7225","05/06/2022, 10:54:19",0.359724757552318,"27","Female","right",0,0,0,0,FALSE,"E_F_angelina_jolie.png E_M_tom_hankes.png"
6814,"E_M_robert_de_niro.png","P_F_tehresy_may.png","FALSE","pictures/stimuli/E","pictures/stimuli/P","M","F","6","595fa59caa841c00018d7225","05/06/2022, 10:54:19",0.359724757552318,"27","Female","right",1,0,0,0,FALSE,"E_M_robert_de_niro.png P_F_tehresy_may.png"
8014,"E_F_jennifer_aniston.png","P_F_tehresy_may.png","FALSE","pictures/stimuli/E","pictures/stimuli/P","F","F","6","595fa59caa841c00018d7225","05/06/2022, 10:54:19",0.359724757552318,"27","Female","right",0,0,0,0,FALSE,"E_F_jennifer_aniston.png P_F_tehresy_may.png"
4007,"E_F_angelina_jolie.png","E_M_nicolas_cage.png","TRUE","pictures/stimuli/E","pictures/stimuli/E","F","M","6","595fa59caa841c00018d7225","05/06/2022, 10:54:19",0.359724757552318,"27","Female","right",0,0,0,0,FALSE,"E_F_angelina_jolie.png E_M_nicolas_cage.png"
4934,"P_F_nicola_sturgeon.png","P_F_tehresy_may.png","TRUE","pictures/stimuli/P","pictures/stimuli/P","F","F","3","595fa59caa841c00018d7225","05/06/2022, 10:54:19",-4.00289464255026,"27","Female","right",1,0,0,0,FALSE,"P_F_nicola_sturgeon.png P_F_tehresy_may.png"
7743,"E_F_keira_knightley.png","E_F_sandra_bullock.png","TRUE","pictures/stimuli/E","pictures/stimuli/E","F","F","4","595fa59caa841c00018d7225","05/06/2022, 10:54:19",-2.5486881758494,"27","Female","right",1,1,0,0,FALSE,"E_F_keira_knightley.png E_F_sandra_bullock.png"
4919,"E_M_Hugh_Grant.png","E_M_tom_hankes.png","TRUE","pictures/stimuli/E","pictures/stimuli/E","M","M","6","595fa59caa841c00018d7225","05/06/2022, 10:54:19",0.359724757552318,"27","Female","right",1,0,0,0,FALSE,"E_M_Hugh_Grant.png E_M_tom_hankes.png"
2654,"E_F_sandra_bullock.png","P_M_george_Wbush.png","FALSE","pictures/stimuli/E","pictures/stimuli/P","F","M","6","595fa59caa841c00018d7225","05/06/2022, 10:54:19",0.359724757552318,"27","Female","right",1,1,0,0,FALSE,"E_F_sandra_bullock.png P_M_george_Wbush.png"
3958,"E_F_angelina_jolie.png","P_F_tehresy_may.png","FALSE","pictures/stimuli/E","pictures/stimuli/P","F","F","6","595fa59caa841c00018d7225","05/06/2022, 10:54:19",0.359724757552318,"27","Female","right",0,0,0,0,FALSE,"E_F_angelina_jolie.png P_F_tehresy_may.png"
4886,"E_F_Judi_Dench.png","P_M_Tony_Blair.png","FALSE","pictures/stimuli/E","pictures/stimuli/P","F","M","6","595fa59caa841c00018d7225","05/06/2022, 10:54:19",0.359724757552318,"27","Female","right",1,0,0,0,FALSE,"E_F_Judi_Dench.png P_M_Tony_Blair.png"
3662,"E_F_jennifer_aniston.png","P_M_bill_clinton.png","FALSE","pictures/stimuli/E","pictures/stimuli/P","F","M","6","595fa59caa841c00018d7225","05/06/2022, 10:54:19",0.359724757552318,"27","Female","right",0,0,0,0,FALSE,"E_F_jennifer_aniston.png P_M_bill_clinton.png"
3134,"E_M_tom_hankes.png","P_F_tehresy_may.png","FALSE","pictures/stimuli/E","pictures/stimuli/P","M","F","6","595fa59caa841c00018d7225","05/06/2022, 10:54:19",0.359724757552318,"27","Female","right",0,0,0,0,FALSE,"E_M_tom_hankes.png P_F_tehresy_may.png"
2334,"E_F_angelina_jolie.png","P_F_hillary_clinton.png","FALSE","pictures/stimuli/E","pictures/stimuli/P","F","F","6","595fa59caa841c00018d7225","05/06/2022, 10:54:19",0.359724757552318,"27","Female","right",0,0,0,0,FALSE,"E_F_angelina_jolie.png P_F_hillary_clinton.png"
3575,"E_F_angelina_jolie.png","P_M_george_Wbush.png","FALSE","pictures/stimuli/E","pictures/stimuli/P","F","M","6","595fa59caa841c00018d7225","05/06/2022, 10:54:19",0.359724757552318,"27","Female","right",0,1,0,0,FALSE,"E_F_angelina_jolie.png P_M_george_Wbush.png"
3702,"E_F_jennifer_aniston.png","E_M_michael_caine.png","TRUE","pictures/stimuli/E","pictures/stimuli/E","F","M","6","595fa59caa841c00018d7225","05/06/2022, 10:54:19",0.359724757552318,"27","Female","right",0,0,0,0,FALSE,"E_F_jennifer_aniston.png E_M_michael_caine.png"
3029,"E_F_jennifer_aniston.png","E_M_robert_de_niro.png","TRUE","pictures/stimuli/E","pictures/stimuli/E","F","M","6","595fa59caa841c00018d7225","05/06/2022, 10:54:19",0.359724757552318,"27","Female","right",0,1,0,0,FALSE,"E_F_jennifer_aniston.png E_M_robert_de_niro.png"
4855,"E_F_sandra_bullock.png","E_M_Hugh_Grant.png","TRUE","pictures/stimuli/E","pictures/stimuli/E","F","M","6","595fa59caa841c00018d7225","05/06/2022, 10:54:19",0.359724757552318,"27","Female","right",1,1,0,0,FALSE,"E_F_sandra_bullock.png E_M_Hugh_Grant.png"
3830,"E_F_sandra_bullock.png","P_F_hillary_clinton.png","FALSE","pictures/stimuli/E","pictures/stimuli/P","F","F","6","595fa59caa841c00018d7225","05/06/2022, 10:54:19",0.359724757552318,"27","Female","right",1,0,0,0,FALSE,"E_F_sandra_bullock.png P_F_hillary_clinton.png"
4222,"E_F_Judi_Dench.png","P_M_bill_clinton.png","FALSE","pictures/stimuli/E","pictures/stimuli/P","F","M","6","595fa59caa841c00018d7225","05/06/2022, 10:54:19",0.359724757552318,"27","Female","right",1,0,0,0,FALSE,"E_F_Judi_Dench.png P_M_bill_clinton.png"
7415,"E_F_Kate_Winslet.png","P_F_tehresy_may.png","FALSE","pictures/stimuli/E","pictures/stimuli/P","F","F","6","595fa59caa841c00018d7225","05/06/2022, 10:54:19",0.359724757552318,"27","Female","right",0,0,0,0,FALSE,"E_F_Kate_Winslet.png P_F_tehresy_may.png"
6047,"E_M_michael_caine.png","P_F_nicola_sturgeon.png","FALSE","pictures/stimuli/E","pictures/stimuli/P","M","F","6","595fa59caa841c00018d7225","05/06/2022, 10:54:19",0.359724757552318,"27","Female","right",0,1,0,0,FALSE,"E_M_michael_caine.png P_F_nicola_sturgeon.png"
11686,"E_F_angelina_jolie.png","E_F_keira_knightley.png","TRUE","pictures/stimuli/E","pictures/stimuli/E","F","F","3","595fa59caa841c00018d7225","05/06/2022, 10:54:19",-4.00289464255026,"27","Female","right",0,1,0,0,FALSE,"E_F_angelina_jolie.png E_F_keira_knightley.png"
4910,"P_M_bill_clinton.png","P_M_george_Wbush.png","TRUE","pictures/stimuli/P","pictures/stimuli/P","M","M","5","595fa59caa841c00018d7225","05/06/2022, 10:54:19",-1.09448170914854,"27","Female","right",0,1,0,0,FALSE,"P_M_bill_clinton.png P_M_george_Wbush.png"
5735,"E_M_michael_caine.png","P_M_boris_johnson.png","FALSE","pictures/stimuli/E","pictures/stimuli/P","M","M","6","595fa59caa841c00018d7225","05/06/2022, 10:54:19",0.359724757552318,"27","Female","right",0,0,0,0,FALSE,"E_M_michael_caine.png P_M_boris_johnson.png"
5063,"E_F_angelina_jolie.png","E_F_Kate_Winslet.png","TRUE","pictures/stimuli/E","pictures/stimuli/E","F","F","6","595fa59caa841c00018d7225","05/06/2022, 10:54:19",0.359724757552318,"27","Female","right",0,0,0,0,FALSE,"E_F_angelina_jolie.png E_F_Kate_Winslet.png"
3214,"E_F_jennifer_aniston.png","P_M_george_Wbush.png","FALSE","pictures/stimuli/E","pictures/stimuli/P","F","M","6","595fa59caa841c00018d7225","05/06/2022, 10:54:19",0.359724757552318,"27","Female","right",0,1,0,0,FALSE,"E_F_jennifer_aniston.png P_M_george_Wbush.png"
5822,"P_F_nicola_sturgeon.png","P_M_donald_trump.png","TRUE","pictures/stimuli/P","pictures/stimuli/P","F","M","6","595fa59caa841c00018d7225","05/06/2022, 10:54:19",0.359724757552318,"27","Female","right",1,0,0,0,FALSE,"P_F_nicola_sturgeon.png P_M_donald_trump.png"
7391,"E_F_angelina_jolie.png","E_M_robert_de_niro.png","TRUE","pictures/stimuli/E","pictures/stimuli/E","F","M","6","595fa59caa841c00018d7225","05/06/2022, 10:54:19",0.359724757552318,"27","Female","right",0,1,0,0,FALSE,"E_F_angelina_jolie.png E_M_robert_de_niro.png"
5239,"E_M_Hugh_Grant.png","P_M_david_cameron.png","FALSE","pictures/stimuli/E","pictures/stimuli/P","M","M","6","595fa59caa841c00018d7225","05/06/2022, 10:54:19",0.359724757552318,"27","Female","right",1,0,0,0,FALSE,"E_M_Hugh_Grant.png P_M_david_cameron.png"
7839,"E_F_jennifer_aniston.png","P_F_hillary_clinton.png","FALSE","pictures/stimuli/E","pictures/stimuli/P","F","F","6","595fa59caa841c00018d7225","05/06/2022, 10:54:19",0.359724757552318,"27","Female","right",0,0,0,0,FALSE,"E_F_jennifer_aniston.png P_F_hillary_clinton.png"
3943,"E_M_tom_hankes.png","P_M_boris_johnson.png","FALSE","pictures/stimuli/E","pictures/stimuli/P","M","M","6","595fa59caa841c00018d7225","05/06/2022, 10:54:19",0.359724757552318,"27","Female","right",0,0,0,0,FALSE,"E_M_tom_hankes.png P_M_boris_johnson.png"
5703,"P_F_tehresy_may.png","P_M_donald_trump.png","TRUE","pictures/stimuli/P","pictures/stimuli/P","F","M","6","595fa59caa841c00018d7225","05/06/2022, 10:54:19",0.359724757552318,"27","Female","right",0,0,0,0,FALSE,"P_F_tehresy_may.png P_M_donald_trump.png"
7558,"E_F_Kate_Winslet.png","P_M_boris_johnson.png","FALSE","pictures/stimuli/E","pictures/stimuli/P","F","M","6","595fa59caa841c00018d7225","05/06/2022, 10:54:19",0.359724757552318,"27","Female","right",0,0,0,0,FALSE,"E_F_Kate_Winslet.png P_M_boris_johnson.png"
5855,"P_F_hillary_clinton.png","P_M_bill_clinton.png","TRUE","pictures/stimuli/P","pictures/stimuli/P","F","M","6","595fa59caa841c00018d7225","05/06/2022, 10:54:19",0.359724757552318,"27","Female","right",0,0,0,0,FALSE,"P_F_hillary_clinton.png P_M_bill_clinton.png"
9103,"E_M_michael_caine.png","E_M_robert_de_niro.png","TRUE","pictures/stimuli/E","pictures/stimuli/E","M","M","4","595fa59caa841c00018d7225","05/06/2022, 10:54:19",-2.5486881758494,"27","Female","right",0,1,0,0,FALSE,"E_M_michael_caine.png E_M_robert_de_niro.png"
4174,"P_F_nicola_sturgeon.png","P_M_bill_clinton.png","TRUE","pictures/stimuli/P","pictures/stimuli/P","F","M","6","595fa59caa841c00018d7225","05/06/2022, 10:54:19",0.359724757552318,"27","Female","right",1,0,0,0,FALSE,"P_F_nicola_sturgeon.png P_M_bill_clinton.png"
6255,"E_F_Judi_Dench.png","E_F_sandra_bullock.png","TRUE","pictures/stimuli/E","pictures/stimuli/E","F","F","6","595fa59caa841c00018d7225","05/06/2022, 10:54:19",0.359724757552318,"27","Female","right",1,1,0,0,FALSE,"E_F_Judi_Dench.png E_F_sandra_bullock.png"
8239,"E_F_jennifer_aniston.png","E_M_Hugh_Grant.png","TRUE","pictures/stimuli/E","pictures/stimuli/E","F","M","6","595fa59caa841c00018d7225","05/06/2022, 10:54:19",0.359724757552318,"27","Female","right",0,1,0,0,FALSE,"E_F_jennifer_aniston.png E_M_Hugh_Grant.png"
6870,"P_M_bill_clinton.png","P_M_boris_johnson.png","TRUE","pictures/stimuli/P","pictures/stimuli/P","M","M","2","595fa59caa841c00018d7225","05/06/2022, 10:54:19",-5.45710110925111,"27","Female","right",0,0,0,0,FALSE,"P_M_bill_clinton.png P_M_boris_johnson.png"
7622,"P_M_david_cameron.png","P_M_Tony_Blair.png","TRUE","pictures/stimuli/P","pictures/stimuli/P","M","M","6","595fa59caa841c00018d7225","05/06/2022, 10:54:19",0.359724757552318,"27","Female","right",0,0,0,0,FALSE,"P_M_david_cameron.png P_M_Tony_Blair.png"
4398,"P_M_boris_johnson.png","P_M_donald_trump.png","TRUE","pictures/stimuli/P","pictures/stimuli/P","M","M","4","595fa59caa841c00018d7225","05/06/2022, 10:54:19",-2.5486881758494,"27","Female","right",0,0,0,0,FALSE,"P_M_boris_johnson.png P_M_donald_trump.png"
10303,"P_M_bill_clinton.png","P_M_donald_trump.png","TRUE","pictures/stimuli/P","pictures/stimuli/P","M","M","5","595fa59caa841c00018d7225","05/06/2022, 10:54:19",-1.09448170914854,"27","Female","right",0,0,0,0,FALSE,"P_M_bill_clinton.png P_M_donald_trump.png"
7535,"E_F_jennifer_aniston.png","E_M_tom_hankes.png","TRUE","pictures/stimuli/E","pictures/stimuli/E","F","M","6","595fa59caa841c00018d7225","05/06/2022, 10:54:19",0.359724757552318,"27","Female","right",0,0,0,0,FALSE,"E_F_jennifer_aniston.png E_M_tom_hankes.png"
4503,"E_M_michael_caine.png","P_M_george_Wbush.png","FALSE","pictures/stimuli/E","pictures/stimuli/P","M","M","6","595fa59caa841c00018d7225","05/06/2022, 10:54:19",0.359724757552318,"27","Female","right",0,1,0,0,FALSE,"E_M_michael_caine.png P_M_george_Wbush.png"
12134,"P_F_nicola_sturgeon.png","P_M_boris_johnson.png","TRUE","pictures/stimuli/P","pictures/stimuli/P","F","M","6","595fa59caa841c00018d7225","05/06/2022, 10:54:19",0.359724757552318,"27","Female","right",1,0,0,0,FALSE,"P_F_nicola_sturgeon.png P_M_boris_johnson.png"
4854,"E_F_Judi_Dench.png","E_M_Hugh_Grant.png","TRUE","pictures/stimuli/E","pictures/stimuli/E","F","M","6","595fa59caa841c00018d7225","05/06/2022, 10:54:19",0.359724757552318,"27","Female","right",1,1,0,0,FALSE,"E_F_Judi_Dench.png E_M_Hugh_Grant.png"
3295,"E_M_nicolas_cage.png","P_F_hillary_clinton.png","FALSE","pictures/stimuli/E","pictures/stimuli/P","M","F","6","595fa59caa841c00018d7225","05/06/2022, 10:54:19",0.359724757552318,"27","Female","right",0,0,0,0,FALSE,"E_M_nicolas_cage.png P_F_hillary_clinton.png"
6791,"E_F_keira_knightley.png","P_M_bill_clinton.png","FALSE","pictures/stimuli/E","pictures/stimuli/P","F","M","6","595fa59caa841c00018d7225","05/06/2022, 10:54:19",0.359724757552318,"27","Female","right",1,0,0,0,FALSE,"E_F_keira_knightley.png P_M_bill_clinton.png"
5342,"E_M_michael_caine.png","P_F_hillary_clinton.png","FALSE","pictures/stimuli/E","pictures/stimuli/P","M","F","6","595fa59caa841c00018d7225","05/06/2022, 10:54:19",0.359724757552318,"27","Female","right",0,0,0,0,FALSE,"E_M_michael_caine.png P_F_hillary_clinton.png"
4318,"E_F_sandra_bullock.png","E_M_tom_hankes.png","TRUE","pictures/stimuli/E","pictures/stimuli/E","F","M","6","595fa59caa841c00018d7225","05/06/2022, 10:54:19",0.359724757552318,"27","Female","right",1,0,0,0,FALSE,"E_F_sandra_bullock.png E_M_tom_hankes.png"
4135,"E_F_Kate_Winslet.png","P_M_george_Wbush.png","FALSE","pictures/stimuli/E","pictures/stimuli/P","F","M","6","595fa59caa841c00018d7225","05/06/2022, 10:54:19",0.359724757552318,"27","Female","right",0,1,0,0,FALSE,"E_F_Kate_Winslet.png P_M_george_Wbush.png"
12831,"E_M_michael_caine.png","P_F_tehresy_may.png","FALSE","pictures/stimuli/E","pictures/stimuli/P","M","F","5","595fa59caa841c00018d7225","05/06/2022, 10:54:19",-1.09448170914854,"27","Female","right",0,0,0,0,FALSE,"E_M_michael_caine.png P_F_tehresy_may.png"
15215,"P_M_bill_clinton.png","P_M_david_cameron.png","TRUE","pictures/stimuli/P","pictures/stimuli/P","M","M","5","595fa59caa841c00018d7225","05/06/2022, 10:54:19",-1.09448170914854,"27","Female","right",0,0,0,0,FALSE,"P_M_bill_clinton.png P_M_david_cameron.png"
5543,"P_F_nicola_sturgeon.png","P_M_david_cameron.png","TRUE","pictures/stimuli/P","pictures/stimuli/P","F","M","6","595fa59caa841c00018d7225","05/06/2022, 10:54:19",0.359724757552318,"27","Female","right",1,0,0,0,FALSE,"P_F_nicola_sturgeon.png P_M_david_cameron.png"
4326,"E_M_tom_hankes.png","P_M_george_Wbush.png","FALSE","pictures/stimuli/E","pictures/stimuli/P","M","M","6","595fa59caa841c00018d7225","05/06/2022, 10:54:19",0.359724757552318,"27","Female","right",0,1,0,0,FALSE,"E_M_tom_hankes.png P_M_george_Wbush.png"
4286,"E_F_keira_knightley.png","E_M_michael_caine.png","TRUE","pictures/stimuli/E","pictures/stimuli/E","F","M","6","595fa59caa841c00018d7225","05/06/2022, 10:54:19",0.359724757552318,"27","Female","right",1,0,0,0,FALSE,"E_F_keira_knightley.png E_M_michael_caine.png"
6079,"E_M_robert_de_niro.png","P_M_boris_johnson.png","FALSE","pictures/stimuli/E","pictures/stimuli/P","M","M","6","595fa59caa841c00018d7225","05/06/2022, 10:54:19",0.359724757552318,"27","Female","right",1,0,0,0,FALSE,"E_M_robert_de_niro.png P_M_boris_johnson.png"
4133,"E_F_keira_knightley.png","E_M_nicolas_cage.png","TRUE","pictures/stimuli/E","pictures/stimuli/E","F","M","6","595fa59caa841c00018d7225","05/06/2022, 10:54:19",0.359724757552318,"27","Female","right",1,0,0,0,FALSE,"E_F_keira_knightley.png E_M_nicolas_cage.png"
4663,"P_M_boris_johnson.png","P_M_Tony_Blair.png","TRUE","pictures/stimuli/P","pictures/stimuli/P","M","M","6","595fa59caa841c00018d7225","05/06/2022, 10:54:19",0.359724757552318,"27","Female","right",0,0,0,0,FALSE,"P_M_boris_johnson.png P_M_Tony_Blair.png"
3559,"E_F_Judi_Dench.png","E_F_keira_knightley.png","TRUE","pictures/stimuli/E","pictures/stimuli/E","F","F","6","595fa59caa841c00018d7225","05/06/2022, 10:54:19",0.359724757552318,"27","Female","right",1,1,0,0,FALSE,"E_F_Judi_Dench.png E_F_keira_knightley.png"
3726,"P_F_hillary_clinton.png","P_M_Tony_Blair.png","TRUE","pictures/stimuli/P","pictures/stimuli/P","F","M","6","595fa59caa841c00018d7225","05/06/2022, 10:54:19",0.359724757552318,"27","Female","right",0,0,0,0,FALSE,"P_F_hillary_clinton.png P_M_Tony_Blair.png"
4271,"E_F_sandra_bullock.png","E_M_nicolas_cage.png","TRUE","pictures/stimuli/E","pictures/stimuli/E","F","M","6","595fa59caa841c00018d7225","05/06/2022, 10:54:19",0.359724757552318,"27","Female","right",1,0,0,0,FALSE,"E_F_sandra_bullock.png E_M_nicolas_cage.png"
4263,"E_F_angelina_jolie.png","P_M_boris_johnson.png","FALSE","pictures/stimuli/E","pictures/stimuli/P","F","M","6","595fa59caa841c00018d7225","05/06/2022, 10:54:19",0.359724757552318,"27","Female","right",0,0,0,0,FALSE,"E_F_angelina_jolie.png P_M_boris_johnson.png"
4335,"E_F_keira_knightley.png","P_F_nicola_sturgeon.png","FALSE","pictures/stimuli/E","pictures/stimuli/P","F","F","6","595fa59caa841c00018d7225","05/06/2022, 10:54:19",0.359724757552318,"27","Female","right",1,1,0,0,FALSE,"E_F_keira_knightley.png P_F_nicola_sturgeon.png"
5414,"E_F_angelina_jolie.png","E_F_jennifer_aniston.png","TRUE","pictures/stimuli/E","pictures/stimuli/E","F","F","6","595fa59caa841c00018d7225","05/06/2022, 10:54:19",0.359724757552318,"27","Female","right",0,0,0,0,FALSE,"E_F_angelina_jolie.png E_F_jennifer_aniston.png"
9046,"E_F_sandra_bullock.png","P_M_david_cameron.png","FALSE","pictures/stimuli/E","pictures/stimuli/P","F","M","6","595fa59caa841c00018d7225","05/06/2022, 10:54:19",0.359724757552318,"27","Female","right",1,0,0,0,FALSE,"E_F_sandra_bullock.png P_M_david_cameron.png"
5925,"E_F_jennifer_aniston.png","P_M_david_cameron.png","FALSE","pictures/stimuli/E","pictures/stimuli/P","F","M","6","595fa59caa841c00018d7225","05/06/2022, 10:54:19",0.359724757552318,"27","Female","right",0,0,0,0,FALSE,"E_F_jennifer_aniston.png P_M_david_cameron.png"
3967,"E_F_Judi_Dench.png","E_F_Kate_Winslet.png","TRUE","pictures/stimuli/E","pictures/stimuli/E","F","F","6","595fa59caa841c00018d7225","05/06/2022, 10:54:19",0.359724757552318,"27","Female","right",1,0,0,0,FALSE,"E_F_Judi_Dench.png E_F_Kate_Winslet.png"
3295,"E_F_keira_knightley.png","P_M_Tony_Blair.png","FALSE","pictures/stimuli/E","pictures/stimuli/P","F","M","6","595fa59caa841c00018d7225","05/06/2022, 10:54:19",0.359724757552318,"27","Female","right",1,0,0,0,FALSE,"E_F_keira_knightley.png P_M_Tony_Blair.png"
3662,"E_M_nicolas_cage.png","P_F_tehresy_may.png","FALSE","pictures/stimuli/E","pictures/stimuli/P","M","F","6","595fa59caa841c00018d7225","05/06/2022, 10:54:19",0.359724757552318,"27","Female","right",0,0,0,0,FALSE,"E_M_nicolas_cage.png P_F_tehresy_may.png"
7007,"E_M_robert_de_niro.png","P_M_bill_clinton.png","FALSE","pictures/stimuli/E","pictures/stimuli/P","M","M","3","595fa59caa841c00018d7225","05/06/2022, 10:54:19",-4.00289464255026,"27","Female","right",1,0,0,0,FALSE,"E_M_robert_de_niro.png P_M_bill_clinton.png"
2534,"E_M_robert_de_niro.png","P_F_hillary_clinton.png","FALSE","pictures/stimuli/E","pictures/stimuli/P","M","F","6","595fa59caa841c00018d7225","05/06/2022, 10:54:19",0.359724757552318,"27","Female","right",1,0,0,0,FALSE,"E_M_robert_de_niro.png P_F_hillary_clinton.png"
4070,"E_F_Judi_Dench.png","E_M_michael_caine.png","TRUE","pictures/stimuli/E","pictures/stimuli/E","F","M","6","595fa59caa841c00018d7225","05/06/2022, 10:54:19",0.359724757552318,"27","Female","right",1,0,0,0,FALSE,"E_F_Judi_Dench.png E_M_michael_caine.png"
17758,"E_F_Kate_Winslet.png","P_F_hillary_clinton.png","FALSE","pictures/stimuli/E","pictures/stimuli/P","F","F","4","595fa59caa841c00018d7225","05/06/2022, 10:54:19",-2.5486881758494,"27","Female","right",0,0,0,0,FALSE,"E_F_Kate_Winslet.png P_F_hillary_clinton.png"
3454,"E_F_Judi_Dench.png","P_F_nicola_sturgeon.png","FALSE","pictures/stimuli/E","pictures/stimuli/P","F","F","6","595fa59caa841c00018d7225","05/06/2022, 10:54:19",0.359724757552318,"27","Female","right",1,1,0,0,FALSE,"E_F_Judi_Dench.png P_F_nicola_sturgeon.png"
5247,"E_F_keira_knightley.png","P_M_donald_trump.png","FALSE","pictures/stimuli/E","pictures/stimuli/P","F","M","6","595fa59caa841c00018d7225","05/06/2022, 10:54:19",0.359724757552318,"27","Female","right",1,0,0,0,FALSE,"E_F_keira_knightley.png P_M_donald_trump.png"
3846,"E_F_jennifer_aniston.png","P_F_nicola_sturgeon.png","FALSE","pictures/stimuli/E","pictures/stimuli/P","F","F","6","595fa59caa841c00018d7225","05/06/2022, 10:54:19",0.359724757552318,"27","Female","right",0,1,0,0,FALSE,"E_F_jennifer_aniston.png P_F_nicola_sturgeon.png"
5590,"E_F_Kate_Winslet.png","E_M_michael_caine.png","TRUE","pictures/stimuli/E","pictures/stimuli/E","F","M","6","595fa59caa841c00018d7225","05/06/2022, 10:54:19",0.359724757552318,"27","Female","right",0,0,0,0,FALSE,"E_F_Kate_Winslet.png E_M_michael_caine.png"
12583,"E_M_Hugh_Grant.png","P_M_boris_johnson.png","FALSE","pictures/stimuli/E","pictures/stimuli/P","M","M","4","595fa59caa841c00018d7225","05/06/2022, 10:54:19",-2.5486881758494,"27","Female","right",1,0,0,0,FALSE,"E_M_Hugh_Grant.png P_M_boris_johnson.png"
2055,"E_F_keira_knightley.png","P_M_george_Wbush.png","FALSE","pictures/stimuli/E","pictures/stimuli/P","F","M","6","595fa59caa841c00018d7225","05/06/2022, 10:54:19",0.359724757552318,"27","Female","right",1,1,0,0,FALSE,"E_F_keira_knightley.png P_M_george_Wbush.png"
8198,"P_F_tehresy_may.png","P_M_boris_johnson.png","TRUE","pictures/stimuli/P","pictures/stimuli/P","F","M","6","595fa59caa841c00018d7225","05/06/2022, 10:54:19",0.359724757552318,"27","Female","right",0,0,0,0,FALSE,"P_F_tehresy_may.png P_M_boris_johnson.png"
11767,"P_F_hillary_clinton.png","P_F_tehresy_may.png","TRUE","pictures/stimuli/P","pictures/stimuli/P","F","F","4","595fa59caa841c00018d7225","05/06/2022, 10:54:19",-2.5486881758494,"27","Female","right",0,0,0,0,FALSE,"P_F_hillary_clinton.png P_F_tehresy_may.png"
3381,"E_F_jennifer_aniston.png","P_M_donald_trump.png","FALSE","pictures/stimuli/E","pictures/stimuli/P","F","M","6","595fa59caa841c00018d7225","05/06/2022, 10:54:19",0.359724757552318,"27","Female","right",0,0,0,0,FALSE,"E_F_jennifer_aniston.png P_M_donald_trump.png"
3263,"E_M_nicolas_cage.png","P_M_boris_johnson.png","FALSE","pictures/stimuli/E","pictures/stimuli/P","M","M","6","595fa59caa841c00018d7225","05/06/2022, 10:54:19",0.359724757552318,"27","Female","right",0,0,0,0,FALSE,"E_M_nicolas_cage.png P_M_boris_johnson.png"
3382,"P_M_donald_trump.png","P_M_george_Wbush.png","TRUE","pictures/stimuli/P","pictures/stimuli/P","M","M","6","595fa59caa841c00018d7225","05/06/2022, 10:54:19",0.359724757552318,"27","Female","right",0,1,0,0,FALSE,"P_M_donald_trump.png P_M_george_Wbush.png"
2806,"E_F_Kate_Winslet.png","P_M_donald_trump.png","FALSE","pictures/stimuli/E","pictures/stimuli/P","F","M","6","595fa59caa841c00018d7225","05/06/2022, 10:54:19",0.359724757552318,"27","Female","right",0,0,0,0,FALSE,"E_F_Kate_Winslet.png P_M_donald_trump.png"
4991,"E_F_Judi_Dench.png","P_M_donald_trump.png","FALSE","pictures/stimuli/E","pictures/stimuli/P","F","M","5","595fa59caa841c00018d7225","05/06/2022, 10:54:19",-1.09448170914854,"27","Female","right",1,0,0,0,FALSE,"E_F_Judi_Dench.png P_M_donald_trump.png"
3687,"P_F_tehresy_may.png","P_M_bill_clinton.png","TRUE","pictures/stimuli/P","pictures/stimuli/P","F","M","6","595fa59caa841c00018d7225","05/06/2022, 10:54:19",0.359724757552318,"27","Female","right",0,0,0,0,FALSE,"P_F_tehresy_may.png P_M_bill_clinton.png"
2247,"E_F_angelina_jolie.png","P_M_donald_trump.png","FALSE","pictures/stimuli/E","pictures/stimuli/P","F","M","6","595fa59caa841c00018d7225","05/06/2022, 10:54:19",0.359724757552318,"27","Female","right",0,0,0,0,FALSE,"E_F_angelina_jolie.png P_M_donald_trump.png"
3086,"E_M_Hugh_Grant.png","P_M_george_Wbush.png","FALSE","pictures/stimuli/E","pictures/stimuli/P","M","M","6","595fa59caa841c00018d7225","05/06/2022, 10:54:19",0.359724757552318,"27","Female","right",1,1,0,0,FALSE,"E_M_Hugh_Grant.png P_M_george_Wbush.png"
5534,"E_M_michael_caine.png","P_M_bill_clinton.png","FALSE","pictures/stimuli/E","pictures/stimuli/P","M","M","6","595fa59caa841c00018d7225","05/06/2022, 10:54:19",0.359724757552318,"27","Female","right",0,0,0,0,FALSE,"E_M_michael_caine.png P_M_bill_clinton.png"
3854,"E_M_tom_hankes.png","P_F_nicola_sturgeon.png","FALSE","pictures/stimuli/E","pictures/stimuli/P","M","F","6","595fa59caa841c00018d7225","05/06/2022, 10:54:19",0.359724757552318,"27","Female","right",0,1,0,0,FALSE,"E_M_tom_hankes.png P_F_nicola_sturgeon.png"
3719,"P_F_tehresy_may.png","P_M_Tony_Blair.png","TRUE","pictures/stimuli/P","pictures/stimuli/P","F","M","6","595fa59caa841c00018d7225","05/06/2022, 10:54:19",0.359724757552318,"27","Female","right",0,0,0,0,FALSE,"P_F_tehresy_may.png P_M_Tony_Blair.png"
7471,"E_F_Judi_Dench.png","P_M_boris_johnson.png","FALSE","pictures/stimuli/E","pictures/stimuli/P","F","M","6","595fa59caa841c00018d7225","05/06/2022, 10:54:19",0.359724757552318,"27","Female","right",1,0,0,0,FALSE,"E_F_Judi_Dench.png P_M_boris_johnson.png"
2958,"E_F_Judi_Dench.png","E_M_robert_de_niro.png","TRUE","pictures/stimuli/E","pictures/stimuli/E","F","M","6","595fa59caa841c00018d7225","05/06/2022, 10:54:19",0.359724757552318,"27","Female","right",1,1,0,0,FALSE,"E_F_Judi_Dench.png E_M_robert_de_niro.png"
4119,"E_M_Hugh_Grant.png","P_M_Tony_Blair.png","FALSE","pictures/stimuli/E","pictures/stimuli/P","M","M","6","595fa59caa841c00018d7225","05/06/2022, 10:54:19",0.359724757552318,"27","Female","right",1,0,0,0,FALSE,"E_M_Hugh_Grant.png P_M_Tony_Blair.png"
5023,"E_F_sandra_bullock.png","E_M_robert_de_niro.png","TRUE","pictures/stimuli/E","pictures/stimuli/E","F","M","6","595fa59caa841c00018d7225","05/06/2022, 10:54:19",0.359724757552318,"27","Female","right",1,1,0,0,FALSE,"E_F_sandra_bullock.png E_M_robert_de_niro.png"
6406,"E_F_jennifer_aniston.png","E_F_Kate_Winslet.png","TRUE","pictures/stimuli/E","pictures/stimuli/E","F","F","4","595fa59caa841c00018d7225","05/06/2022, 10:54:19",-2.5486881758494,"27","Female","right",0,0,0,0,FALSE,"E_F_jennifer_aniston.png E_F_Kate_Winslet.png"
3319,"E_M_Hugh_Grant.png","E_M_robert_de_niro.png","TRUE","pictures/stimuli/E","pictures/stimuli/E","M","M","6","595fa59caa841c00018d7225","05/06/2022, 10:54:19",0.359724757552318,"27","Female","right",1,1,0,0,FALSE,"E_M_Hugh_Grant.png E_M_robert_de_niro.png"
3047,"E_F_jennifer_aniston.png","E_F_Judi_Dench.png","TRUE","pictures/stimuli/E","pictures/stimuli/E","F","F","6","595fa59caa841c00018d7225","05/06/2022, 10:54:19",0.359724757552318,"27","Female","right",0,1,0,0,FALSE,"E_F_jennifer_aniston.png E_F_Judi_Dench.png"
3982,"P_F_hillary_clinton.png","P_F_nicola_sturgeon.png","TRUE","pictures/stimuli/P","pictures/stimuli/P","F","F","6","595fa59caa841c00018d7225","05/06/2022, 10:54:19",0.359724757552318,"27","Female","right",0,1,0,0,FALSE,"P_F_hillary_clinton.png P_F_nicola_sturgeon.png"
3071,"E_F_keira_knightley.png","E_M_robert_de_niro.png","TRUE","pictures/stimuli/E","pictures/stimuli/E","F","M","6","595fa59caa841c00018d7225","05/06/2022, 10:54:19",0.359724757552318,"27","Female","right",1,1,0,0,FALSE,"E_F_keira_knightley.png E_M_robert_de_niro.png"
4646,"E_M_Hugh_Grant.png","P_F_tehresy_may.png","FALSE","pictures/stimuli/E","pictures/stimuli/P","M","F","6","595fa59caa841c00018d7225","05/06/2022, 10:54:19",0.359724757552318,"27","Female","right",1,0,0,0,FALSE,"E_M_Hugh_Grant.png P_F_tehresy_may.png"
4887,"E_M_Hugh_Grant.png","E_M_michael_caine.png","TRUE","pictures/stimuli/E","pictures/stimuli/E","M","M","6","595fa59caa841c00018d7225","05/06/2022, 10:54:19",0.359724757552318,"27","Female","right",1,0,0,0,FALSE,"E_M_Hugh_Grant.png E_M_michael_caine.png"
2031,"P_F_hillary_clinton.png","P_M_donald_trump.png","TRUE","pictures/stimuli/P","pictures/stimuli/P","F","M","6","595fa59caa841c00018d7225","05/06/2022, 10:54:19",0.359724757552318,"27","Female","right",0,0,0,0,FALSE,"P_F_hillary_clinton.png P_M_donald_trump.png"
4623,"E_M_nicolas_cage.png","P_M_donald_trump.png","FALSE","pictures/stimuli/E","pictures/stimuli/P","M","M","6","595fa59caa841c00018d7225","05/06/2022, 10:54:19",0.359724757552318,"27","Female","right",0,0,0,0,FALSE,"E_M_nicolas_cage.png P_M_donald_trump.png"
3047,"E_F_sandra_bullock.png","P_M_donald_trump.png","FALSE","pictures/stimuli/E","pictures/stimuli/P","F","M","6","595fa59caa841c00018d7225","05/06/2022, 10:54:19",0.359724757552318,"27","Female","right",1,0,0,0,FALSE,"E_F_sandra_bullock.png P_M_donald_trump.png"
3534,"E_M_tom_hankes.png","P_F_hillary_clinton.png","FALSE","pictures/stimuli/E","pictures/stimuli/P","M","F","6","595fa59caa841c00018d7225","05/06/2022, 10:54:19",0.359724757552318,"27","Female","right",0,0,0,0,FALSE,"E_M_tom_hankes.png P_F_hillary_clinton.png"
3159,"E_F_jennifer_aniston.png","P_M_boris_johnson.png","FALSE","pictures/stimuli/E","pictures/stimuli/P","F","M","6","595fa59caa841c00018d7225","05/06/2022, 10:54:19",0.359724757552318,"27","Female","right",0,0,0,0,FALSE,"E_F_jennifer_aniston.png P_M_boris_johnson.png"
3334,"P_F_tehresy_may.png","P_M_david_cameron.png","TRUE","pictures/stimuli/P","pictures/stimuli/P","F","M","6","595fa59caa841c00018d7225","05/06/2022, 10:54:19",0.359724757552318,"27","Female","right",0,0,0,0,FALSE,"P_F_tehresy_may.png P_M_david_cameron.png"
3103,"E_M_michael_caine.png","P_M_donald_trump.png","FALSE","pictures/stimuli/E","pictures/stimuli/P","M","M","5","595fa59caa841c00018d7225","05/06/2022, 10:54:19",-1.09448170914854,"27","Female","right",0,0,0,0,FALSE,"E_M_michael_caine.png P_M_donald_trump.png"
9326,"P_M_boris_johnson.png","P_M_david_cameron.png","TRUE","pictures/stimuli/P","pictures/stimuli/P","M","M","5","595fa59caa841c00018d7225","05/06/2022, 10:54:19",-1.09448170914854,"27","Female","right",0,0,0,0,FALSE,"P_M_boris_johnson.png P_M_david_cameron.png"
3597,"E_F_angelina_jolie.png","P_M_david_cameron.png","FALSE","pictures/stimuli/E","pictures/stimuli/P","F","M","6","595fa59caa841c00018d7225","05/06/2022, 10:54:19",0.359724757552318,"27","Female","right",0,0,0,0,FALSE,"E_F_angelina_jolie.png P_M_david_cameron.png"
4182,"E_M_nicolas_cage.png","P_M_Tony_Blair.png","FALSE","pictures/stimuli/E","pictures/stimuli/P","M","M","6","595fa59caa841c00018d7225","05/06/2022, 10:54:19",0.359724757552318,"27","Female","right",0,0,0,0,FALSE,"E_M_nicolas_cage.png P_M_Tony_Blair.png"
3679,"E_F_jennifer_aniston.png","E_M_nicolas_cage.png","TRUE","pictures/stimuli/E","pictures/stimuli/E","F","M","6","595fa59caa841c00018d7225","05/06/2022, 10:54:19",0.359724757552318,"27","Female","right",0,0,0,0,FALSE,"E_F_jennifer_aniston.png E_M_nicolas_cage.png"
6774,"E_F_sandra_bullock.png","P_F_nicola_sturgeon.png","FALSE","pictures/stimuli/E","pictures/stimuli/P","F","F","6","595fa59caa841c00018d7225","05/06/2022, 10:54:19",0.359724757552318,"27","Female","right",1,1,0,0,FALSE,"E_F_sandra_bullock.png P_F_nicola_sturgeon.png"
3655,"E_F_jennifer_aniston.png","P_M_Tony_Blair.png","FALSE","pictures/stimuli/E","pictures/stimuli/P","F","M","6","595fa59caa841c00018d7225","05/06/2022, 10:54:19",0.359724757552318,"27","Female","right",0,0,0,0,FALSE,"E_F_jennifer_aniston.png P_M_Tony_Blair.png"
12462,"P_M_donald_trump.png","P_M_Tony_Blair.png","TRUE","pictures/stimuli/P","pictures/stimuli/P","M","M","5","595fa59caa841c00018d7225","05/06/2022, 10:54:19",-1.09448170914854,"27","Female","right",0,0,0,0,FALSE,"P_M_donald_trump.png P_M_Tony_Blair.png"
7535,"E_M_tom_hankes.png","P_M_david_cameron.png","FALSE","pictures/stimuli/E","pictures/stimuli/P","M","M","3","595fa59caa841c00018d7225","05/06/2022, 10:54:19",-4.00289464255026,"27","Female","right",0,0,0,0,FALSE,"E_M_tom_hankes.png P_M_david_cameron.png"
2062,"P_F_hillary_clinton.png","P_M_david_cameron.png","TRUE","pictures/stimuli/P","pictures/stimuli/P","F","M","6","595fa59caa841c00018d7225","05/06/2022, 10:54:19",0.359724757552318,"27","Female","right",0,0,0,0,FALSE,"P_F_hillary_clinton.png P_M_david_cameron.png"
5383,"E_F_angelina_jolie.png","P_F_nicola_sturgeon.png","FALSE","pictures/stimuli/E","pictures/stimuli/P","F","F","6","595fa59caa841c00018d7225","05/06/2022, 10:54:19",0.359724757552318,"27","Female","right",0,1,0,0,FALSE,"E_F_angelina_jolie.png P_F_nicola_sturgeon.png"
2471,"E_F_angelina_jolie.png","E_F_Judi_Dench.png","TRUE","pictures/stimuli/E","pictures/stimuli/E","F","F","6","595fa59caa841c00018d7225","05/06/2022, 10:54:19",0.359724757552318,"27","Female","right",0,1,0,0,FALSE,"E_F_angelina_jolie.png E_F_Judi_Dench.png"
1765,"E_F_Kate_Winslet.png","E_M_nicolas_cage.png","TRUE","pictures/stimuli/E","pictures/stimuli/E","F","M","6","595fa59caa841c00018d7225","05/06/2022, 10:54:19",0.359724757552318,"27","Female","right",0,0,0,0,FALSE,"E_F_Kate_Winslet.png E_M_nicolas_cage.png"
4598,"P_M_bill_clinton.png","P_M_Tony_Blair.png","TRUE","pictures/stimuli/P","pictures/stimuli/P","M","M","6","595fa59caa841c00018d7225","05/06/2022, 10:54:19",0.359724757552318,"27","Female","right",0,0,0,0,FALSE,"P_M_bill_clinton.png P_M_Tony_Blair.png"
4087,"E_M_Hugh_Grant.png","P_M_donald_trump.png","FALSE","pictures/stimuli/E","pictures/stimuli/P","M","M","6","595fa59caa841c00018d7225","05/06/2022, 10:54:19",0.359724757552318,"27","Female","right",1,0,0,0,FALSE,"E_M_Hugh_Grant.png P_M_donald_trump.png"
6694,"E_F_keira_knightley.png","P_M_david_cameron.png","FALSE","pictures/stimuli/E","pictures/stimuli/P","F","M","6","595fa59caa841c00018d7225","05/06/2022, 10:54:19",0.359724757552318,"27","Female","right",1,0,0,0,FALSE,"E_F_keira_knightley.png P_M_david_cameron.png"
2326,"E_F_Kate_Winslet.png","P_M_david_cameron.png","FALSE","pictures/stimuli/E","pictures/stimuli/P","F","M","6","595fa59caa841c00018d7225","05/06/2022, 10:54:19",0.359724757552318,"27","Female","right",0,0,0,0,FALSE,"E_F_Kate_Winslet.png P_M_david_cameron.png"
2663,"E_M_tom_hankes.png","P_M_donald_trump.png","FALSE","pictures/stimuli/E","pictures/stimuli/P","M","M","6","595fa59caa841c00018d7225","05/06/2022, 10:54:19",0.359724757552318,"27","Female","right",0,0,0,0,FALSE,"E_M_tom_hankes.png P_M_donald_trump.png"
5726,"E_F_keira_knightley.png","E_M_Hugh_Grant.png","TRUE","pictures/stimuli/E","pictures/stimuli/E","F","M","6","595fa59caa841c00018d7225","05/06/2022, 10:54:19",0.359724757552318,"27","Female","right",1,1,0,0,FALSE,"E_F_keira_knightley.png E_M_Hugh_Grant.png"
3214,"P_M_boris_johnson.png","P_M_george_Wbush.png","TRUE","pictures/stimuli/P","pictures/stimuli/P","M","M","6","595fa59caa841c00018d7225","05/06/2022, 10:54:19",0.359724757552318,"27","Female","right",0,1,0,0,FALSE,"P_M_boris_johnson.png P_M_george_Wbush.png"
2798,"P_F_nicola_sturgeon.png","P_M_Tony_Blair.png","TRUE","pictures/stimuli/P","pictures/stimuli/P","F","M","6","595fa59caa841c00018d7225","05/06/2022, 10:54:19",0.359724757552318,"27","Female","right",1,0,0,0,FALSE,"P_F_nicola_sturgeon.png P_M_Tony_Blair.png"
5030,"E_F_sandra_bullock.png","P_M_Tony_Blair.png","FALSE","pictures/stimuli/E","pictures/stimuli/P","F","M","6","595fa59caa841c00018d7225","05/06/2022, 10:54:19",0.359724757552318,"27","Female","right",1,0,0,0,FALSE,"E_F_sandra_bullock.png P_M_Tony_Blair.png"
3718,"E_M_michael_caine.png","E_M_tom_hankes.png","TRUE","pictures/stimuli/E","pictures/stimuli/E","M","M","6","595fa59caa841c00018d7225","05/06/2022, 10:54:19",0.359724757552318,"27","Female","right",0,0,0,0,FALSE,"E_M_michael_caine.png E_M_tom_hankes.png"
4766,"E_M_robert_de_niro.png","P_M_george_Wbush.png","FALSE","pictures/stimuli/E","pictures/stimuli/P","M","M","6","595fa59caa841c00018d7225","05/06/2022, 10:54:19",0.359724757552318,"27","Female","right",1,1,0,0,FALSE,"E_M_robert_de_niro.png P_M_george_Wbush.png"
4717,"E_F_Kate_Winslet.png","E_F_sandra_bullock.png","TRUE","pictures/stimuli/E","pictures/stimuli/E","F","F","6","595fa59caa841c00018d7225","05/06/2022, 10:54:19",0.359724757552318,"27","Female","right",0,1,0,0,FALSE,"E_F_Kate_Winslet.png E_F_sandra_bullock.png"
13141,"E_M_Hugh_Grant.png","P_M_bill_clinton.png","FALSE","pictures/stimuli/E","pictures/stimuli/P","M","M","5","595fa59caa841c00018d7225","05/06/2022, 10:54:19",-1.09448170914854,"27","Female","right",1,0,0,0,FALSE,"E_M_Hugh_Grant.png P_M_bill_clinton.png"
3182,"E_M_nicolas_cage.png","P_M_bill_clinton.png","FALSE","pictures/stimuli/E","pictures/stimuli/P","M","M","6","595fa59caa841c00018d7225","05/06/2022, 10:54:19",0.359724757552318,"27","Female","right",0,0,0,0,FALSE,"E_M_nicolas_cage.png P_M_bill_clinton.png"
1839,"E_F_keira_knightley.png","P_F_hillary_clinton.png","FALSE","pictures/stimuli/E","pictures/stimuli/P","F","F","6","595fa59caa841c00018d7225","05/06/2022, 10:54:19",0.359724757552318,"27","Female","right",1,0,0,0,FALSE,"E_F_keira_knightley.png P_F_hillary_clinton.png"
2175,"E_M_Hugh_Grant.png","E_M_nicolas_cage.png","TRUE","pictures/stimuli/E","pictures/stimuli/E","M","M","6","595fa59caa841c00018d7225","05/06/2022, 10:54:19",0.359724757552318,"27","Female","right",1,0,0,0,FALSE,"E_M_Hugh_Grant.png E_M_nicolas_cage.png"
2527,"E_F_keira_knightley.png","P_F_tehresy_may.png","FALSE","pictures/stimuli/E","pictures/stimuli/P","F","F","6","595fa59caa841c00018d7225","05/06/2022, 10:54:19",0.359724757552318,"27","Female","right",1,0,0,0,FALSE,"E_F_keira_knightley.png P_F_tehresy_may.png"
4254,"E_M_robert_de_niro.png","P_M_Tony_Blair.png","FALSE","pictures/stimuli/E","pictures/stimuli/P","M","M","5","595fa59caa841c00018d7225","05/06/2022, 10:54:19",-1.09448170914854,"27","Female","right",1,0,0,0,FALSE,"E_M_robert_de_niro.png P_M_Tony_Blair.png"
2326,"E_F_keira_knightley.png","P_M_boris_johnson.png","FALSE","pictures/stimuli/E","pictures/stimuli/P","F","M","6","595fa59caa841c00018d7225","05/06/2022, 10:54:19",0.359724757552318,"27","Female","right",1,0,0,0,FALSE,"E_F_keira_knightley.png P_M_boris_johnson.png"
3295,"P_F_nicola_sturgeon.png","P_M_george_Wbush.png","TRUE","pictures/stimuli/P","pictures/stimuli/P","F","M","6","595fa59caa841c00018d7225","05/06/2022, 10:54:19",0.359724757552318,"27","Female","right",1,1,0,0,FALSE,"P_F_nicola_sturgeon.png P_M_george_Wbush.png"
5887,"E_F_sandra_bullock.png","P_F_tehresy_may.png","FALSE","pictures/stimuli/E","pictures/stimuli/P","F","F","6","595fa59caa841c00018d7225","05/06/2022, 10:54:19",0.359724757552318,"27","Female","right",1,0,0,0,FALSE,"E_F_sandra_bullock.png P_F_tehresy_may.png"
8678,"E_M_robert_de_niro.png","P_M_david_cameron.png","FALSE","pictures/stimuli/E","pictures/stimuli/P","M","M","6","595fa59caa841c00018d7225","05/06/2022, 10:54:19",0.359724757552318,"27","Female","right",1,0,0,0,FALSE,"E_M_robert_de_niro.png P_M_david_cameron.png"
3262,"P_M_george_Wbush.png","P_M_Tony_Blair.png","TRUE","pictures/stimuli/P","pictures/stimuli/P","M","M","6","595fa59caa841c00018d7225","05/06/2022, 10:54:19",0.359724757552318,"27","Female","right",1,0,0,0,FALSE,"P_M_george_Wbush.png P_M_Tony_Blair.png"
3366,"E_F_angelina_jolie.png","P_M_bill_clinton.png","FALSE","pictures/stimuli/E","pictures/stimuli/P","F","M","6","595fa59caa841c00018d7225","05/06/2022, 10:54:19",0.359724757552318,"27","Female","right",0,0,0,0,FALSE,"E_F_angelina_jolie.png P_M_bill_clinton.png"
3214,"E_F_Judi_Dench.png","P_M_george_Wbush.png","FALSE","pictures/stimuli/E","pictures/stimuli/P","F","M","6","595fa59caa841c00018d7225","05/06/2022, 10:54:19",0.359724757552318,"27","Female","right",1,1,0,0,FALSE,"E_F_Judi_Dench.png P_M_george_Wbush.png"
2639,"E_F_keira_knightley.png","E_M_tom_hankes.png","TRUE","pictures/stimuli/E","pictures/stimuli/E","F","M","6","595fa59caa841c00018d7225","05/06/2022, 10:54:19",0.359724757552318,"27","Female","right",1,0,0,0,FALSE,"E_F_keira_knightley.png E_M_tom_hankes.png"
3326,"E_F_Kate_Winslet.png","P_M_bill_clinton.png","FALSE","pictures/stimuli/E","pictures/stimuli/P","F","M","6","595fa59caa841c00018d7225","05/06/2022, 10:54:19",0.359724757552318,"27","Female","right",0,0,0,0,FALSE,"E_F_Kate_Winslet.png P_M_bill_clinton.png"
2639,"P_F_hillary_clinton.png","P_M_boris_johnson.png","TRUE","pictures/stimuli/P","pictures/stimuli/P","F","M","6","595fa59caa841c00018d7225","05/06/2022, 10:54:19",0.359724757552318,"27","Female","right",0,0,0,0,FALSE,"P_F_hillary_clinton.png P_M_boris_johnson.png"
2694,"E_F_Kate_Winslet.png","E_M_tom_hankes.png","TRUE","pictures/stimuli/E","pictures/stimuli/E","F","M","6","595fa59caa841c00018d7225","05/06/2022, 10:54:19",0.359724757552318,"27","Female","right",0,0,0,0,FALSE,"E_F_Kate_Winslet.png E_M_tom_hankes.png"
3295,"E_M_nicolas_cage.png","E_M_robert_de_niro.png","TRUE","pictures/stimuli/E","pictures/stimuli/E","M","M","6","595fa59caa841c00018d7225","05/06/2022, 10:54:19",0.359724757552318,"27","Female","right",0,1,0,0,FALSE,"E_M_nicolas_cage.png E_M_robert_de_niro.png"
2631,"E_F_Kate_Winslet.png","P_F_nicola_sturgeon.png","FALSE","pictures/stimuli/E","pictures/stimuli/P","F","F","6","595fa59caa841c00018d7225","05/06/2022, 10:54:19",0.359724757552318,"27","Female","right",0,1,0,0,FALSE,"E_F_Kate_Winslet.png P_F_nicola_sturgeon.png"
3862,"E_M_robert_de_niro.png","P_M_donald_trump.png","FALSE","pictures/stimuli/E","pictures/stimuli/P","M","M","6","595fa59caa841c00018d7225","05/06/2022, 10:54:19",0.359724757552318,"27","Female","right",1,0,0,0,FALSE,"E_M_robert_de_niro.png P_M_donald_trump.png"
5022,"P_M_david_cameron.png","P_M_george_Wbush.png","TRUE","pictures/stimuli/P","pictures/stimuli/P","M","M","6","595fa59caa841c00018d7225","05/06/2022, 10:54:19",0.359724757552318,"27","Female","right",0,1,0,0,FALSE,"P_M_david_cameron.png P_M_george_Wbush.png"
4495,"E_M_nicolas_cage.png","E_M_tom_hankes.png","TRUE","pictures/stimuli/E","pictures/stimuli/E","M","M","6","595fa59caa841c00018d7225","05/06/2022, 10:54:19",0.359724757552318,"27","Female","right",0,0,0,0,FALSE,"E_M_nicolas_cage.png E_M_tom_hankes.png"
5173,"E_M_tom_hankes.png","P_M_Tony_Blair.png","FALSE","pictures/stimuli/E","pictures/stimuli/P","M","M","6","595fa59caa841c00018d7225","05/06/2022, 10:54:19",0.359724757552318,"27","Female","right",0,0,0,0,FALSE,"E_M_tom_hankes.png P_M_Tony_Blair.png"
4303,"E_M_michael_caine.png","E_M_nicolas_cage.png","TRUE","pictures/stimuli/E","pictures/stimuli/E","M","M","6","595fa59caa841c00018d7225","05/06/2022, 10:54:19",0.359724757552318,"27","Female","right",0,0,0,0,FALSE,"E_M_michael_caine.png E_M_nicolas_cage.png"
5118,"E_M_tom_hankes.png","P_M_bill_clinton.png","FALSE","pictures/stimuli/E","pictures/stimuli/P","M","M","5","595fa59caa841c00018d7225","05/06/2022, 10:54:19",-1.09448170914854,"27","Female","right",0,0,0,0,FALSE,"E_M_tom_hankes.png P_M_bill_clinton.png"
2591,"E_F_Judi_Dench.png","P_F_hillary_clinton.png","FALSE","pictures/stimuli/E","pictures/stimuli/P","F","F","6","595fa59caa841c00018d7225","05/06/2022, 10:54:19",0.359724757552318,"27","Female","right",1,0,0,0,FALSE,"E_F_Judi_Dench.png P_F_hillary_clinton.png"
14078,"E_M_robert_de_niro.png","E_M_tom_hankes.png","TRUE","pictures/stimuli/E","pictures/stimuli/E","M","M","4","595fa59caa841c00018d7225","05/06/2022, 10:54:19",-2.5486881758494,"27","Female","right",1,0,0,0,FALSE,"E_M_robert_de_niro.png E_M_tom_hankes.png"
2167,"E_M_nicolas_cage.png","P_F_nicola_sturgeon.png","FALSE","pictures/stimuli/E","pictures/stimuli/P","M","F","6","595fa59caa841c00018d7225","05/06/2022, 10:54:19",0.359724757552318,"27","Female","right",0,1,0,0,FALSE,"E_M_nicolas_cage.png P_F_nicola_sturgeon.png"
6839,"P_F_hillary_clinton.png","P_M_george_Wbush.png","TRUE","pictures/stimuli/P","pictures/stimuli/P","F","M","6","595fa59caa841c00018d7225","05/06/2022, 10:54:19",0.359724757552318,"27","Female","right",0,1,0,0,FALSE,"P_F_hillary_clinton.png P_M_george_Wbush.png"
2383,"E_F_Judi_Dench.png","P_F_tehresy_may.png","FALSE","pictures/stimuli/E","pictures/stimuli/P","F","F","6","595fa59caa841c00018d7225","05/06/2022, 10:54:19",0.359724757552318,"27","Female","right",1,0,0,0,FALSE,"E_F_Judi_Dench.png P_F_tehresy_may.png"
1901,"E_M_michael_caine.png","P_M_david_cameron.png","FALSE","pictures/stimuli/E","pictures/stimuli/P","M","M","6","595fa59caa841c00018d7225","05/06/2022, 10:54:19",0.359724757552318,"27","Female","right",0,0,0,0,FALSE,"E_M_michael_caine.png P_M_david_cameron.png"
2751,"E_M_nicolas_cage.png","P_M_david_cameron.png","FALSE","pictures/stimuli/E","pictures/stimuli/P","M","M","6","595fa59caa841c00018d7225","05/06/2022, 10:54:19",0.359724757552318,"27","Female","right",0,0,0,0,FALSE,"E_M_nicolas_cage.png P_M_david_cameron.png"
2670,"E_M_michael_caine.png","P_M_Tony_Blair.png","FALSE","pictures/stimuli/E","pictures/stimuli/P","M","M","6","595fa59caa841c00018d7225","05/06/2022, 10:54:19",0.359724757552318,"27","Female","right",0,0,0,0,FALSE,"E_M_michael_caine.png P_M_Tony_Blair.png"
2678,"P_F_tehresy_may.png","P_M_george_Wbush.png","TRUE","pictures/stimuli/P","pictures/stimuli/P","F","M","6","595fa59caa841c00018d7225","05/06/2022, 10:54:19",0.359724757552318,"27","Female","right",0,1,0,0,FALSE,"P_F_tehresy_may.png P_M_george_Wbush.png"
2311,"E_M_nicolas_cage.png","P_M_george_Wbush.png","FALSE","pictures/stimuli/E","pictures/stimuli/P","M","M","6","595fa59caa841c00018d7225","05/06/2022, 10:54:19",0.359724757552318,"27","Female","right",0,1,0,0,FALSE,"E_M_nicolas_cage.png P_M_george_Wbush.png"
2294,"E_F_sandra_bullock.png","E_M_michael_caine.png","TRUE","pictures/stimuli/E","pictures/stimuli/E","F","M","6","595fa59caa841c00018d7225","05/06/2022, 10:54:19",0.359724757552318,"27","Female","right",1,0,0,0,FALSE,"E_F_sandra_bullock.png E_M_michael_caine.png"
2006,"E_F_sandra_bullock.png","P_M_bill_clinton.png","FALSE","pictures/stimuli/E","pictures/stimuli/P","F","M","6","595fa59caa841c00018d7225","05/06/2022, 10:54:19",0.359724757552318,"27","Female","right",1,0,0,0,FALSE,"E_F_sandra_bullock.png P_M_bill_clinton.png"
2183,"E_F_Judi_Dench.png","P_M_david_cameron.png","FALSE","pictures/stimuli/E","pictures/stimuli/P","F","M","6","595fa59caa841c00018d7225","05/06/2022, 10:54:19",0.359724757552318,"27","Female","right",1,0,0,0,FALSE,"E_F_Judi_Dench.png P_M_david_cameron.png"
2023,"E_M_Hugh_Grant.png","P_F_hillary_clinton.png","FALSE","pictures/stimuli/E","pictures/stimuli/P","M","F","6","595fa59caa841c00018d7225","05/06/2022, 10:54:19",0.359724757552318,"27","Female","right",1,0,0,0,FALSE,"E_M_Hugh_Grant.png P_F_hillary_clinton.png"
4062,"E_F_angelina_jolie.png","P_M_Tony_Blair.png","FALSE","pictures/stimuli/E","pictures/stimuli/P","F","M","6","595fa59caa841c00018d7225","05/06/2022, 10:54:19",0.359724757552318,"27","Female","right",0,0,0,0,FALSE,"E_F_angelina_jolie.png P_M_Tony_Blair.png"
9590,"E_F_Kate_Winslet.png","E_F_keira_knightley.png","TRUE","pictures/stimuli/E","pictures/stimuli/E","F","F","4","595fa59caa841c00018d7225","05/06/2022, 10:54:19",-2.5486881758494,"27","Female","right",0,1,0,0,FALSE,"E_F_Kate_Winslet.png E_F_keira_knightley.png"
6366,"E_F_angelina_jolie.png","E_F_sandra_bullock.png","TRUE","pictures/stimuli/E","pictures/stimuli/E","F","F","5","595fa59caa841c00018d7225","05/06/2022, 10:54:19",-1.09448170914854,"27","Female","right",0,1,0,0,FALSE,"E_F_angelina_jolie.png E_F_sandra_bullock.png"
2926,"P_M_david_cameron.png","P_M_donald_trump.png","TRUE","pictures/stimuli/P","pictures/stimuli/P","M","M","6","595fa59caa841c00018d7225","05/06/2022, 10:54:19",0.359724757552318,"27","Female","right",0,0,0,0,FALSE,"P_M_david_cameron.png P_M_donald_trump.png"
3159,"E_F_Kate_Winslet.png","E_M_Hugh_Grant.png","TRUE","pictures/stimuli/E","pictures/stimuli/E","F","M","6","595fa59caa841c00018d7225","05/06/2022, 10:54:19",0.359724757552318,"27","Female","right",0,1,0,0,FALSE,"E_F_Kate_Winslet.png E_M_Hugh_Grant.png"
3702,"E_F_jennifer_aniston.png","E_F_keira_knightley.png","TRUE","pictures/stimuli/E","pictures/stimuli/E","F","F","6","595fa59caa841c00018d7225","05/06/2022, 10:54:19",0.359724757552318,"27","Female","right",0,1,0,0,FALSE,"E_F_jennifer_aniston.png E_F_keira_knightley.png"
2366,"E_M_robert_de_niro.png","P_F_nicola_sturgeon.png","FALSE","pictures/stimuli/E","pictures/stimuli/P","M","F","6","595fa59caa841c00018d7225","05/06/2022, 10:54:19",0.359724757552318,"27","Female","right",1,1,0,0,FALSE,"E_M_robert_de_niro.png P_F_nicola_sturgeon.png"
2127,"E_F_sandra_bullock.png","P_M_boris_johnson.png","FALSE","pictures/stimuli/E","pictures/stimuli/P","F","M","6","595fa59caa841c00018d7225","05/06/2022, 10:54:19",0.359724757552318,"27","Female","right",1,0,0,0,FALSE,"E_F_sandra_bullock.png P_M_boris_johnson.png"
2375,"E_M_Hugh_Grant.png","P_F_nicola_sturgeon.png","FALSE","pictures/stimuli/E","pictures/stimuli/P","M","F","6","595fa59caa841c00018d7225","05/06/2022, 10:54:19",0.359724757552318,"27","Female","right",1,1,0,0,FALSE,"E_M_Hugh_Grant.png P_F_nicola_sturgeon.png"
2271,"E_F_Judi_Dench.png","E_M_nicolas_cage.png","TRUE","pictures/stimuli/E","pictures/stimuli/E","F","M","6","595fa59caa841c00018d7225","05/06/2022, 10:54:19",0.359724757552318,"27","Female","right",1,0,0,0,FALSE,"E_F_Judi_Dench.png E_M_nicolas_cage.png"
3327,"E_F_Kate_Winslet.png","P_M_Tony_Blair.png","FALSE","pictures/stimuli/E","pictures/stimuli/P","F","M","6","595fa59caa841c00018d7225","05/06/2022, 10:54:19",0.359724757552318,"27","Female","right",0,0,0,0,FALSE,"E_F_Kate_Winslet.png P_M_Tony_Blair.png"
3063,"E_F_Kate_Winslet.png","E_M_robert_de_niro.png","TRUE","pictures/stimuli/E","pictures/stimuli/E","F","M","6","595fa59caa841c00018d7225","05/06/2022, 10:54:19",0.359724757552318,"27","Female","right",0,1,0,0,FALSE,"E_F_Kate_Winslet.png E_M_robert_de_niro.png"
3885,"E_F_angelina_jolie.png","E_M_michael_caine.png","TRUE","pictures/stimuli/E","pictures/stimuli/E","F","M","6","595fa59caa841c00018d7225","05/06/2022, 10:54:19",0.359724757552318,"27","Female","right",0,0,0,0,FALSE,"E_F_angelina_jolie.png E_M_michael_caine.png"
5775,"E_F_jennifer_aniston.png","E_F_sandra_bullock.png","TRUE","pictures/stimuli/E","pictures/stimuli/E","F","F","5","595fa59caa841c00018d7225","05/06/2022, 10:54:19",-1.09448170914854,"27","Female","right",0,1,0,0,FALSE,"E_F_jennifer_aniston.png E_F_sandra_bullock.png"
3959,"E_F_angelina_jolie.png","E_M_Hugh_Grant.png","TRUE","pictures/stimuli/E","pictures/stimuli/E","F","M","6","595fa59caa841c00018d7225","05/06/2022, 10:54:19",0.359724757552318,"27","Female","right",0,1,0,0,FALSE,"E_F_angelina_jolie.png E_M_Hugh_Grant.png"
4582,"E_M_nicolas_cage.png","P_M_boris_johnson.png","FALSE","pictures/stimuli/E","pictures/stimuli/P","M","M","5","59712abaafd8a4000160ff35","05/06/2022, 10:51:38",0.160520876555669,"33","Female","left",0,0,0,0,FALSE,"E_M_nicolas_cage.png P_M_boris_johnson.png"
5680,"E_F_sandra_bullock.png","E_M_Hugh_Grant.png","TRUE","pictures/stimuli/E","pictures/stimuli/E","F","M","4","59712abaafd8a4000160ff35","05/06/2022, 10:51:38",-0.763690230886061,"33","Female","left",1,0,0,0,FALSE,"E_F_sandra_bullock.png E_M_Hugh_Grant.png"
3318,"E_F_sandra_bullock.png","P_M_david_cameron.png","FALSE","pictures/stimuli/E","pictures/stimuli/P","F","M","6","59712abaafd8a4000160ff35","05/06/2022, 10:51:38",1.0847319839974,"33","Female","left",1,0,0,0,FALSE,"E_F_sandra_bullock.png P_M_david_cameron.png"
7066,"E_F_Judi_Dench.png","P_M_david_cameron.png","FALSE","pictures/stimuli/E","pictures/stimuli/P","F","M","3","59712abaafd8a4000160ff35","05/06/2022, 10:51:38",-1.68790133832779,"33","Female","left",1,0,0,0,FALSE,"E_F_Judi_Dench.png P_M_david_cameron.png"
4534,"E_F_Judi_Dench.png","E_M_robert_de_niro.png","TRUE","pictures/stimuli/E","pictures/stimuli/E","F","M","4","59712abaafd8a4000160ff35","05/06/2022, 10:51:38",-0.763690230886061,"33","Female","left",1,0,0,0,FALSE,"E_F_Judi_Dench.png E_M_robert_de_niro.png"
6295,"P_F_hillary_clinton.png","P_M_Tony_Blair.png","TRUE","pictures/stimuli/P","pictures/stimuli/P","F","M","5","59712abaafd8a4000160ff35","05/06/2022, 10:51:38",0.160520876555669,"33","Female","left",1,0,0,0,FALSE,"P_F_hillary_clinton.png P_M_Tony_Blair.png"
6228,"E_M_tom_hankes.png","P_F_nicola_sturgeon.png","FALSE","pictures/stimuli/E","pictures/stimuli/P","M","F","5","59712abaafd8a4000160ff35","05/06/2022, 10:51:38",0.160520876555669,"33","Female","left",0,0,0,0,FALSE,"E_M_tom_hankes.png P_F_nicola_sturgeon.png"
3211,"E_F_keira_knightley.png","P_M_bill_clinton.png","FALSE","pictures/stimuli/E","pictures/stimuli/P","F","M","5","59712abaafd8a4000160ff35","05/06/2022, 10:51:38",0.160520876555669,"33","Female","left",0,0,0,0,FALSE,"E_F_keira_knightley.png P_M_bill_clinton.png"
2957,"E_F_jennifer_aniston.png","E_M_robert_de_niro.png","TRUE","pictures/stimuli/E","pictures/stimuli/E","F","M","6","59712abaafd8a4000160ff35","05/06/2022, 10:51:38",1.0847319839974,"33","Female","left",0,0,0,0,FALSE,"E_F_jennifer_aniston.png E_M_robert_de_niro.png"
5801,"E_F_Judi_Dench.png","E_F_Kate_Winslet.png","TRUE","pictures/stimuli/E","pictures/stimuli/E","F","F","3","59712abaafd8a4000160ff35","05/06/2022, 10:51:38",-1.68790133832779,"33","Female","left",1,1,0,0,FALSE,"E_F_Judi_Dench.png E_F_Kate_Winslet.png"
8164,"E_F_angelina_jolie.png","E_M_tom_hankes.png","TRUE","pictures/stimuli/E","pictures/stimuli/E","F","M","4","59712abaafd8a4000160ff35","05/06/2022, 10:51:38",-0.763690230886061,"33","Female","left",0,0,0,0,FALSE,"E_F_angelina_jolie.png E_M_tom_hankes.png"
6250,"E_F_Judi_Dench.png","E_F_sandra_bullock.png","TRUE","pictures/stimuli/E","pictures/stimuli/E","F","F","5","59712abaafd8a4000160ff35","05/06/2022, 10:51:38",0.160520876555669,"33","Female","left",1,1,0,0,FALSE,"E_F_Judi_Dench.png E_F_sandra_bullock.png"
5158,"E_F_keira_knightley.png","E_M_Hugh_Grant.png","TRUE","pictures/stimuli/E","pictures/stimuli/E","F","M","6","59712abaafd8a4000160ff35","05/06/2022, 10:51:38",1.0847319839974,"33","Female","left",0,0,0,0,FALSE,"E_F_keira_knightley.png E_M_Hugh_Grant.png"
6305,"E_M_Hugh_Grant.png","P_F_hillary_clinton.png","FALSE","pictures/stimuli/E","pictures/stimuli/P","M","F","6","59712abaafd8a4000160ff35","05/06/2022, 10:51:38",1.0847319839974,"33","Female","left",0,1,0,0,FALSE,"E_M_Hugh_Grant.png P_F_hillary_clinton.png"
5197,"P_F_tehresy_may.png","P_M_bill_clinton.png","TRUE","pictures/stimuli/P","pictures/stimuli/P","F","M","5","59712abaafd8a4000160ff35","05/06/2022, 10:51:38",0.160520876555669,"33","Female","left",0,0,0,0,FALSE,"P_F_tehresy_may.png P_M_bill_clinton.png"
7720,"P_M_boris_johnson.png","P_M_george_Wbush.png","TRUE","pictures/stimuli/P","pictures/stimuli/P","M","M","6","59712abaafd8a4000160ff35","05/06/2022, 10:51:38",1.0847319839974,"33","Female","left",0,1,0,0,FALSE,"P_M_boris_johnson.png P_M_george_Wbush.png"
3751,"P_M_boris_johnson.png","P_M_Tony_Blair.png","TRUE","pictures/stimuli/P","pictures/stimuli/P","M","M","5","59712abaafd8a4000160ff35","05/06/2022, 10:51:38",0.160520876555669,"33","Female","left",0,0,0,0,FALSE,"P_M_boris_johnson.png P_M_Tony_Blair.png"
3584,"E_F_Kate_Winslet.png","P_M_bill_clinton.png","FALSE","pictures/stimuli/E","pictures/stimuli/P","F","M","5","59712abaafd8a4000160ff35","05/06/2022, 10:51:38",0.160520876555669,"33","Female","left",1,0,0,0,FALSE,"E_F_Kate_Winslet.png P_M_bill_clinton.png"
3347,"E_F_angelina_jolie.png","P_M_david_cameron.png","FALSE","pictures/stimuli/E","pictures/stimuli/P","F","M","6","59712abaafd8a4000160ff35","05/06/2022, 10:51:38",1.0847319839974,"33","Female","left",0,0,0,0,FALSE,"E_F_angelina_jolie.png P_M_david_cameron.png"
5765,"E_M_nicolas_cage.png","P_M_Tony_Blair.png","FALSE","pictures/stimuli/E","pictures/stimuli/P","M","M","4","59712abaafd8a4000160ff35","05/06/2022, 10:51:38",-0.763690230886061,"33","Female","left",0,0,0,0,FALSE,"E_M_nicolas_cage.png P_M_Tony_Blair.png"
2776,"E_M_nicolas_cage.png","E_M_tom_hankes.png","TRUE","pictures/stimuli/E","pictures/stimuli/E","M","M","5","59712abaafd8a4000160ff35","05/06/2022, 10:51:38",0.160520876555669,"33","Female","left",0,0,0,0,FALSE,"E_M_nicolas_cage.png E_M_tom_hankes.png"
4651,"E_F_jennifer_aniston.png","P_F_hillary_clinton.png","FALSE","pictures/stimuli/E","pictures/stimuli/P","F","F","5","59712abaafd8a4000160ff35","05/06/2022, 10:51:38",0.160520876555669,"33","Female","left",0,1,0,0,FALSE,"E_F_jennifer_aniston.png P_F_hillary_clinton.png"
2498,"P_M_david_cameron.png","P_M_donald_trump.png","TRUE","pictures/stimuli/P","pictures/stimuli/P","M","M","5","59712abaafd8a4000160ff35","05/06/2022, 10:51:38",0.160520876555669,"33","Female","left",0,0,0,0,FALSE,"P_M_david_cameron.png P_M_donald_trump.png"
3458,"P_F_tehresy_may.png","P_M_boris_johnson.png","TRUE","pictures/stimuli/P","pictures/stimuli/P","F","M","4","59712abaafd8a4000160ff35","05/06/2022, 10:51:38",-0.763690230886061,"33","Female","left",0,0,0,0,FALSE,"P_F_tehresy_may.png P_M_boris_johnson.png"
3401,"E_M_robert_de_niro.png","P_F_nicola_sturgeon.png","FALSE","pictures/stimuli/E","pictures/stimuli/P","M","F","4","59712abaafd8a4000160ff35","05/06/2022, 10:51:38",-0.763690230886061,"33","Female","left",0,0,0,0,FALSE,"E_M_robert_de_niro.png P_F_nicola_sturgeon.png"
3274,"E_F_keira_knightley.png","P_M_donald_trump.png","FALSE","pictures/stimuli/E","pictures/stimuli/P","F","M","6","59712abaafd8a4000160ff35","05/06/2022, 10:51:38",1.0847319839974,"33","Female","left",0,0,0,0,FALSE,"E_F_keira_knightley.png P_M_donald_trump.png"
3545,"E_F_angelina_jolie.png","P_F_tehresy_may.png","FALSE","pictures/stimuli/E","pictures/stimuli/P","F","F","5","59712abaafd8a4000160ff35","05/06/2022, 10:51:38",0.160520876555669,"33","Female","left",0,0,0,0,FALSE,"E_F_angelina_jolie.png P_F_tehresy_may.png"
5270,"E_F_angelina_jolie.png","E_M_nicolas_cage.png","TRUE","pictures/stimuli/E","pictures/stimuli/E","F","M","6","59712abaafd8a4000160ff35","05/06/2022, 10:51:38",1.0847319839974,"33","Female","left",0,0,0,0,FALSE,"E_F_angelina_jolie.png E_M_nicolas_cage.png"
4303,"E_M_michael_caine.png","E_M_nicolas_cage.png","TRUE","pictures/stimuli/E","pictures/stimuli/E","M","M","6","59712abaafd8a4000160ff35","05/06/2022, 10:51:38",1.0847319839974,"33","Female","left",0,0,0,0,FALSE,"E_M_michael_caine.png E_M_nicolas_cage.png"
3422,"E_F_sandra_bullock.png","E_M_tom_hankes.png","TRUE","pictures/stimuli/E","pictures/stimuli/E","F","M","4","59712abaafd8a4000160ff35","05/06/2022, 10:51:38",-0.763690230886061,"33","Female","left",1,0,0,0,FALSE,"E_F_sandra_bullock.png E_M_tom_hankes.png"
3661,"E_F_Kate_Winslet.png","E_M_tom_hankes.png","TRUE","pictures/stimuli/E","pictures/stimuli/E","F","M","4","59712abaafd8a4000160ff35","05/06/2022, 10:51:38",-0.763690230886061,"33","Female","left",1,0,0,0,FALSE,"E_F_Kate_Winslet.png E_M_tom_hankes.png"
7441,"E_F_jennifer_aniston.png","P_F_nicola_sturgeon.png","FALSE","pictures/stimuli/E","pictures/stimuli/P","F","F","4","59712abaafd8a4000160ff35","05/06/2022, 10:51:38",-0.763690230886061,"33","Female","left",0,0,0,0,FALSE,"E_F_jennifer_aniston.png P_F_nicola_sturgeon.png"
2836,"E_F_jennifer_aniston.png","E_F_Kate_Winslet.png","TRUE","pictures/stimuli/E","pictures/stimuli/E","F","F","3","59712abaafd8a4000160ff35","05/06/2022, 10:51:38",-1.68790133832779,"33","Female","left",0,1,0,0,FALSE,"E_F_jennifer_aniston.png E_F_Kate_Winslet.png"
2764,"E_M_Hugh_Grant.png","E_M_nicolas_cage.png","TRUE","pictures/stimuli/E","pictures/stimuli/E","M","M","4","59712abaafd8a4000160ff35","05/06/2022, 10:51:38",-0.763690230886061,"33","Female","left",0,0,0,0,FALSE,"E_M_Hugh_Grant.png E_M_nicolas_cage.png"
4081,"E_F_angelina_jolie.png","E_M_Hugh_Grant.png","TRUE","pictures/stimuli/E","pictures/stimuli/E","F","M","4","59712abaafd8a4000160ff35","05/06/2022, 10:51:38",-0.763690230886061,"33","Female","left",0,0,0,0,FALSE,"E_F_angelina_jolie.png E_M_Hugh_Grant.png"
9002,"E_F_jennifer_aniston.png","E_M_Hugh_Grant.png","TRUE","pictures/stimuli/E","pictures/stimuli/E","F","M","5","59712abaafd8a4000160ff35","05/06/2022, 10:51:38",0.160520876555669,"33","Female","left",0,0,0,0,FALSE,"E_F_jennifer_aniston.png E_M_Hugh_Grant.png"
5267,"E_M_tom_hankes.png","P_M_david_cameron.png","FALSE","pictures/stimuli/E","pictures/stimuli/P","M","M","3","59712abaafd8a4000160ff35","05/06/2022, 10:51:38",-1.68790133832779,"33","Female","left",0,0,0,0,FALSE,"E_M_tom_hankes.png P_M_david_cameron.png"
2775,"P_F_tehresy_may.png","P_M_Tony_Blair.png","TRUE","pictures/stimuli/P","pictures/stimuli/P","F","M","4","59712abaafd8a4000160ff35","05/06/2022, 10:51:38",-0.763690230886061,"33","Female","left",0,0,0,0,FALSE,"P_F_tehresy_may.png P_M_Tony_Blair.png"
2835,"E_F_sandra_bullock.png","P_M_george_Wbush.png","FALSE","pictures/stimuli/E","pictures/stimuli/P","F","M","5","59712abaafd8a4000160ff35","05/06/2022, 10:51:38",0.160520876555669,"33","Female","left",1,1,0,0,FALSE,"E_F_sandra_bullock.png P_M_george_Wbush.png"
4183,"E_F_Judi_Dench.png","P_M_bill_clinton.png","FALSE","pictures/stimuli/E","pictures/stimuli/P","F","M","4","59712abaafd8a4000160ff35","05/06/2022, 10:51:38",-0.763690230886061,"33","Female","left",1,0,0,0,FALSE,"E_F_Judi_Dench.png P_M_bill_clinton.png"
4966,"E_M_robert_de_niro.png","P_M_george_Wbush.png","FALSE","pictures/stimuli/E","pictures/stimuli/P","M","M","2","59712abaafd8a4000160ff35","05/06/2022, 10:51:38",-2.61211244576952,"33","Female","left",0,1,0,0,FALSE,"E_M_robert_de_niro.png P_M_george_Wbush.png"
2535,"P_F_nicola_sturgeon.png","P_F_tehresy_may.png","TRUE","pictures/stimuli/P","pictures/stimuli/P","F","F","2","59712abaafd8a4000160ff35","05/06/2022, 10:51:38",-2.61211244576952,"33","Female","left",0,0,0,0,FALSE,"P_F_nicola_sturgeon.png P_F_tehresy_may.png"
3079,"E_F_Kate_Winslet.png","P_M_george_Wbush.png","FALSE","pictures/stimuli/E","pictures/stimuli/P","F","M","5","59712abaafd8a4000160ff35","05/06/2022, 10:51:38",0.160520876555669,"33","Female","left",1,1,0,0,FALSE,"E_F_Kate_Winslet.png P_M_george_Wbush.png"
2361,"E_M_michael_caine.png","E_M_tom_hankes.png","TRUE","pictures/stimuli/E","pictures/stimuli/E","M","M","6","59712abaafd8a4000160ff35","05/06/2022, 10:51:38",1.0847319839974,"33","Female","left",0,0,0,0,FALSE,"E_M_michael_caine.png E_M_tom_hankes.png"
2956,"E_F_Judi_Dench.png","P_M_boris_johnson.png","FALSE","pictures/stimuli/E","pictures/stimuli/P","F","M","3","59712abaafd8a4000160ff35","05/06/2022, 10:51:38",-1.68790133832779,"33","Female","left",1,0,0,0,FALSE,"E_F_Judi_Dench.png P_M_boris_johnson.png"
4343,"E_M_michael_caine.png","P_M_boris_johnson.png","FALSE","pictures/stimuli/E","pictures/stimuli/P","M","M","5","59712abaafd8a4000160ff35","05/06/2022, 10:51:38",0.160520876555669,"33","Female","left",0,0,0,0,FALSE,"E_M_michael_caine.png P_M_boris_johnson.png"
2348,"E_M_nicolas_cage.png","P_M_donald_trump.png","FALSE","pictures/stimuli/E","pictures/stimuli/P","M","M","4","59712abaafd8a4000160ff35","05/06/2022, 10:51:38",-0.763690230886061,"33","Female","left",0,0,0,0,FALSE,"E_M_nicolas_cage.png P_M_donald_trump.png"
2560,"E_M_tom_hankes.png","P_M_george_Wbush.png","FALSE","pictures/stimuli/E","pictures/stimuli/P","M","M","4","59712abaafd8a4000160ff35","05/06/2022, 10:51:38",-0.763690230886061,"33","Female","left",0,1,0,0,FALSE,"E_M_tom_hankes.png P_M_george_Wbush.png"
4411,"E_F_Judi_Dench.png","P_M_donald_trump.png","FALSE","pictures/stimuli/E","pictures/stimuli/P","F","M","4","59712abaafd8a4000160ff35","05/06/2022, 10:51:38",-0.763690230886061,"33","Female","left",1,0,0,0,FALSE,"E_F_Judi_Dench.png P_M_donald_trump.png"
3955,"E_F_angelina_jolie.png","E_F_sandra_bullock.png","TRUE","pictures/stimuli/E","pictures/stimuli/E","F","F","3","59712abaafd8a4000160ff35","05/06/2022, 10:51:38",-1.68790133832779,"33","Female","left",0,1,0,0,FALSE,"E_F_angelina_jolie.png E_F_sandra_bullock.png"
2587,"E_F_angelina_jolie.png","P_M_bill_clinton.png","FALSE","pictures/stimuli/E","pictures/stimuli/P","F","M","5","59712abaafd8a4000160ff35","05/06/2022, 10:51:38",0.160520876555669,"33","Female","left",0,0,0,0,FALSE,"E_F_angelina_jolie.png P_M_bill_clinton.png"
2768,"P_F_nicola_sturgeon.png","P_M_boris_johnson.png","TRUE","pictures/stimuli/P","pictures/stimuli/P","F","M","4","59712abaafd8a4000160ff35","05/06/2022, 10:51:38",-0.763690230886061,"33","Female","left",0,0,0,0,FALSE,"P_F_nicola_sturgeon.png P_M_boris_johnson.png"
3951,"E_F_sandra_bullock.png","P_F_tehresy_may.png","FALSE","pictures/stimuli/E","pictures/stimuli/P","F","F","4","59712abaafd8a4000160ff35","05/06/2022, 10:51:38",-0.763690230886061,"33","Female","left",1,0,0,0,FALSE,"E_F_sandra_bullock.png P_F_tehresy_may.png"
6886,"E_F_sandra_bullock.png","P_M_Tony_Blair.png","FALSE","pictures/stimuli/E","pictures/stimuli/P","F","M","4","59712abaafd8a4000160ff35","05/06/2022, 10:51:38",-0.763690230886061,"33","Female","left",1,0,0,0,FALSE,"E_F_sandra_bullock.png P_M_Tony_Blair.png"
5587,"E_F_Judi_Dench.png","E_M_nicolas_cage.png","TRUE","pictures/stimuli/E","pictures/stimuli/E","F","M","6","59712abaafd8a4000160ff35","05/06/2022, 10:51:38",1.0847319839974,"33","Female","left",1,0,0,0,FALSE,"E_F_Judi_Dench.png E_M_nicolas_cage.png"
6536,"E_M_Hugh_Grant.png","P_M_boris_johnson.png","FALSE","pictures/stimuli/E","pictures/stimuli/P","M","M","4","59712abaafd8a4000160ff35","05/06/2022, 10:51:38",-0.763690230886061,"33","Female","left",0,0,0,0,FALSE,"E_M_Hugh_Grant.png P_M_boris_johnson.png"
3008,"E_F_Judi_Dench.png","P_F_hillary_clinton.png","FALSE","pictures/stimuli/E","pictures/stimuli/P","F","F","5","59712abaafd8a4000160ff35","05/06/2022, 10:51:38",0.160520876555669,"33","Female","left",1,1,0,0,FALSE,"E_F_Judi_Dench.png P_F_hillary_clinton.png"
5677,"E_F_keira_knightley.png","P_F_hillary_clinton.png","FALSE","pictures/stimuli/E","pictures/stimuli/P","F","F","5","59712abaafd8a4000160ff35","05/06/2022, 10:51:38",0.160520876555669,"33","Female","left",0,1,0,0,FALSE,"E_F_keira_knightley.png P_F_hillary_clinton.png"
2397,"E_M_Hugh_Grant.png","P_M_george_Wbush.png","FALSE","pictures/stimuli/E","pictures/stimuli/P","M","M","5","59712abaafd8a4000160ff35","05/06/2022, 10:51:38",0.160520876555669,"33","Female","left",0,1,0,0,FALSE,"E_M_Hugh_Grant.png P_M_george_Wbush.png"
6034,"E_M_tom_hankes.png","P_M_boris_johnson.png","FALSE","pictures/stimuli/E","pictures/stimuli/P","M","M","3","59712abaafd8a4000160ff35","05/06/2022, 10:51:38",-1.68790133832779,"33","Female","left",0,0,0,0,FALSE,"E_M_tom_hankes.png P_M_boris_johnson.png"
6601,"E_F_keira_knightley.png","P_M_david_cameron.png","FALSE","pictures/stimuli/E","pictures/stimuli/P","F","M","5","59712abaafd8a4000160ff35","05/06/2022, 10:51:38",0.160520876555669,"33","Female","left",0,0,0,0,FALSE,"E_F_keira_knightley.png P_M_david_cameron.png"
2327,"E_M_tom_hankes.png","P_F_tehresy_may.png","FALSE","pictures/stimuli/E","pictures/stimuli/P","M","F","6","59712abaafd8a4000160ff35","05/06/2022, 10:51:38",1.0847319839974,"33","Female","left",0,0,0,0,FALSE,"E_M_tom_hankes.png P_F_tehresy_may.png"
2210,"P_F_nicola_sturgeon.png","P_M_Tony_Blair.png","TRUE","pictures/stimuli/P","pictures/stimuli/P","F","M","5","59712abaafd8a4000160ff35","05/06/2022, 10:51:38",0.160520876555669,"33","Female","left",0,0,0,0,FALSE,"P_F_nicola_sturgeon.png P_M_Tony_Blair.png"
3833,"E_F_keira_knightley.png","P_M_george_Wbush.png","FALSE","pictures/stimuli/E","pictures/stimuli/P","F","M","6","59712abaafd8a4000160ff35","05/06/2022, 10:51:38",1.0847319839974,"33","Female","left",0,1,0,0,FALSE,"E_F_keira_knightley.png P_M_george_Wbush.png"
3375,"E_F_jennifer_aniston.png","P_M_boris_johnson.png","FALSE","pictures/stimuli/E","pictures/stimuli/P","F","M","3","59712abaafd8a4000160ff35","05/06/2022, 10:51:38",-1.68790133832779,"33","Female","left",0,0,0,0,FALSE,"E_F_jennifer_aniston.png P_M_boris_johnson.png"
2700,"E_F_keira_knightley.png","P_F_nicola_sturgeon.png","FALSE","pictures/stimuli/E","pictures/stimuli/P","F","F","5","59712abaafd8a4000160ff35","05/06/2022, 10:51:38",0.160520876555669,"33","Female","left",0,0,0,0,FALSE,"E_F_keira_knightley.png P_F_nicola_sturgeon.png"
4906,"E_F_Judi_Dench.png","P_F_tehresy_may.png","FALSE","pictures/stimuli/E","pictures/stimuli/P","F","F","4","59712abaafd8a4000160ff35","05/06/2022, 10:51:38",-0.763690230886061,"33","Female","left",1,0,0,0,FALSE,"E_F_Judi_Dench.png P_F_tehresy_may.png"
5889,"E_F_Judi_Dench.png","E_M_tom_hankes.png","TRUE","pictures/stimuli/E","pictures/stimuli/E","F","M","5","59712abaafd8a4000160ff35","05/06/2022, 10:51:38",0.160520876555669,"33","Female","left",1,0,0,0,FALSE,"E_F_Judi_Dench.png E_M_tom_hankes.png"
2575,"E_F_Judi_Dench.png","P_M_Tony_Blair.png","FALSE","pictures/stimuli/E","pictures/stimuli/P","F","M","6","59712abaafd8a4000160ff35","05/06/2022, 10:51:38",1.0847319839974,"33","Female","left",1,0,0,0,FALSE,"E_F_Judi_Dench.png P_M_Tony_Blair.png"
2653,"P_F_tehresy_may.png","P_M_george_Wbush.png","TRUE","pictures/stimuli/P","pictures/stimuli/P","F","M","6","59712abaafd8a4000160ff35","05/06/2022, 10:51:38",1.0847319839974,"33","Female","left",0,1,0,0,FALSE,"P_F_tehresy_may.png P_M_george_Wbush.png"
1932,"E_F_Kate_Winslet.png","E_M_michael_caine.png","TRUE","pictures/stimuli/E","pictures/stimuli/E","F","M","6","59712abaafd8a4000160ff35","05/06/2022, 10:51:38",1.0847319839974,"33","Female","left",1,0,0,0,FALSE,"E_F_Kate_Winslet.png E_M_michael_caine.png"
2742,"E_F_angelina_jolie.png","P_M_Tony_Blair.png","FALSE","pictures/stimuli/E","pictures/stimuli/P","F","M","5","59712abaafd8a4000160ff35","05/06/2022, 10:51:38",0.160520876555669,"33","Female","left",0,0,0,0,FALSE,"E_F_angelina_jolie.png P_M_Tony_Blair.png"
5815,"E_F_jennifer_aniston.png","E_M_tom_hankes.png","TRUE","pictures/stimuli/E","pictures/stimuli/E","F","M","3","59712abaafd8a4000160ff35","05/06/2022, 10:51:38",-1.68790133832779,"33","Female","left",0,0,0,0,FALSE,"E_F_jennifer_aniston.png E_M_tom_hankes.png"
2268,"E_F_Kate_Winslet.png","P_F_hillary_clinton.png","FALSE","pictures/stimuli/E","pictures/stimuli/P","F","F","3","59712abaafd8a4000160ff35","05/06/2022, 10:51:38",-1.68790133832779,"33","Female","left",1,1,0,0,FALSE,"E_F_Kate_Winslet.png P_F_hillary_clinton.png"
2303,"E_F_keira_knightley.png","P_M_boris_johnson.png","FALSE","pictures/stimuli/E","pictures/stimuli/P","F","M","6","59712abaafd8a4000160ff35","05/06/2022, 10:51:38",1.0847319839974,"33","Female","left",0,0,0,0,FALSE,"E_F_keira_knightley.png P_M_boris_johnson.png"
4107,"P_F_hillary_clinton.png","P_M_boris_johnson.png","TRUE","pictures/stimuli/P","pictures/stimuli/P","F","M","5","59712abaafd8a4000160ff35","05/06/2022, 10:51:38",0.160520876555669,"33","Female","left",1,0,0,0,FALSE,"P_F_hillary_clinton.png P_M_boris_johnson.png"
2041,"E_M_nicolas_cage.png","P_F_nicola_sturgeon.png","FALSE","pictures/stimuli/E","pictures/stimuli/P","M","F","6","59712abaafd8a4000160ff35","05/06/2022, 10:51:38",1.0847319839974,"33","Female","left",0,0,0,0,FALSE,"E_M_nicolas_cage.png P_F_nicola_sturgeon.png"
4107,"E_F_jennifer_aniston.png","E_M_nicolas_cage.png","TRUE","pictures/stimuli/E","pictures/stimuli/E","F","M","4","59712abaafd8a4000160ff35","05/06/2022, 10:51:38",-0.763690230886061,"33","Female","left",0,0,0,0,FALSE,"E_F_jennifer_aniston.png E_M_nicolas_cage.png"
1905,"E_F_sandra_bullock.png","E_M_michael_caine.png","TRUE","pictures/stimuli/E","pictures/stimuli/E","F","M","6","59712abaafd8a4000160ff35","05/06/2022, 10:51:38",1.0847319839974,"33","Female","left",1,0,0,0,FALSE,"E_F_sandra_bullock.png E_M_michael_caine.png"
2921,"E_F_jennifer_aniston.png","E_F_sandra_bullock.png","TRUE","pictures/stimuli/E","pictures/stimuli/E","F","F","4","59712abaafd8a4000160ff35","05/06/2022, 10:51:38",-0.763690230886061,"33","Female","left",0,1,0,0,FALSE,"E_F_jennifer_aniston.png E_F_sandra_bullock.png"
2436,"P_M_bill_clinton.png","P_M_Tony_Blair.png","TRUE","pictures/stimuli/P","pictures/stimuli/P","M","M","4","59712abaafd8a4000160ff35","05/06/2022, 10:51:38",-0.763690230886061,"33","Female","left",0,0,0,0,FALSE,"P_M_bill_clinton.png P_M_Tony_Blair.png"
6123,"E_F_jennifer_aniston.png","P_M_bill_clinton.png","FALSE","pictures/stimuli/E","pictures/stimuli/P","F","M","5","59712abaafd8a4000160ff35","05/06/2022, 10:51:38",0.160520876555669,"33","Female","left",0,0,0,0,FALSE,"E_F_jennifer_aniston.png P_M_bill_clinton.png"
4331,"P_M_boris_johnson.png","P_M_donald_trump.png","TRUE","pictures/stimuli/P","pictures/stimuli/P","M","M","5","59712abaafd8a4000160ff35","05/06/2022, 10:51:38",0.160520876555669,"33","Female","left",0,0,0,0,FALSE,"P_M_boris_johnson.png P_M_donald_trump.png"
2432,"E_M_robert_de_niro.png","P_M_boris_johnson.png","FALSE","pictures/stimuli/E","pictures/stimuli/P","M","M","4","59712abaafd8a4000160ff35","05/06/2022, 10:51:38",-0.763690230886061,"33","Female","left",0,0,0,0,FALSE,"E_M_robert_de_niro.png P_M_boris_johnson.png"
7295,"E_F_angelina_jolie.png","P_F_nicola_sturgeon.png","FALSE","pictures/stimuli/E","pictures/stimuli/P","F","F","6","59712abaafd8a4000160ff35","05/06/2022, 10:51:38",1.0847319839974,"33","Female","left",0,0,0,0,FALSE,"E_F_angelina_jolie.png P_F_nicola_sturgeon.png"
4808,"E_M_michael_caine.png","P_F_tehresy_may.png","FALSE","pictures/stimuli/E","pictures/stimuli/P","M","F","3","59712abaafd8a4000160ff35","05/06/2022, 10:51:38",-1.68790133832779,"33","Female","left",0,0,0,0,FALSE,"E_M_michael_caine.png P_F_tehresy_may.png"
4523,"E_F_angelina_jolie.png","E_F_Judi_Dench.png","TRUE","pictures/stimuli/E","pictures/stimuli/E","F","F","6","59712abaafd8a4000160ff35","05/06/2022, 10:51:38",1.0847319839974,"33","Female","left",0,1,0,0,FALSE,"E_F_angelina_jolie.png E_F_Judi_Dench.png"
2375,"E_F_angelina_jolie.png","E_M_robert_de_niro.png","TRUE","pictures/stimuli/E","pictures/stimuli/E","F","M","6","59712abaafd8a4000160ff35","05/06/2022, 10:51:38",1.0847319839974,"33","Female","left",0,0,0,0,FALSE,"E_F_angelina_jolie.png E_M_robert_de_niro.png"
4967,"P_F_hillary_clinton.png","P_M_donald_trump.png","TRUE","pictures/stimuli/P","pictures/stimuli/P","F","M","5","59712abaafd8a4000160ff35","05/06/2022, 10:51:38",0.160520876555669,"33","Female","left",1,0,0,0,FALSE,"P_F_hillary_clinton.png P_M_donald_trump.png"
5746,"P_M_donald_trump.png","P_M_Tony_Blair.png","TRUE","pictures/stimuli/P","pictures/stimuli/P","M","M","4","59712abaafd8a4000160ff35","05/06/2022, 10:51:38",-0.763690230886061,"33","Female","left",0,0,0,0,FALSE,"P_M_donald_trump.png P_M_Tony_Blair.png"
2539,"E_F_Kate_Winslet.png","P_F_nicola_sturgeon.png","FALSE","pictures/stimuli/E","pictures/stimuli/P","F","F","5","59712abaafd8a4000160ff35","05/06/2022, 10:51:38",0.160520876555669,"33","Female","left",1,0,0,0,FALSE,"E_F_Kate_Winslet.png P_F_nicola_sturgeon.png"
2389,"E_M_nicolas_cage.png","P_F_hillary_clinton.png","FALSE","pictures/stimuli/E","pictures/stimuli/P","M","F","6","59712abaafd8a4000160ff35","05/06/2022, 10:51:38",1.0847319839974,"33","Female","left",0,1,0,0,FALSE,"E_M_nicolas_cage.png P_F_hillary_clinton.png"
2079,"E_F_keira_knightley.png","E_M_nicolas_cage.png","TRUE","pictures/stimuli/E","pictures/stimuli/E","F","M","5","59712abaafd8a4000160ff35","05/06/2022, 10:51:38",0.160520876555669,"33","Female","left",0,0,0,0,FALSE,"E_F_keira_knightley.png E_M_nicolas_cage.png"
3378,"E_F_angelina_jolie.png","P_M_boris_johnson.png","FALSE","pictures/stimuli/E","pictures/stimuli/P","F","M","6","59712abaafd8a4000160ff35","05/06/2022, 10:51:38",1.0847319839974,"33","Female","left",0,0,0,0,FALSE,"E_F_angelina_jolie.png P_M_boris_johnson.png"
2780,"E_F_sandra_bullock.png","P_M_boris_johnson.png","FALSE","pictures/stimuli/E","pictures/stimuli/P","F","M","5","59712abaafd8a4000160ff35","05/06/2022, 10:51:38",0.160520876555669,"33","Female","left",1,0,0,0,FALSE,"E_F_sandra_bullock.png P_M_boris_johnson.png"
3209,"E_F_Kate_Winslet.png","P_M_donald_trump.png","FALSE","pictures/stimuli/E","pictures/stimuli/P","F","M","6","59712abaafd8a4000160ff35","05/06/2022, 10:51:38",1.0847319839974,"33","Female","left",1,0,0,0,FALSE,"E_F_Kate_Winslet.png P_M_donald_trump.png"
3235,"E_F_sandra_bullock.png","P_M_donald_trump.png","FALSE","pictures/stimuli/E","pictures/stimuli/P","F","M","6","59712abaafd8a4000160ff35","05/06/2022, 10:51:38",1.0847319839974,"33","Female","left",1,0,0,0,FALSE,"E_F_sandra_bullock.png P_M_donald_trump.png"
5206,"E_F_jennifer_aniston.png","P_F_tehresy_may.png","FALSE","pictures/stimuli/E","pictures/stimuli/P","F","F","6","59712abaafd8a4000160ff35","05/06/2022, 10:51:38",1.0847319839974,"33","Female","left",0,0,0,0,FALSE,"E_F_jennifer_aniston.png P_F_tehresy_may.png"
2209,"E_M_robert_de_niro.png","E_M_tom_hankes.png","TRUE","pictures/stimuli/E","pictures/stimuli/E","M","M","5","59712abaafd8a4000160ff35","05/06/2022, 10:51:38",0.160520876555669,"33","Female","left",0,0,0,0,FALSE,"E_M_robert_de_niro.png E_M_tom_hankes.png"
3762,"E_F_keira_knightley.png","P_M_Tony_Blair.png","FALSE","pictures/stimuli/E","pictures/stimuli/P","F","M","6","59712abaafd8a4000160ff35","05/06/2022, 10:51:38",1.0847319839974,"33","Female","left",0,0,0,0,FALSE,"E_F_keira_knightley.png P_M_Tony_Blair.png"
3461,"E_M_robert_de_niro.png","P_M_Tony_Blair.png","FALSE","pictures/stimuli/E","pictures/stimuli/P","M","M","4","59712abaafd8a4000160ff35","05/06/2022, 10:51:38",-0.763690230886061,"33","Female","left",0,0,0,0,FALSE,"E_M_robert_de_niro.png P_M_Tony_Blair.png"
3041,"E_M_nicolas_cage.png","P_M_david_cameron.png","FALSE","pictures/stimuli/E","pictures/stimuli/P","M","M","5","59712abaafd8a4000160ff35","05/06/2022, 10:51:38",0.160520876555669,"33","Female","left",0,0,0,0,FALSE,"E_M_nicolas_cage.png P_M_david_cameron.png"
3640,"E_F_Kate_Winslet.png","P_M_Tony_Blair.png","FALSE","pictures/stimuli/E","pictures/stimuli/P","F","M","6","59712abaafd8a4000160ff35","05/06/2022, 10:51:38",1.0847319839974,"33","Female","left",1,0,0,0,FALSE,"E_F_Kate_Winslet.png P_M_Tony_Blair.png"
3541,"E_F_Judi_Dench.png","P_M_george_Wbush.png","FALSE","pictures/stimuli/E","pictures/stimuli/P","F","M","5","59712abaafd8a4000160ff35","05/06/2022, 10:51:38",0.160520876555669,"33","Female","left",1,1,0,0,FALSE,"E_F_Judi_Dench.png P_M_george_Wbush.png"
2381,"E_M_michael_caine.png","E_M_robert_de_niro.png","TRUE","pictures/stimuli/E","pictures/stimuli/E","M","M","4","59712abaafd8a4000160ff35","05/06/2022, 10:51:38",-0.763690230886061,"33","Female","left",0,0,0,0,FALSE,"E_M_michael_caine.png E_M_robert_de_niro.png"
2450,"E_M_Hugh_Grant.png","P_M_donald_trump.png","FALSE","pictures/stimuli/E","pictures/stimuli/P","M","M","5","59712abaafd8a4000160ff35","05/06/2022, 10:51:38",0.160520876555669,"33","Female","left",0,0,0,0,FALSE,"E_M_Hugh_Grant.png P_M_donald_trump.png"
2045,"E_F_Judi_Dench.png","E_M_michael_caine.png","TRUE","pictures/stimuli/E","pictures/stimuli/E","F","M","6","59712abaafd8a4000160ff35","05/06/2022, 10:51:38",1.0847319839974,"33","Female","left",1,0,0,0,FALSE,"E_F_Judi_Dench.png E_M_michael_caine.png"
2523,"E_F_sandra_bullock.png","P_F_nicola_sturgeon.png","FALSE","pictures/stimuli/E","pictures/stimuli/P","F","F","6","59712abaafd8a4000160ff35","05/06/2022, 10:51:38",1.0847319839974,"33","Female","left",1,0,0,0,FALSE,"E_F_sandra_bullock.png P_F_nicola_sturgeon.png"
7245,"E_M_michael_caine.png","P_M_Tony_Blair.png","FALSE","pictures/stimuli/E","pictures/stimuli/P","M","M","5","59712abaafd8a4000160ff35","05/06/2022, 10:51:38",0.160520876555669,"33","Female","left",0,0,0,0,FALSE,"E_M_michael_caine.png P_M_Tony_Blair.png"
2178,"E_M_nicolas_cage.png","P_M_bill_clinton.png","FALSE","pictures/stimuli/E","pictures/stimuli/P","M","M","5","59712abaafd8a4000160ff35","05/06/2022, 10:51:38",0.160520876555669,"33","Female","left",0,0,0,0,FALSE,"E_M_nicolas_cage.png P_M_bill_clinton.png"
3848,"E_F_Kate_Winslet.png","P_M_david_cameron.png","FALSE","pictures/stimuli/E","pictures/stimuli/P","F","M","4","59712abaafd8a4000160ff35","05/06/2022, 10:51:38",-0.763690230886061,"33","Female","left",1,0,0,0,FALSE,"E_F_Kate_Winslet.png P_M_david_cameron.png"
6759,"E_F_sandra_bullock.png","P_F_hillary_clinton.png","FALSE","pictures/stimuli/E","pictures/stimuli/P","F","F","6","59712abaafd8a4000160ff35","05/06/2022, 10:51:38",1.0847319839974,"33","Female","left",1,1,0,0,FALSE,"E_F_sandra_bullock.png P_F_hillary_clinton.png"
2288,"E_F_angelina_jolie.png","E_F_jennifer_aniston.png","TRUE","pictures/stimuli/E","pictures/stimuli/E","F","F","5","59712abaafd8a4000160ff35","05/06/2022, 10:51:38",0.160520876555669,"33","Female","left",0,0,0,0,FALSE,"E_F_angelina_jolie.png E_F_jennifer_aniston.png"
3445,"E_M_michael_caine.png","P_M_george_Wbush.png","FALSE","pictures/stimuli/E","pictures/stimuli/P","M","M","4","59712abaafd8a4000160ff35","05/06/2022, 10:51:38",-0.763690230886061,"33","Female","left",0,1,0,0,FALSE,"E_M_michael_caine.png P_M_george_Wbush.png"
2910,"P_F_nicola_sturgeon.png","P_M_bill_clinton.png","TRUE","pictures/stimuli/P","pictures/stimuli/P","F","M","4","59712abaafd8a4000160ff35","05/06/2022, 10:51:38",-0.763690230886061,"33","Female","left",0,0,0,0,FALSE,"P_F_nicola_sturgeon.png P_M_bill_clinton.png"
1874,"E_F_Judi_Dench.png","E_F_keira_knightley.png","TRUE","pictures/stimuli/E","pictures/stimuli/E","F","F","5","59712abaafd8a4000160ff35","05/06/2022, 10:51:38",0.160520876555669,"33","Female","left",1,0,0,0,FALSE,"E_F_Judi_Dench.png E_F_keira_knightley.png"
2699,"P_F_hillary_clinton.png","P_M_bill_clinton.png","TRUE","pictures/stimuli/P","pictures/stimuli/P","F","M","5","59712abaafd8a4000160ff35","05/06/2022, 10:51:38",0.160520876555669,"33","Female","left",1,0,0,0,FALSE,"P_F_hillary_clinton.png P_M_bill_clinton.png"
6480,"E_M_Hugh_Grant.png","P_M_bill_clinton.png","FALSE","pictures/stimuli/E","pictures/stimuli/P","M","M","4","59712abaafd8a4000160ff35","05/06/2022, 10:51:38",-0.763690230886061,"33","Female","left",0,0,0,0,FALSE,"E_M_Hugh_Grant.png P_M_bill_clinton.png"
2959,"E_F_Kate_Winslet.png","P_F_tehresy_may.png","FALSE","pictures/stimuli/E","pictures/stimuli/P","F","F","4","59712abaafd8a4000160ff35","05/06/2022, 10:51:38",-0.763690230886061,"33","Female","left",1,0,0,0,FALSE,"E_F_Kate_Winslet.png P_F_tehresy_may.png"
2752,"P_F_nicola_sturgeon.png","P_M_donald_trump.png","TRUE","pictures/stimuli/P","pictures/stimuli/P","F","M","6","59712abaafd8a4000160ff35","05/06/2022, 10:51:38",1.0847319839974,"33","Female","left",0,0,0,0,FALSE,"P_F_nicola_sturgeon.png P_M_donald_trump.png"
1798,"E_F_jennifer_aniston.png","P_M_donald_trump.png","FALSE","pictures/stimuli/E","pictures/stimuli/P","F","M","5","59712abaafd8a4000160ff35","05/06/2022, 10:51:38",0.160520876555669,"33","Female","left",0,0,0,0,FALSE,"E_F_jennifer_aniston.png P_M_donald_trump.png"
2990,"E_F_angelina_jolie.png","E_F_Kate_Winslet.png","TRUE","pictures/stimuli/E","pictures/stimuli/E","F","F","3","59712abaafd8a4000160ff35","05/06/2022, 10:51:38",-1.68790133832779,"33","Female","left",0,1,0,0,FALSE,"E_F_angelina_jolie.png E_F_Kate_Winslet.png"
2249,"E_F_keira_knightley.png","E_M_robert_de_niro.png","TRUE","pictures/stimuli/E","pictures/stimuli/E","F","M","6","59712abaafd8a4000160ff35","05/06/2022, 10:51:38",1.0847319839974,"33","Female","left",0,0,0,0,FALSE,"E_F_keira_knightley.png E_M_robert_de_niro.png"
2281,"P_F_tehresy_may.png","P_M_david_cameron.png","TRUE","pictures/stimuli/P","pictures/stimuli/P","F","M","4","59712abaafd8a4000160ff35","05/06/2022, 10:51:38",-0.763690230886061,"33","Female","left",0,0,0,0,FALSE,"P_F_tehresy_may.png P_M_david_cameron.png"
1936,"E_M_tom_hankes.png","P_M_donald_trump.png","FALSE","pictures/stimuli/E","pictures/stimuli/P","M","M","5","59712abaafd8a4000160ff35","05/06/2022, 10:51:38",0.160520876555669,"33","Female","left",0,0,0,0,FALSE,"E_M_tom_hankes.png P_M_donald_trump.png"
8493,"E_F_keira_knightley.png","E_F_sandra_bullock.png","TRUE","pictures/stimuli/E","pictures/stimuli/E","F","F","4","59712abaafd8a4000160ff35","05/06/2022, 10:51:38",-0.763690230886061,"33","Female","left",0,1,0,0,FALSE,"E_F_keira_knightley.png E_F_sandra_bullock.png"
2288,"E_F_Judi_Dench.png","E_M_Hugh_Grant.png","TRUE","pictures/stimuli/E","pictures/stimuli/E","F","M","6","59712abaafd8a4000160ff35","05/06/2022, 10:51:38",1.0847319839974,"33","Female","left",1,0,0,0,FALSE,"E_F_Judi_Dench.png E_M_Hugh_Grant.png"
1666,"E_M_Hugh_Grant.png","E_M_tom_hankes.png","TRUE","pictures/stimuli/E","pictures/stimuli/E","M","M","5","59712abaafd8a4000160ff35","05/06/2022, 10:51:38",0.160520876555669,"33","Female","left",0,0,0,0,FALSE,"E_M_Hugh_Grant.png E_M_tom_hankes.png"
4888,"E_F_Kate_Winslet.png","E_F_keira_knightley.png","TRUE","pictures/stimuli/E","pictures/stimuli/E","F","F","2","59712abaafd8a4000160ff35","05/06/2022, 10:51:38",-2.61211244576952,"33","Female","left",1,0,0,0,FALSE,"E_F_Kate_Winslet.png E_F_keira_knightley.png"
4730,"E_F_jennifer_aniston.png","E_F_keira_knightley.png","TRUE","pictures/stimuli/E","pictures/stimuli/E","F","F","4","59712abaafd8a4000160ff35","05/06/2022, 10:51:38",-0.763690230886061,"33","Female","left",0,0,0,0,FALSE,"E_F_jennifer_aniston.png E_F_keira_knightley.png"
1918,"E_F_angelina_jolie.png","E_M_michael_caine.png","TRUE","pictures/stimuli/E","pictures/stimuli/E","F","M","6","59712abaafd8a4000160ff35","05/06/2022, 10:51:38",1.0847319839974,"33","Female","left",0,0,0,0,FALSE,"E_F_angelina_jolie.png E_M_michael_caine.png"
2086,"E_M_Hugh_Grant.png","P_M_Tony_Blair.png","FALSE","pictures/stimuli/E","pictures/stimuli/P","M","M","5","59712abaafd8a4000160ff35","05/06/2022, 10:51:38",0.160520876555669,"33","Female","left",0,0,0,0,FALSE,"E_M_Hugh_Grant.png P_M_Tony_Blair.png"
4677,"E_M_tom_hankes.png","P_M_Tony_Blair.png","FALSE","pictures/stimuli/E","pictures/stimuli/P","M","M","5","59712abaafd8a4000160ff35","05/06/2022, 10:51:38",0.160520876555669,"33","Female","left",0,0,0,0,FALSE,"E_M_tom_hankes.png P_M_Tony_Blair.png"
3019,"E_M_nicolas_cage.png","P_F_tehresy_may.png","FALSE","pictures/stimuli/E","pictures/stimuli/P","M","F","6","59712abaafd8a4000160ff35","05/06/2022, 10:51:38",1.0847319839974,"33","Female","left",0,0,0,0,FALSE,"E_M_nicolas_cage.png P_F_tehresy_may.png"
1962,"E_M_michael_caine.png","P_M_david_cameron.png","FALSE","pictures/stimuli/E","pictures/stimuli/P","M","M","5","59712abaafd8a4000160ff35","05/06/2022, 10:51:38",0.160520876555669,"33","Female","left",0,0,0,0,FALSE,"E_M_michael_caine.png P_M_david_cameron.png"
2052,"E_M_nicolas_cage.png","E_M_robert_de_niro.png","TRUE","pictures/stimuli/E","pictures/stimuli/E","M","M","4","59712abaafd8a4000160ff35","05/06/2022, 10:51:38",-0.763690230886061,"33","Female","left",0,0,0,0,FALSE,"E_M_nicolas_cage.png E_M_robert_de_niro.png"
1916,"E_F_keira_knightley.png","P_F_tehresy_may.png","FALSE","pictures/stimuli/E","pictures/stimuli/P","F","F","5","59712abaafd8a4000160ff35","05/06/2022, 10:51:38",0.160520876555669,"33","Female","left",0,0,0,0,FALSE,"E_F_keira_knightley.png P_F_tehresy_may.png"
3348,"P_M_bill_clinton.png","P_M_donald_trump.png","TRUE","pictures/stimuli/P","pictures/stimuli/P","M","M","3","59712abaafd8a4000160ff35","05/06/2022, 10:51:38",-1.68790133832779,"33","Female","left",0,0,0,0,FALSE,"P_M_bill_clinton.png P_M_donald_trump.png"
2977,"E_F_jennifer_aniston.png","P_M_david_cameron.png","FALSE","pictures/stimuli/E","pictures/stimuli/P","F","M","5","59712abaafd8a4000160ff35","05/06/2022, 10:51:38",0.160520876555669,"33","Female","left",0,0,0,0,FALSE,"E_F_jennifer_aniston.png P_M_david_cameron.png"
4036,"E_F_Kate_Winslet.png","P_M_boris_johnson.png","FALSE","pictures/stimuli/E","pictures/stimuli/P","F","M","6","59712abaafd8a4000160ff35","05/06/2022, 10:51:38",1.0847319839974,"33","Female","left",1,0,0,0,FALSE,"E_F_Kate_Winslet.png P_M_boris_johnson.png"
3274,"P_M_bill_clinton.png","P_M_george_Wbush.png","TRUE","pictures/stimuli/P","pictures/stimuli/P","M","M","5","59712abaafd8a4000160ff35","05/06/2022, 10:51:38",0.160520876555669,"33","Female","left",0,1,0,0,FALSE,"P_M_bill_clinton.png P_M_george_Wbush.png"
1927,"E_M_michael_caine.png","P_F_hillary_clinton.png","FALSE","pictures/stimuli/E","pictures/stimuli/P","M","F","6","59712abaafd8a4000160ff35","05/06/2022, 10:51:38",1.0847319839974,"33","Female","left",0,1,0,0,FALSE,"E_M_michael_caine.png P_F_hillary_clinton.png"
3852,"E_M_nicolas_cage.png","P_M_george_Wbush.png","FALSE","pictures/stimuli/E","pictures/stimuli/P","M","M","6","59712abaafd8a4000160ff35","05/06/2022, 10:51:38",1.0847319839974,"33","Female","left",0,1,0,0,FALSE,"E_M_nicolas_cage.png P_M_george_Wbush.png"
2437,"E_M_tom_hankes.png","P_F_hillary_clinton.png","FALSE","pictures/stimuli/E","pictures/stimuli/P","M","F","5","59712abaafd8a4000160ff35","05/06/2022, 10:51:38",0.160520876555669,"33","Female","left",0,1,0,0,FALSE,"E_M_tom_hankes.png P_F_hillary_clinton.png"
4241,"E_F_jennifer_aniston.png","E_F_Judi_Dench.png","TRUE","pictures/stimuli/E","pictures/stimuli/E","F","F","5","59712abaafd8a4000160ff35","05/06/2022, 10:51:38",0.160520876555669,"33","Female","left",0,1,0,0,FALSE,"E_F_jennifer_aniston.png E_F_Judi_Dench.png"
2916,"E_F_Kate_Winslet.png","E_M_robert_de_niro.png","TRUE","pictures/stimuli/E","pictures/stimuli/E","F","M","6","59712abaafd8a4000160ff35","05/06/2022, 10:51:38",1.0847319839974,"33","Female","left",1,0,0,0,FALSE,"E_F_Kate_Winslet.png E_M_robert_de_niro.png"
2823,"E_F_sandra_bullock.png","E_M_nicolas_cage.png","TRUE","pictures/stimuli/E","pictures/stimuli/E","F","M","5","59712abaafd8a4000160ff35","05/06/2022, 10:51:38",0.160520876555669,"33","Female","left",1,0,0,0,FALSE,"E_F_sandra_bullock.png E_M_nicolas_cage.png"
1674,"E_F_sandra_bullock.png","E_M_robert_de_niro.png","TRUE","pictures/stimuli/E","pictures/stimuli/E","F","M","6","59712abaafd8a4000160ff35","05/06/2022, 10:51:38",1.0847319839974,"33","Female","left",1,0,0,0,FALSE,"E_F_sandra_bullock.png E_M_robert_de_niro.png"
2102,"E_F_jennifer_aniston.png","P_M_Tony_Blair.png","FALSE","pictures/stimuli/E","pictures/stimuli/P","F","M","6","59712abaafd8a4000160ff35","05/06/2022, 10:51:38",1.0847319839974,"33","Female","left",0,0,0,0,FALSE,"E_F_jennifer_aniston.png P_M_Tony_Blair.png"
6393,"E_M_robert_de_niro.png","P_M_david_cameron.png","FALSE","pictures/stimuli/E","pictures/stimuli/P","M","M","3","59712abaafd8a4000160ff35","05/06/2022, 10:51:38",-1.68790133832779,"33","Female","left",0,0,0,0,FALSE,"E_M_robert_de_niro.png P_M_david_cameron.png"
2108,"P_M_george_Wbush.png","P_M_Tony_Blair.png","TRUE","pictures/stimuli/P","pictures/stimuli/P","M","M","5","59712abaafd8a4000160ff35","05/06/2022, 10:51:38",0.160520876555669,"33","Female","left",1,0,0,0,FALSE,"P_M_george_Wbush.png P_M_Tony_Blair.png"
2040,"E_M_Hugh_Grant.png","E_M_michael_caine.png","TRUE","pictures/stimuli/E","pictures/stimuli/E","M","M","6","59712abaafd8a4000160ff35","05/06/2022, 10:51:38",1.0847319839974,"33","Female","left",0,0,0,0,FALSE,"E_M_Hugh_Grant.png E_M_michael_caine.png"
4403,"P_M_boris_johnson.png","P_M_david_cameron.png","TRUE","pictures/stimuli/P","pictures/stimuli/P","M","M","4","59712abaafd8a4000160ff35","05/06/2022, 10:51:38",-0.763690230886061,"33","Female","left",0,0,0,0,FALSE,"P_M_boris_johnson.png P_M_david_cameron.png"
2270,"E_M_Hugh_Grant.png","P_M_david_cameron.png","FALSE","pictures/stimuli/E","pictures/stimuli/P","M","M","5","59712abaafd8a4000160ff35","05/06/2022, 10:51:38",0.160520876555669,"33","Female","left",0,0,0,0,FALSE,"E_M_Hugh_Grant.png P_M_david_cameron.png"
2142,"E_F_Kate_Winslet.png","E_M_Hugh_Grant.png","TRUE","pictures/stimuli/E","pictures/stimuli/E","F","M","5","59712abaafd8a4000160ff35","05/06/2022, 10:51:38",0.160520876555669,"33","Female","left",1,0,0,0,FALSE,"E_F_Kate_Winslet.png E_M_Hugh_Grant.png"
2823,"P_M_david_cameron.png","P_M_george_Wbush.png","TRUE","pictures/stimuli/P","pictures/stimuli/P","M","M","6","59712abaafd8a4000160ff35","05/06/2022, 10:51:38",1.0847319839974,"33","Female","left",0,1,0,0,FALSE,"P_M_david_cameron.png P_M_george_Wbush.png"
5708,"E_M_michael_caine.png","P_M_donald_trump.png","FALSE","pictures/stimuli/E","pictures/stimuli/P","M","M","6","59712abaafd8a4000160ff35","05/06/2022, 10:51:38",1.0847319839974,"33","Female","left",0,0,0,0,FALSE,"E_M_michael_caine.png P_M_donald_trump.png"
3388,"E_F_jennifer_aniston.png","P_M_george_Wbush.png","FALSE","pictures/stimuli/E","pictures/stimuli/P","F","M","6","59712abaafd8a4000160ff35","05/06/2022, 10:51:38",1.0847319839974,"33","Female","left",0,1,0,0,FALSE,"E_F_jennifer_aniston.png P_M_george_Wbush.png"
2286,"E_F_angelina_jolie.png","P_M_george_Wbush.png","FALSE","pictures/stimuli/E","pictures/stimuli/P","F","M","6","59712abaafd8a4000160ff35","05/06/2022, 10:51:38",1.0847319839974,"33","Female","left",0,1,0,0,FALSE,"E_F_angelina_jolie.png P_M_george_Wbush.png"
3900,"E_M_michael_caine.png","P_F_nicola_sturgeon.png","FALSE","pictures/stimuli/E","pictures/stimuli/P","M","F","5","59712abaafd8a4000160ff35","05/06/2022, 10:51:38",0.160520876555669,"33","Female","left",0,0,0,0,FALSE,"E_M_michael_caine.png P_F_nicola_sturgeon.png"
3929,"E_M_robert_de_niro.png","P_F_hillary_clinton.png","FALSE","pictures/stimuli/E","pictures/stimuli/P","M","F","5","59712abaafd8a4000160ff35","05/06/2022, 10:51:38",0.160520876555669,"33","Female","left",0,1,0,0,FALSE,"E_M_robert_de_niro.png P_F_hillary_clinton.png"
9198,"P_F_tehresy_may.png","P_M_donald_trump.png","TRUE","pictures/stimuli/P","pictures/stimuli/P","F","M","5","59712abaafd8a4000160ff35","05/06/2022, 10:51:38",0.160520876555669,"33","Female","left",0,0,0,0,FALSE,"P_F_tehresy_may.png P_M_donald_trump.png"
2124,"P_F_nicola_sturgeon.png","P_M_david_cameron.png","TRUE","pictures/stimuli/P","pictures/stimuli/P","F","M","4","59712abaafd8a4000160ff35","05/06/2022, 10:51:38",-0.763690230886061,"33","Female","left",0,0,0,0,FALSE,"P_F_nicola_sturgeon.png P_M_david_cameron.png"
1804,"E_F_sandra_bullock.png","P_M_bill_clinton.png","FALSE","pictures/stimuli/E","pictures/stimuli/P","F","M","5","59712abaafd8a4000160ff35","05/06/2022, 10:51:38",0.160520876555669,"33","Female","left",1,0,0,0,FALSE,"E_F_sandra_bullock.png P_M_bill_clinton.png"
1960,"E_M_Hugh_Grant.png","P_F_nicola_sturgeon.png","FALSE","pictures/stimuli/E","pictures/stimuli/P","M","F","6","59712abaafd8a4000160ff35","05/06/2022, 10:51:38",1.0847319839974,"33","Female","left",0,0,0,0,FALSE,"E_M_Hugh_Grant.png P_F_nicola_sturgeon.png"
2223,"P_F_hillary_clinton.png","P_M_david_cameron.png","TRUE","pictures/stimuli/P","pictures/stimuli/P","F","M","6","59712abaafd8a4000160ff35","05/06/2022, 10:51:38",1.0847319839974,"33","Female","left",1,0,0,0,FALSE,"P_F_hillary_clinton.png P_M_david_cameron.png"
2313,"E_F_Judi_Dench.png","P_F_nicola_sturgeon.png","FALSE","pictures/stimuli/E","pictures/stimuli/P","F","F","5","59712abaafd8a4000160ff35","05/06/2022, 10:51:38",0.160520876555669,"33","Female","left",1,0,0,0,FALSE,"E_F_Judi_Dench.png P_F_nicola_sturgeon.png"
1887,"E_F_keira_knightley.png","E_M_michael_caine.png","TRUE","pictures/stimuli/E","pictures/stimuli/E","F","M","6","59712abaafd8a4000160ff35","05/06/2022, 10:51:38",1.0847319839974,"33","Female","left",0,0,0,0,FALSE,"E_F_keira_knightley.png E_M_michael_caine.png"
1856,"E_F_angelina_jolie.png","P_M_donald_trump.png","FALSE","pictures/stimuli/E","pictures/stimuli/P","F","M","6","59712abaafd8a4000160ff35","05/06/2022, 10:51:38",1.0847319839974,"33","Female","left",0,0,0,0,FALSE,"E_F_angelina_jolie.png P_M_donald_trump.png"
2026,"P_M_bill_clinton.png","P_M_david_cameron.png","TRUE","pictures/stimuli/P","pictures/stimuli/P","M","M","5","59712abaafd8a4000160ff35","05/06/2022, 10:51:38",0.160520876555669,"33","Female","left",0,0,0,0,FALSE,"P_M_bill_clinton.png P_M_david_cameron.png"
2272,"E_F_Kate_Winslet.png","E_F_sandra_bullock.png","TRUE","pictures/stimuli/E","pictures/stimuli/E","F","F","4","59712abaafd8a4000160ff35","05/06/2022, 10:51:38",-0.763690230886061,"33","Female","left",1,1,0,0,FALSE,"E_F_Kate_Winslet.png E_F_sandra_bullock.png"
2011,"E_F_Kate_Winslet.png","E_M_nicolas_cage.png","TRUE","pictures/stimuli/E","pictures/stimuli/E","F","M","6","59712abaafd8a4000160ff35","05/06/2022, 10:51:38",1.0847319839974,"33","Female","left",1,0,0,0,FALSE,"E_F_Kate_Winslet.png E_M_nicolas_cage.png"
1951,"E_F_jennifer_aniston.png","E_M_michael_caine.png","TRUE","pictures/stimuli/E","pictures/stimuli/E","F","M","6","59712abaafd8a4000160ff35","05/06/2022, 10:51:38",1.0847319839974,"33","Female","left",0,0,0,0,FALSE,"E_F_jennifer_aniston.png E_M_michael_caine.png"
5032,"P_F_hillary_clinton.png","P_F_tehresy_may.png","TRUE","pictures/stimuli/P","pictures/stimuli/P","F","F","2","59712abaafd8a4000160ff35","05/06/2022, 10:51:38",-2.61211244576952,"33","Female","left",1,0,0,0,FALSE,"P_F_hillary_clinton.png P_F_tehresy_may.png"
2027,"P_F_nicola_sturgeon.png","P_M_george_Wbush.png","TRUE","pictures/stimuli/P","pictures/stimuli/P","F","M","6","59712abaafd8a4000160ff35","05/06/2022, 10:51:38",1.0847319839974,"33","Female","left",0,1,0,0,FALSE,"P_F_nicola_sturgeon.png P_M_george_Wbush.png"
6623,"P_M_bill_clinton.png","P_M_boris_johnson.png","TRUE","pictures/stimuli/P","pictures/stimuli/P","M","M","1","59712abaafd8a4000160ff35","05/06/2022, 10:51:38",-3.53632355321125,"33","Female","left",0,0,0,0,FALSE,"P_M_bill_clinton.png P_M_boris_johnson.png"
6331,"E_M_tom_hankes.png","P_M_bill_clinton.png","FALSE","pictures/stimuli/E","pictures/stimuli/P","M","M","4","59712abaafd8a4000160ff35","05/06/2022, 10:51:38",-0.763690230886061,"33","Female","left",0,0,0,0,FALSE,"E_M_tom_hankes.png P_M_bill_clinton.png"
4881,"E_M_robert_de_niro.png","P_M_donald_trump.png","FALSE","pictures/stimuli/E","pictures/stimuli/P","M","M","5","59712abaafd8a4000160ff35","05/06/2022, 10:51:38",0.160520876555669,"33","Female","left",0,0,0,0,FALSE,"E_M_robert_de_niro.png P_M_donald_trump.png"
2301,"E_M_robert_de_niro.png","P_M_bill_clinton.png","FALSE","pictures/stimuli/E","pictures/stimuli/P","M","M","3","59712abaafd8a4000160ff35","05/06/2022, 10:51:38",-1.68790133832779,"33","Female","left",0,0,0,0,FALSE,"E_M_robert_de_niro.png P_M_bill_clinton.png"
2175,"E_M_Hugh_Grant.png","P_F_tehresy_may.png","FALSE","pictures/stimuli/E","pictures/stimuli/P","M","F","5","59712abaafd8a4000160ff35","05/06/2022, 10:51:38",0.160520876555669,"33","Female","left",0,0,0,0,FALSE,"E_M_Hugh_Grant.png P_F_tehresy_may.png"
4496,"E_M_Hugh_Grant.png","E_M_robert_de_niro.png","TRUE","pictures/stimuli/E","pictures/stimuli/E","M","M","6","59712abaafd8a4000160ff35","05/06/2022, 10:51:38",1.0847319839974,"33","Female","left",0,0,0,0,FALSE,"E_M_Hugh_Grant.png E_M_robert_de_niro.png"
2572,"E_F_angelina_jolie.png","P_F_hillary_clinton.png","FALSE","pictures/stimuli/E","pictures/stimuli/P","F","F","5","59712abaafd8a4000160ff35","05/06/2022, 10:51:38",0.160520876555669,"33","Female","left",0,1,0,0,FALSE,"E_F_angelina_jolie.png P_F_hillary_clinton.png"
3606,"E_F_keira_knightley.png","E_M_tom_hankes.png","TRUE","pictures/stimuli/E","pictures/stimuli/E","F","M","6","59712abaafd8a4000160ff35","05/06/2022, 10:51:38",1.0847319839974,"33","Female","left",0,0,0,0,FALSE,"E_F_keira_knightley.png E_M_tom_hankes.png"
2505,"P_M_donald_trump.png","P_M_george_Wbush.png","TRUE","pictures/stimuli/P","pictures/stimuli/P","M","M","5","59712abaafd8a4000160ff35","05/06/2022, 10:51:38",0.160520876555669,"33","Female","left",0,1,0,0,FALSE,"P_M_donald_trump.png P_M_george_Wbush.png"
5441,"P_F_hillary_clinton.png","P_F_nicola_sturgeon.png","TRUE","pictures/stimuli/P","pictures/stimuli/P","F","F","4","59712abaafd8a4000160ff35","05/06/2022, 10:51:38",-0.763690230886061,"33","Female","left",1,0,0,0,FALSE,"P_F_hillary_clinton.png P_F_nicola_sturgeon.png"
2482,"E_M_michael_caine.png","P_M_bill_clinton.png","FALSE","pictures/stimuli/E","pictures/stimuli/P","M","M","6","59712abaafd8a4000160ff35","05/06/2022, 10:51:38",1.0847319839974,"33","Female","left",0,0,0,0,FALSE,"E_M_michael_caine.png P_M_bill_clinton.png"
1854,"P_F_hillary_clinton.png","P_M_george_Wbush.png","TRUE","pictures/stimuli/P","pictures/stimuli/P","F","M","6","59712abaafd8a4000160ff35","05/06/2022, 10:51:38",1.0847319839974,"33","Female","left",1,1,0,0,FALSE,"P_F_hillary_clinton.png P_M_george_Wbush.png"
2039,"E_M_robert_de_niro.png","P_F_tehresy_may.png","FALSE","pictures/stimuli/E","pictures/stimuli/P","M","F","6","59712abaafd8a4000160ff35","05/06/2022, 10:51:38",1.0847319839974,"33","Female","left",0,0,0,0,FALSE,"E_M_robert_de_niro.png P_F_tehresy_may.png"
4967,"E_F_angelina_jolie.png","E_F_keira_knightley.png","TRUE","pictures/stimuli/E","pictures/stimuli/E","F","F","2","59712abaafd8a4000160ff35","05/06/2022, 10:51:38",-2.61211244576952,"33","Female","left",0,0,0,0,FALSE,"E_F_angelina_jolie.png E_F_keira_knightley.png"
2250,"P_M_david_cameron.png","P_M_Tony_Blair.png","TRUE","pictures/stimuli/P","pictures/stimuli/P","M","M","3","59712abaafd8a4000160ff35","05/06/2022, 10:51:38",-1.68790133832779,"33","Female","left",0,0,0,0,FALSE,"P_M_david_cameron.png P_M_Tony_Blair.png"
