"RT","img_1","img_2","isSameProffesion","img1proffesion","img2proffesion","img1Gender","img2Gender","keyPressed","participant","time","pair","normlised_keyPress","age","gender","handedness","isFamiliar_img1","isFamiliar_img2","reject_trial"
22503,"E_M_tom_hankes.jpg","P_M_george_Wbush.jpg","FALSE","pictures/stimuli/E","pictures/stimuli/P","M","M","5","580886502e30a90001da9441","04/26/2022, 13:51:54","E_M_tom_hankes.jpg P_M_george_Wbush.jpg",0,"34","Female","left",1,0,TRUE
4300,"E_F_keira_knightley.jpg","P_M_bill_clinton.jpg","FALSE","pictures/stimuli/E","pictures/stimuli/P","F","M","5","580886502e30a90001da9441","04/26/2022, 13:51:54","E_F_keira_knightley.jpg P_M_bill_clinton.jpg",0,"34","Female","left",1,0,TRUE
4639,"E_M_robert_de_niro.jpg","P_F_nicola_sturgeon.jpg","FALSE","pictures/stimuli/E","pictures/stimuli/P","M","F","5","580886502e30a90001da9441","04/26/2022, 13:51:54","E_M_robert_de_niro.jpg P_F_nicola_sturgeon.jpg",0,"34","Female","left",1,0,TRUE
4798,"E_F_angelina_jolie.jpg","E_M_tom_hankes.jpg","TRUE","pictures/stimuli/E","pictures/stimuli/E","F","M","3","580886502e30a90001da9441","04/26/2022, 13:51:54","E_F_angelina_jolie.jpg E_M_tom_hankes.jpg",-1.27644441509514,"34","Female","left",1,1,FALSE
4866,"E_F_angelina_jolie.jpg","P_M_david_cameron.jpg","FALSE","pictures/stimuli/E","pictures/stimuli/P","F","M","6","580886502e30a90001da9441","04/26/2022, 13:51:54","E_F_angelina_jolie.jpg P_M_david_cameron.jpg",0.638222207547572,"34","Female","left",1,1,FALSE
4022,"E_F_Judi_Dench.jpg","E_M_michael_caine.jpg","TRUE","pictures/stimuli/E","pictures/stimuli/E","F","M","1","580886502e30a90001da9441","04/26/2022, 13:51:54","E_F_Judi_Dench.jpg E_M_michael_caine.jpg",-2.55288883019029,"34","Female","left",1,1,FALSE
3537,"E_F_keira_knightley.jpg","P_M_donald_trump.jpg","FALSE","pictures/stimuli/E","pictures/stimuli/P","F","M","6","580886502e30a90001da9441","04/26/2022, 13:51:54","E_F_keira_knightley.jpg P_M_donald_trump.jpg",0.638222207547572,"34","Female","left",1,1,FALSE
2913,"E_M_Hugh_Grant.jpg","E_M_tom_hankes.jpg","TRUE","pictures/stimuli/E","pictures/stimuli/E","M","M","2","580886502e30a90001da9441","04/26/2022, 13:51:54","E_M_Hugh_Grant.jpg E_M_tom_hankes.jpg",-1.91466662264272,"34","Female","left",1,1,FALSE
3431,"P_F_hillary_clinton.jpg","P_M_Tony_Blair.jpg","TRUE","pictures/stimuli/P","pictures/stimuli/P","F","M","2","580886502e30a90001da9441","04/26/2022, 13:51:54","P_F_hillary_clinton.jpg P_M_Tony_Blair.jpg",-1.91466662264272,"34","Female","left",0,1,TRUE
3006,"E_F_Kate_Winslet.jpg","E_M_Hugh_Grant.jpg","TRUE","pictures/stimuli/E","pictures/stimuli/E","F","M","2","580886502e30a90001da9441","04/26/2022, 13:51:54","E_F_Kate_Winslet.jpg E_M_Hugh_Grant.jpg",-1.91466662264272,"34","Female","left",1,1,FALSE
3306,"E_F_Kate_Winslet.jpg","E_F_keira_knightley.jpg","TRUE","pictures/stimuli/E","pictures/stimuli/E","F","F","2","580886502e30a90001da9441","04/26/2022, 13:51:54","E_F_Kate_Winslet.jpg E_F_keira_knightley.jpg",-1.91466662264272,"34","Female","left",1,1,FALSE
4957,"E_M_tom_hankes.jpg","P_M_bill_clinton.jpg","FALSE","pictures/stimuli/E","pictures/stimuli/P","M","M","6","580886502e30a90001da9441","04/26/2022, 13:51:54","E_M_tom_hankes.jpg P_M_bill_clinton.jpg",0.638222207547572,"34","Female","left",1,0,TRUE
3549,"E_F_jennifer_aniston.jpg","P_M_david_cameron.jpg","FALSE","pictures/stimuli/E","pictures/stimuli/P","F","M","6","580886502e30a90001da9441","04/26/2022, 13:51:54","E_F_jennifer_aniston.jpg P_M_david_cameron.jpg",0.638222207547572,"34","Female","left",1,1,FALSE
2618,"E_M_robert_de_niro.jpg","P_M_david_cameron.jpg","FALSE","pictures/stimuli/E","pictures/stimuli/P","M","M","6","580886502e30a90001da9441","04/26/2022, 13:51:54","E_M_robert_de_niro.jpg P_M_david_cameron.jpg",0.638222207547572,"34","Female","left",1,1,FALSE
2859,"P_F_hillary_clinton.jpg","P_M_george_Wbush.jpg","TRUE","pictures/stimuli/P","pictures/stimuli/P","F","M","2","580886502e30a90001da9441","04/26/2022, 13:51:54","P_F_hillary_clinton.jpg P_M_george_Wbush.jpg",-1.91466662264272,"34","Female","left",0,0,TRUE
2820,"E_M_nicolas_cage.jpg","P_M_Tony_Blair.jpg","FALSE","pictures/stimuli/E","pictures/stimuli/P","M","M","6","580886502e30a90001da9441","04/26/2022, 13:51:54","E_M_nicolas_cage.jpg P_M_Tony_Blair.jpg",0.638222207547572,"34","Female","left",1,1,FALSE
4451,"P_M_bill_clinton.jpg","P_M_Tony_Blair.jpg","TRUE","pictures/stimuli/P","pictures/stimuli/P","M","M","1","580886502e30a90001da9441","04/26/2022, 13:51:54","P_M_bill_clinton.jpg P_M_Tony_Blair.jpg",-2.55288883019029,"34","Female","left",0,1,TRUE
2527,"E_F_keira_knightley.jpg","P_M_boris_johnson.jpg","FALSE","pictures/stimuli/E","pictures/stimuli/P","F","M","6","580886502e30a90001da9441","04/26/2022, 13:51:54","E_F_keira_knightley.jpg P_M_boris_johnson.jpg",0.638222207547572,"34","Female","left",1,1,FALSE
3680,"P_M_bill_clinton.jpg","P_M_boris_johnson.jpg","TRUE","pictures/stimuli/P","pictures/stimuli/P","M","M","2","580886502e30a90001da9441","04/26/2022, 13:51:54","P_M_bill_clinton.jpg P_M_boris_johnson.jpg",-1.91466662264272,"34","Female","left",0,1,TRUE
2440,"E_M_nicolas_cage.jpg","P_F_hillary_clinton.jpg","FALSE","pictures/stimuli/E","pictures/stimuli/P","M","F","6","580886502e30a90001da9441","04/26/2022, 13:51:54","E_M_nicolas_cage.jpg P_F_hillary_clinton.jpg",0.638222207547572,"34","Female","left",1,0,TRUE
3245,"E_F_sandra_bullock.jpg","P_M_donald_trump.jpg","FALSE","pictures/stimuli/E","pictures/stimuli/P","F","M","6","580886502e30a90001da9441","04/26/2022, 13:51:54","E_F_sandra_bullock.jpg P_M_donald_trump.jpg",0.638222207547572,"34","Female","left",1,1,FALSE
3680,"E_F_sandra_bullock.jpg","E_M_nicolas_cage.jpg","TRUE","pictures/stimuli/E","pictures/stimuli/E","F","M","1","580886502e30a90001da9441","04/26/2022, 13:51:54","E_F_sandra_bullock.jpg E_M_nicolas_cage.jpg",-2.55288883019029,"34","Female","left",1,1,FALSE
4932,"P_M_bill_clinton.jpg","P_M_donald_trump.jpg","TRUE","pictures/stimuli/P","pictures/stimuli/P","M","M","1","580886502e30a90001da9441","04/26/2022, 13:51:54","P_M_bill_clinton.jpg P_M_donald_trump.jpg",-2.55288883019029,"34","Female","left",0,1,TRUE
2900,"P_M_donald_trump.jpg","P_M_george_Wbush.jpg","TRUE","pictures/stimuli/P","pictures/stimuli/P","M","M","2","580886502e30a90001da9441","04/26/2022, 13:51:54","P_M_donald_trump.jpg P_M_george_Wbush.jpg",-1.91466662264272,"34","Female","left",1,0,TRUE
2338,"E_M_nicolas_cage.jpg","P_M_boris_johnson.jpg","FALSE","pictures/stimuli/E","pictures/stimuli/P","M","M","6","580886502e30a90001da9441","04/26/2022, 13:51:54","E_M_nicolas_cage.jpg P_M_boris_johnson.jpg",0.638222207547572,"34","Female","left",1,1,FALSE
3454,"P_M_george_Wbush.jpg","P_M_Tony_Blair.jpg","TRUE","pictures/stimuli/P","pictures/stimuli/P","M","M","2","580886502e30a90001da9441","04/26/2022, 13:51:54","P_M_george_Wbush.jpg P_M_Tony_Blair.jpg",-1.91466662264272,"34","Female","left",0,1,TRUE
4205,"E_F_sandra_bullock.jpg","E_M_tom_hankes.jpg","TRUE","pictures/stimuli/E","pictures/stimuli/E","F","M","2","580886502e30a90001da9441","04/26/2022, 13:51:54","E_F_sandra_bullock.jpg E_M_tom_hankes.jpg",-1.91466662264272,"34","Female","left",1,1,FALSE
2628,"E_M_robert_de_niro.jpg","P_M_Tony_Blair.jpg","FALSE","pictures/stimuli/E","pictures/stimuli/P","M","M","6","580886502e30a90001da9441","04/26/2022, 13:51:54","E_M_robert_de_niro.jpg P_M_Tony_Blair.jpg",0.638222207547572,"34","Female","left",1,1,FALSE
3855,"E_F_keira_knightley.jpg","E_M_robert_de_niro.jpg","TRUE","pictures/stimuli/E","pictures/stimuli/E","F","M","2","580886502e30a90001da9441","04/26/2022, 13:51:54","E_F_keira_knightley.jpg E_M_robert_de_niro.jpg",-1.91466662264272,"34","Female","left",1,1,FALSE
2533,"P_M_donald_trump.jpg","P_M_Tony_Blair.jpg","TRUE","pictures/stimuli/P","pictures/stimuli/P","M","M","2","580886502e30a90001da9441","04/26/2022, 13:51:54","P_M_donald_trump.jpg P_M_Tony_Blair.jpg",-1.91466662264272,"34","Female","left",1,1,FALSE
2787,"E_F_angelina_jolie.jpg","E_M_robert_de_niro.jpg","TRUE","pictures/stimuli/E","pictures/stimuli/E","F","M","2","580886502e30a90001da9441","04/26/2022, 13:51:54","E_F_angelina_jolie.jpg E_M_robert_de_niro.jpg",-1.91466662264272,"34","Female","left",1,1,FALSE
2504,"E_F_angelina_jolie.jpg","P_M_bill_clinton.jpg","FALSE","pictures/stimuli/E","pictures/stimuli/P","F","M","6","580886502e30a90001da9441","04/26/2022, 13:51:54","E_F_angelina_jolie.jpg P_M_bill_clinton.jpg",0.638222207547572,"34","Female","left",1,0,TRUE
3638,"P_F_hillary_clinton.jpg","P_F_nicola_sturgeon.jpg","TRUE","pictures/stimuli/P","pictures/stimuli/P","F","F","2","580886502e30a90001da9441","04/26/2022, 13:51:54","P_F_hillary_clinton.jpg P_F_nicola_sturgeon.jpg",-1.91466662264272,"34","Female","left",0,0,TRUE
2902,"P_F_hillary_clinton.jpg","P_M_boris_johnson.jpg","TRUE","pictures/stimuli/P","pictures/stimuli/P","F","M","2","580886502e30a90001da9441","04/26/2022, 13:51:54","P_F_hillary_clinton.jpg P_M_boris_johnson.jpg",-1.91466662264272,"34","Female","left",0,1,TRUE
2630,"E_F_keira_knightley.jpg","E_M_Hugh_Grant.jpg","TRUE","pictures/stimuli/E","pictures/stimuli/E","F","M","2","580886502e30a90001da9441","04/26/2022, 13:51:54","E_F_keira_knightley.jpg E_M_Hugh_Grant.jpg",-1.91466662264272,"34","Female","left",1,1,FALSE
2861,"E_F_keira_knightley.jpg","P_F_tehresy_may.jpg","FALSE","pictures/stimuli/E","pictures/stimuli/P","F","F","6","580886502e30a90001da9441","04/26/2022, 13:51:54","E_F_keira_knightley.jpg P_F_tehresy_may.jpg",0.638222207547572,"34","Female","left",1,1,FALSE
4045,"E_F_Kate_Winslet.jpg","P_M_boris_johnson.jpg","FALSE","pictures/stimuli/E","pictures/stimuli/P","F","M","6","580886502e30a90001da9441","04/26/2022, 13:51:54","E_F_Kate_Winslet.jpg P_M_boris_johnson.jpg",0.638222207547572,"34","Female","left",1,1,FALSE
3924,"E_F_Kate_Winslet.jpg","P_M_george_Wbush.jpg","FALSE","pictures/stimuli/E","pictures/stimuli/P","F","M","6","580886502e30a90001da9441","04/26/2022, 13:51:54","E_F_Kate_Winslet.jpg P_M_george_Wbush.jpg",0.638222207547572,"34","Female","left",1,0,TRUE
2334,"E_F_Judi_Dench.jpg","E_M_tom_hankes.jpg","TRUE","pictures/stimuli/E","pictures/stimuli/E","F","M","2","580886502e30a90001da9441","04/26/2022, 13:51:54","E_F_Judi_Dench.jpg E_M_tom_hankes.jpg",-1.91466662264272,"34","Female","left",1,1,FALSE
2920,"E_M_Hugh_Grant.jpg","P_F_hillary_clinton.jpg","FALSE","pictures/stimuli/E","pictures/stimuli/P","M","F","6","580886502e30a90001da9441","04/26/2022, 13:51:54","E_M_Hugh_Grant.jpg P_F_hillary_clinton.jpg",0.638222207547572,"34","Female","left",1,0,TRUE
3140,"E_F_Judi_Dench.jpg","P_M_bill_clinton.jpg","FALSE","pictures/stimuli/E","pictures/stimuli/P","F","M","6","580886502e30a90001da9441","04/26/2022, 13:51:54","E_F_Judi_Dench.jpg P_M_bill_clinton.jpg",0.638222207547572,"34","Female","left",1,0,TRUE
6173,"E_F_jennifer_aniston.jpg","E_M_robert_de_niro.jpg","TRUE","pictures/stimuli/E","pictures/stimuli/E","F","M","2","580886502e30a90001da9441","04/26/2022, 13:51:54","E_F_jennifer_aniston.jpg E_M_robert_de_niro.jpg",-1.91466662264272,"34","Female","left",1,1,FALSE
3495,"E_F_keira_knightley.jpg","E_F_sandra_bullock.jpg","TRUE","pictures/stimuli/E","pictures/stimuli/E","F","F","2","580886502e30a90001da9441","04/26/2022, 13:51:54","E_F_keira_knightley.jpg E_F_sandra_bullock.jpg",-1.91466662264272,"34","Female","left",1,1,FALSE
2577,"E_M_robert_de_niro.jpg","P_F_tehresy_may.jpg","FALSE","pictures/stimuli/E","pictures/stimuli/P","M","F","6","580886502e30a90001da9441","04/26/2022, 13:51:54","E_M_robert_de_niro.jpg P_F_tehresy_may.jpg",0.638222207547572,"34","Female","left",1,1,FALSE
4291,"P_F_nicola_sturgeon.jpg","P_F_tehresy_may.jpg","TRUE","pictures/stimuli/P","pictures/stimuli/P","F","F","2","580886502e30a90001da9441","04/26/2022, 13:51:54","P_F_nicola_sturgeon.jpg P_F_tehresy_may.jpg",-1.91466662264272,"34","Female","left",0,1,TRUE
4425,"E_F_Kate_Winslet.jpg","E_M_tom_hankes.jpg","TRUE","pictures/stimuli/E","pictures/stimuli/E","F","M","1","580886502e30a90001da9441","04/26/2022, 13:51:54","E_F_Kate_Winslet.jpg E_M_tom_hankes.jpg",-2.55288883019029,"34","Female","left",1,1,FALSE
2435,"E_F_Kate_Winslet.jpg","E_F_sandra_bullock.jpg","TRUE","pictures/stimuli/E","pictures/stimuli/E","F","F","1","580886502e30a90001da9441","04/26/2022, 13:51:54","E_F_Kate_Winslet.jpg E_F_sandra_bullock.jpg",-2.55288883019029,"34","Female","left",1,1,FALSE
2153,"E_M_Hugh_Grant.jpg","P_F_tehresy_may.jpg","FALSE","pictures/stimuli/E","pictures/stimuli/P","M","F","6","580886502e30a90001da9441","04/26/2022, 13:51:54","E_M_Hugh_Grant.jpg P_F_tehresy_may.jpg",0.638222207547572,"34","Female","left",1,1,FALSE
3475,"E_F_Judi_Dench.jpg","E_F_sandra_bullock.jpg","TRUE","pictures/stimuli/E","pictures/stimuli/E","F","F","2","580886502e30a90001da9441","04/26/2022, 13:51:54","E_F_Judi_Dench.jpg E_F_sandra_bullock.jpg",-1.91466662264272,"34","Female","left",1,1,FALSE
2664,"P_F_tehresy_may.jpg","P_M_Tony_Blair.jpg","TRUE","pictures/stimuli/P","pictures/stimuli/P","F","M","2","580886502e30a90001da9441","04/26/2022, 13:51:54","P_F_tehresy_may.jpg P_M_Tony_Blair.jpg",-1.91466662264272,"34","Female","left",1,1,FALSE
2533,"P_F_tehresy_may.jpg","P_M_donald_trump.jpg","TRUE","pictures/stimuli/P","pictures/stimuli/P","F","M","2","580886502e30a90001da9441","04/26/2022, 13:51:54","P_F_tehresy_may.jpg P_M_donald_trump.jpg",-1.91466662264272,"34","Female","left",1,1,FALSE
2278,"E_F_sandra_bullock.jpg","P_M_Tony_Blair.jpg","FALSE","pictures/stimuli/E","pictures/stimuli/P","F","M","6","580886502e30a90001da9441","04/26/2022, 13:51:54","E_F_sandra_bullock.jpg P_M_Tony_Blair.jpg",0.638222207547572,"34","Female","left",1,1,FALSE
2489,"E_M_tom_hankes.jpg","P_F_nicola_sturgeon.jpg","FALSE","pictures/stimuli/E","pictures/stimuli/P","M","F","6","580886502e30a90001da9441","04/26/2022, 13:51:54","E_M_tom_hankes.jpg P_F_nicola_sturgeon.jpg",0.638222207547572,"34","Female","left",1,0,TRUE
3643,"E_F_Kate_Winslet.jpg","P_M_david_cameron.jpg","FALSE","pictures/stimuli/E","pictures/stimuli/P","F","M","6","580886502e30a90001da9441","04/26/2022, 13:51:54","E_F_Kate_Winslet.jpg P_M_david_cameron.jpg",0.638222207547572,"34","Female","left",1,1,FALSE
2527,"E_M_michael_caine.jpg","P_F_tehresy_may.jpg","FALSE","pictures/stimuli/E","pictures/stimuli/P","M","F","6","580886502e30a90001da9441","04/26/2022, 13:51:54","E_M_michael_caine.jpg P_F_tehresy_may.jpg",0.638222207547572,"34","Female","left",1,1,FALSE
3828,"E_M_michael_caine.jpg","E_M_tom_hankes.jpg","TRUE","pictures/stimuli/E","pictures/stimuli/E","M","M","1","580886502e30a90001da9441","04/26/2022, 13:51:54","E_M_michael_caine.jpg E_M_tom_hankes.jpg",-2.55288883019029,"34","Female","left",1,1,FALSE
2405,"E_F_sandra_bullock.jpg","P_M_bill_clinton.jpg","FALSE","pictures/stimuli/E","pictures/stimuli/P","F","M","6","580886502e30a90001da9441","04/26/2022, 13:51:54","E_F_sandra_bullock.jpg P_M_bill_clinton.jpg",0.638222207547572,"34","Female","left",1,0,TRUE
3152,"E_M_michael_caine.jpg","P_F_nicola_sturgeon.jpg","FALSE","pictures/stimuli/E","pictures/stimuli/P","M","F","6","580886502e30a90001da9441","04/26/2022, 13:51:54","E_M_michael_caine.jpg P_F_nicola_sturgeon.jpg",0.638222207547572,"34","Female","left",1,0,TRUE
2689,"E_F_Judi_Dench.jpg","E_F_keira_knightley.jpg","TRUE","pictures/stimuli/E","pictures/stimuli/E","F","F","2","580886502e30a90001da9441","04/26/2022, 13:51:54","E_F_Judi_Dench.jpg E_F_keira_knightley.jpg",-1.91466662264272,"34","Female","left",1,1,FALSE
2298,"E_M_robert_de_niro.jpg","P_M_george_Wbush.jpg","FALSE","pictures/stimuli/E","pictures/stimuli/P","M","M","6","580886502e30a90001da9441","04/26/2022, 13:51:54","E_M_robert_de_niro.jpg P_M_george_Wbush.jpg",0.638222207547572,"34","Female","left",1,0,TRUE
2275,"E_M_robert_de_niro.jpg","P_M_boris_johnson.jpg","FALSE","pictures/stimuli/E","pictures/stimuli/P","M","M","6","580886502e30a90001da9441","04/26/2022, 13:51:54","E_M_robert_de_niro.jpg P_M_boris_johnson.jpg",0.638222207547572,"34","Female","left",1,1,FALSE
9686,"E_M_Hugh_Grant.jpg","P_M_boris_johnson.jpg","FALSE","pictures/stimuli/E","pictures/stimuli/P","M","M","6","580886502e30a90001da9441","04/26/2022, 13:51:54","E_M_Hugh_Grant.jpg P_M_boris_johnson.jpg",0.638222207547572,"34","Female","left",1,1,FALSE
18569,"E_F_Judi_Dench.jpg","P_M_david_cameron.jpg","FALSE","pictures/stimuli/E","pictures/stimuli/P","F","M","6","580886502e30a90001da9441","04/26/2022, 13:51:54","E_F_Judi_Dench.jpg P_M_david_cameron.jpg",0.638222207547572,"34","Female","left",1,1,FALSE
18327,"E_F_keira_knightley.jpg","P_M_david_cameron.jpg","FALSE","pictures/stimuli/E","pictures/stimuli/P","F","M","6","580886502e30a90001da9441","04/26/2022, 13:51:54","E_F_keira_knightley.jpg P_M_david_cameron.jpg",0.638222207547572,"34","Female","left",1,1,FALSE
5900,"P_F_nicola_sturgeon.jpg","P_M_donald_trump.jpg","TRUE","pictures/stimuli/P","pictures/stimuli/P","F","M","6","580886502e30a90001da9441","04/26/2022, 13:51:54","P_F_nicola_sturgeon.jpg P_M_donald_trump.jpg",0.638222207547572,"34","Female","left",0,1,TRUE
7007,"P_M_bill_clinton.jpg","P_M_david_cameron.jpg","TRUE","pictures/stimuli/P","pictures/stimuli/P","M","M","5","580886502e30a90001da9441","04/26/2022, 13:51:54","P_M_bill_clinton.jpg P_M_david_cameron.jpg",0,"34","Female","left",0,1,TRUE
6525,"E_M_michael_caine.jpg","E_M_robert_de_niro.jpg","TRUE","pictures/stimuli/E","pictures/stimuli/E","M","M","4","580886502e30a90001da9441","04/26/2022, 13:51:54","E_M_michael_caine.jpg E_M_robert_de_niro.jpg",-0.638222207547572,"34","Female","left",1,1,FALSE
5281,"E_M_Hugh_Grant.jpg","E_M_michael_caine.jpg","TRUE","pictures/stimuli/E","pictures/stimuli/E","M","M","5","580886502e30a90001da9441","04/26/2022, 13:51:54","E_M_Hugh_Grant.jpg E_M_michael_caine.jpg",0,"34","Female","left",1,1,FALSE
7294,"E_F_Judi_Dench.jpg","P_M_boris_johnson.jpg","FALSE","pictures/stimuli/E","pictures/stimuli/P","F","M","6","580886502e30a90001da9441","04/26/2022, 13:51:54","E_F_Judi_Dench.jpg P_M_boris_johnson.jpg",0.638222207547572,"34","Female","left",1,1,FALSE
4074,"E_M_robert_de_niro.jpg","P_F_hillary_clinton.jpg","FALSE","pictures/stimuli/E","pictures/stimuli/P","M","F","6","580886502e30a90001da9441","04/26/2022, 13:51:54","E_M_robert_de_niro.jpg P_F_hillary_clinton.jpg",0.638222207547572,"34","Female","left",1,0,TRUE
3549,"E_F_Kate_Winslet.jpg","P_F_hillary_clinton.jpg","FALSE","pictures/stimuli/E","pictures/stimuli/P","F","F","5","580886502e30a90001da9441","04/26/2022, 13:51:54","E_F_Kate_Winslet.jpg P_F_hillary_clinton.jpg",0,"34","Female","left",1,0,TRUE
3036,"E_F_keira_knightley.jpg","P_F_hillary_clinton.jpg","FALSE","pictures/stimuli/E","pictures/stimuli/P","F","F","5","580886502e30a90001da9441","04/26/2022, 13:51:54","E_F_keira_knightley.jpg P_F_hillary_clinton.jpg",0,"34","Female","left",1,0,TRUE
4124,"E_F_angelina_jolie.jpg","E_F_jennifer_aniston.jpg","TRUE","pictures/stimuli/E","pictures/stimuli/E","F","F","4","580886502e30a90001da9441","04/26/2022, 13:51:54","E_F_angelina_jolie.jpg E_F_jennifer_aniston.jpg",-0.638222207547572,"34","Female","left",1,1,FALSE
2699,"E_F_jennifer_aniston.jpg","E_M_tom_hankes.jpg","TRUE","pictures/stimuli/E","pictures/stimuli/E","F","M","5","580886502e30a90001da9441","04/26/2022, 13:51:54","E_F_jennifer_aniston.jpg E_M_tom_hankes.jpg",0,"34","Female","left",1,1,FALSE
2532,"E_F_sandra_bullock.jpg","E_M_Hugh_Grant.jpg","TRUE","pictures/stimuli/E","pictures/stimuli/E","F","M","5","580886502e30a90001da9441","04/26/2022, 13:51:54","E_F_sandra_bullock.jpg E_M_Hugh_Grant.jpg",0,"34","Female","left",1,1,FALSE
2880,"E_F_sandra_bullock.jpg","P_F_hillary_clinton.jpg","FALSE","pictures/stimuli/E","pictures/stimuli/P","F","F","5","580886502e30a90001da9441","04/26/2022, 13:51:54","E_F_sandra_bullock.jpg P_F_hillary_clinton.jpg",0,"34","Female","left",1,0,TRUE
2909,"E_M_robert_de_niro.jpg","P_M_bill_clinton.jpg","FALSE","pictures/stimuli/E","pictures/stimuli/P","M","M","5","580886502e30a90001da9441","04/26/2022, 13:51:54","E_M_robert_de_niro.jpg P_M_bill_clinton.jpg",0,"34","Female","left",1,0,TRUE
4349,"P_F_nicola_sturgeon.jpg","P_M_george_Wbush.jpg","TRUE","pictures/stimuli/P","pictures/stimuli/P","F","M","6","580886502e30a90001da9441","04/26/2022, 13:51:54","P_F_nicola_sturgeon.jpg P_M_george_Wbush.jpg",0.638222207547572,"34","Female","left",0,0,TRUE
2623,"P_F_tehresy_may.jpg","P_M_boris_johnson.jpg","TRUE","pictures/stimuli/P","pictures/stimuli/P","F","M","6","580886502e30a90001da9441","04/26/2022, 13:51:54","P_F_tehresy_may.jpg P_M_boris_johnson.jpg",0.638222207547572,"34","Female","left",1,1,FALSE
2690,"E_F_angelina_jolie.jpg","P_M_george_Wbush.jpg","FALSE","pictures/stimuli/E","pictures/stimuli/P","F","M","6","580886502e30a90001da9441","04/26/2022, 13:51:54","E_F_angelina_jolie.jpg P_M_george_Wbush.jpg",0.638222207547572,"34","Female","left",1,0,TRUE
6222,"E_F_keira_knightley.jpg","E_M_tom_hankes.jpg","TRUE","pictures/stimuli/E","pictures/stimuli/E","F","M","5","580886502e30a90001da9441","04/26/2022, 13:51:54","E_F_keira_knightley.jpg E_M_tom_hankes.jpg",0,"34","Female","left",1,1,FALSE
6228,"E_F_sandra_bullock.jpg","P_F_nicola_sturgeon.jpg","FALSE","pictures/stimuli/E","pictures/stimuli/P","F","F","6","580886502e30a90001da9441","04/26/2022, 13:51:54","E_F_sandra_bullock.jpg P_F_nicola_sturgeon.jpg",0.638222207547572,"34","Female","left",1,0,TRUE
6346,"E_F_Judi_Dench.jpg","P_M_george_Wbush.jpg","FALSE","pictures/stimuli/E","pictures/stimuli/P","F","M","5","580886502e30a90001da9441","04/26/2022, 13:51:54","E_F_Judi_Dench.jpg P_M_george_Wbush.jpg",0,"34","Female","left",1,0,TRUE
4456,"E_F_Kate_Winslet.jpg","E_M_robert_de_niro.jpg","TRUE","pictures/stimuli/E","pictures/stimuli/E","F","M","6","580886502e30a90001da9441","04/26/2022, 13:51:54","E_F_Kate_Winslet.jpg E_M_robert_de_niro.jpg",0.638222207547572,"34","Female","left",1,1,FALSE
3019,"E_F_Judi_Dench.jpg","E_M_Hugh_Grant.jpg","TRUE","pictures/stimuli/E","pictures/stimuli/E","F","M","5","580886502e30a90001da9441","04/26/2022, 13:51:54","E_F_Judi_Dench.jpg E_M_Hugh_Grant.jpg",0,"34","Female","left",1,1,FALSE
3546,"E_M_nicolas_cage.jpg","P_M_bill_clinton.jpg","FALSE","pictures/stimuli/E","pictures/stimuli/P","M","M","5","580886502e30a90001da9441","04/26/2022, 13:51:54","E_M_nicolas_cage.jpg P_M_bill_clinton.jpg",0,"34","Female","left",1,0,TRUE
3720,"E_M_Hugh_Grant.jpg","P_M_david_cameron.jpg","FALSE","pictures/stimuli/E","pictures/stimuli/P","M","M","6","580886502e30a90001da9441","04/26/2022, 13:51:54","E_M_Hugh_Grant.jpg P_M_david_cameron.jpg",0.638222207547572,"34","Female","left",1,1,FALSE
3803,"E_M_Hugh_Grant.jpg","P_M_bill_clinton.jpg","FALSE","pictures/stimuli/E","pictures/stimuli/P","M","M","6","580886502e30a90001da9441","04/26/2022, 13:51:54","E_M_Hugh_Grant.jpg P_M_bill_clinton.jpg",0.638222207547572,"34","Female","left",1,0,TRUE
9990,"P_F_nicola_sturgeon.jpg","P_M_boris_johnson.jpg","TRUE","pictures/stimuli/P","pictures/stimuli/P","F","M","4","580886502e30a90001da9441","04/26/2022, 13:51:54","P_F_nicola_sturgeon.jpg P_M_boris_johnson.jpg",-0.638222207547572,"34","Female","left",0,1,TRUE
32654,"E_F_keira_knightley.jpg","P_F_nicola_sturgeon.jpg","FALSE","pictures/stimuli/E","pictures/stimuli/P","F","F","5","580886502e30a90001da9441","04/26/2022, 13:51:54","E_F_keira_knightley.jpg P_F_nicola_sturgeon.jpg",0,"34","Female","left",1,0,TRUE
2067,"E_F_jennifer_aniston.jpg","P_M_bill_clinton.jpg","FALSE","pictures/stimuli/E","pictures/stimuli/P","F","M","6","580886502e30a90001da9441","04/26/2022, 13:51:54","E_F_jennifer_aniston.jpg P_M_bill_clinton.jpg",0.638222207547572,"34","Female","left",1,0,TRUE
3333,"E_M_michael_caine.jpg","P_M_boris_johnson.jpg","FALSE","pictures/stimuli/E","pictures/stimuli/P","M","M","6","580886502e30a90001da9441","04/26/2022, 13:51:54","E_M_michael_caine.jpg P_M_boris_johnson.jpg",0.638222207547572,"34","Female","left",1,1,FALSE
3179,"E_F_Judi_Dench.jpg","E_M_nicolas_cage.jpg","TRUE","pictures/stimuli/E","pictures/stimuli/E","F","M","6","580886502e30a90001da9441","04/26/2022, 13:51:54","E_F_Judi_Dench.jpg E_M_nicolas_cage.jpg",0.638222207547572,"34","Female","left",1,1,FALSE
10842,"E_M_nicolas_cage.jpg","E_M_robert_de_niro.jpg","TRUE","pictures/stimuli/E","pictures/stimuli/E","M","M","6","580886502e30a90001da9441","04/26/2022, 13:51:54","E_M_nicolas_cage.jpg E_M_robert_de_niro.jpg",0.638222207547572,"34","Female","left",1,1,FALSE
1802,"P_F_nicola_sturgeon.jpg","P_M_david_cameron.jpg","TRUE","pictures/stimuli/P","pictures/stimuli/P","F","M","6","580886502e30a90001da9441","04/26/2022, 13:51:54","P_F_nicola_sturgeon.jpg P_M_david_cameron.jpg",0.638222207547572,"34","Female","left",0,1,TRUE
1942,"E_M_tom_hankes.jpg","P_M_Tony_Blair.jpg","FALSE","pictures/stimuli/E","pictures/stimuli/P","M","M","6","580886502e30a90001da9441","04/26/2022, 13:51:54","E_M_tom_hankes.jpg P_M_Tony_Blair.jpg",0.638222207547572,"34","Female","left",1,1,FALSE
1686,"P_M_david_cameron.jpg","P_M_Tony_Blair.jpg","TRUE","pictures/stimuli/P","pictures/stimuli/P","M","M","6","580886502e30a90001da9441","04/26/2022, 13:51:54","P_M_david_cameron.jpg P_M_Tony_Blair.jpg",0.638222207547572,"34","Female","left",1,1,FALSE
6269,"P_M_david_cameron.jpg","P_M_george_Wbush.jpg","TRUE","pictures/stimuli/P","pictures/stimuli/P","M","M","5","580886502e30a90001da9441","04/26/2022, 13:51:54","P_M_david_cameron.jpg P_M_george_Wbush.jpg",0,"34","Female","left",1,0,TRUE
2970,"E_M_michael_caine.jpg","P_M_Tony_Blair.jpg","FALSE","pictures/stimuli/E","pictures/stimuli/P","M","M","6","580886502e30a90001da9441","04/26/2022, 13:51:54","E_M_michael_caine.jpg P_M_Tony_Blair.jpg",0.638222207547572,"34","Female","left",1,1,FALSE
2447,"E_F_angelina_jolie.jpg","E_M_Hugh_Grant.jpg","TRUE","pictures/stimuli/E","pictures/stimuli/E","F","M","6","580886502e30a90001da9441","04/26/2022, 13:51:54","E_F_angelina_jolie.jpg E_M_Hugh_Grant.jpg",0.638222207547572,"34","Female","left",1,1,FALSE
1614,"E_F_jennifer_aniston.jpg","E_M_michael_caine.jpg","TRUE","pictures/stimuli/E","pictures/stimuli/E","F","M","6","580886502e30a90001da9441","04/26/2022, 13:51:54","E_F_jennifer_aniston.jpg E_M_michael_caine.jpg",0.638222207547572,"34","Female","left",1,1,FALSE
2027,"E_M_michael_caine.jpg","P_M_bill_clinton.jpg","FALSE","pictures/stimuli/E","pictures/stimuli/P","M","M","6","580886502e30a90001da9441","04/26/2022, 13:51:54","E_M_michael_caine.jpg P_M_bill_clinton.jpg",0.638222207547572,"34","Female","left",1,0,TRUE
1724,"E_M_tom_hankes.jpg","P_M_donald_trump.jpg","FALSE","pictures/stimuli/E","pictures/stimuli/P","M","M","6","580886502e30a90001da9441","04/26/2022, 13:51:54","E_M_tom_hankes.jpg P_M_donald_trump.jpg",0.638222207547572,"34","Female","left",1,1,FALSE
2945,"E_F_angelina_jolie.jpg","P_F_hillary_clinton.jpg","FALSE","pictures/stimuli/E","pictures/stimuli/P","F","F","5","580886502e30a90001da9441","04/26/2022, 13:51:54","E_F_angelina_jolie.jpg P_F_hillary_clinton.jpg",0,"34","Female","left",1,0,TRUE
1896,"E_F_keira_knightley.jpg","P_M_Tony_Blair.jpg","FALSE","pictures/stimuli/E","pictures/stimuli/P","F","M","6","580886502e30a90001da9441","04/26/2022, 13:51:54","E_F_keira_knightley.jpg P_M_Tony_Blair.jpg",0.638222207547572,"34","Female","left",1,1,FALSE
2528,"E_F_keira_knightley.jpg","P_M_george_Wbush.jpg","FALSE","pictures/stimuli/E","pictures/stimuli/P","F","M","6","580886502e30a90001da9441","04/26/2022, 13:51:54","E_F_keira_knightley.jpg P_M_george_Wbush.jpg",0.638222207547572,"34","Female","left",1,0,TRUE
1932,"E_M_Hugh_Grant.jpg","P_F_nicola_sturgeon.jpg","FALSE","pictures/stimuli/E","pictures/stimuli/P","M","F","6","580886502e30a90001da9441","04/26/2022, 13:51:54","E_M_Hugh_Grant.jpg P_F_nicola_sturgeon.jpg",0.638222207547572,"34","Female","left",1,0,TRUE
7639,"E_F_Judi_Dench.jpg","P_F_tehresy_may.jpg","FALSE","pictures/stimuli/E","pictures/stimuli/P","F","F","4","580886502e30a90001da9441","04/26/2022, 13:51:54","E_F_Judi_Dench.jpg P_F_tehresy_may.jpg",-0.638222207547572,"34","Female","left",1,1,FALSE
2188,"E_M_nicolas_cage.jpg","P_F_nicola_sturgeon.jpg","FALSE","pictures/stimuli/E","pictures/stimuli/P","M","F","6","580886502e30a90001da9441","04/26/2022, 13:51:54","E_M_nicolas_cage.jpg P_F_nicola_sturgeon.jpg",0.638222207547572,"34","Female","left",1,0,TRUE
2311,"E_M_nicolas_cage.jpg","P_F_tehresy_may.jpg","FALSE","pictures/stimuli/E","pictures/stimuli/P","M","F","6","580886502e30a90001da9441","04/26/2022, 13:51:54","E_M_nicolas_cage.jpg P_F_tehresy_may.jpg",0.638222207547572,"34","Female","left",1,1,FALSE
2334,"P_M_david_cameron.jpg","P_M_donald_trump.jpg","TRUE","pictures/stimuli/P","pictures/stimuli/P","M","M","6","580886502e30a90001da9441","04/26/2022, 13:51:54","P_M_david_cameron.jpg P_M_donald_trump.jpg",0.638222207547572,"34","Female","left",1,1,FALSE
2357,"E_M_tom_hankes.jpg","P_F_tehresy_may.jpg","FALSE","pictures/stimuli/E","pictures/stimuli/P","M","F","6","580886502e30a90001da9441","04/26/2022, 13:51:54","E_M_tom_hankes.jpg P_F_tehresy_may.jpg",0.638222207547572,"34","Female","left",1,1,FALSE
2872,"E_F_angelina_jolie.jpg","E_F_Judi_Dench.jpg","TRUE","pictures/stimuli/E","pictures/stimuli/E","F","F","4","580886502e30a90001da9441","04/26/2022, 13:51:54","E_F_angelina_jolie.jpg E_F_Judi_Dench.jpg",-0.638222207547572,"34","Female","left",1,1,FALSE
2907,"E_F_jennifer_aniston.jpg","P_F_nicola_sturgeon.jpg","FALSE","pictures/stimuli/E","pictures/stimuli/P","F","F","5","580886502e30a90001da9441","04/26/2022, 13:51:54","E_F_jennifer_aniston.jpg P_F_nicola_sturgeon.jpg",0,"34","Female","left",1,0,TRUE
2178,"E_M_nicolas_cage.jpg","P_M_donald_trump.jpg","FALSE","pictures/stimuli/E","pictures/stimuli/P","M","M","6","580886502e30a90001da9441","04/26/2022, 13:51:54","E_M_nicolas_cage.jpg P_M_donald_trump.jpg",0.638222207547572,"34","Female","left",1,1,FALSE
3363,"E_M_Hugh_Grant.jpg","P_M_Tony_Blair.jpg","FALSE","pictures/stimuli/E","pictures/stimuli/P","M","M","5","580886502e30a90001da9441","04/26/2022, 13:51:54","E_M_Hugh_Grant.jpg P_M_Tony_Blair.jpg",0,"34","Female","left",1,1,FALSE
3192,"E_M_michael_caine.jpg","P_F_hillary_clinton.jpg","FALSE","pictures/stimuli/E","pictures/stimuli/P","M","F","6","580886502e30a90001da9441","04/26/2022, 13:51:54","E_M_michael_caine.jpg P_F_hillary_clinton.jpg",0.638222207547572,"34","Female","left",1,0,TRUE
2581,"P_F_hillary_clinton.jpg","P_F_tehresy_may.jpg","TRUE","pictures/stimuli/P","pictures/stimuli/P","F","F","5","580886502e30a90001da9441","04/26/2022, 13:51:54","P_F_hillary_clinton.jpg P_F_tehresy_may.jpg",0,"34","Female","left",0,1,TRUE
4113,"E_F_angelina_jolie.jpg","E_M_nicolas_cage.jpg","TRUE","pictures/stimuli/E","pictures/stimuli/E","F","M","5","580886502e30a90001da9441","04/26/2022, 13:51:54","E_F_angelina_jolie.jpg E_M_nicolas_cage.jpg",0,"34","Female","left",1,1,FALSE
2922,"E_F_angelina_jolie.jpg","E_F_Kate_Winslet.jpg","TRUE","pictures/stimuli/E","pictures/stimuli/E","F","F","4","580886502e30a90001da9441","04/26/2022, 13:51:54","E_F_angelina_jolie.jpg E_F_Kate_Winslet.jpg",-0.638222207547572,"34","Female","left",1,1,FALSE
2522,"E_F_sandra_bullock.jpg","E_M_robert_de_niro.jpg","TRUE","pictures/stimuli/E","pictures/stimuli/E","F","M","6","580886502e30a90001da9441","04/26/2022, 13:51:54","E_F_sandra_bullock.jpg E_M_robert_de_niro.jpg",0.638222207547572,"34","Female","left",1,1,FALSE
2270,"E_M_michael_caine.jpg","P_M_donald_trump.jpg","FALSE","pictures/stimuli/E","pictures/stimuli/P","M","M","6","580886502e30a90001da9441","04/26/2022, 13:51:54","E_M_michael_caine.jpg P_M_donald_trump.jpg",0.638222207547572,"34","Female","left",1,1,FALSE
3539,"E_F_Judi_Dench.jpg","E_F_Kate_Winslet.jpg","TRUE","pictures/stimuli/E","pictures/stimuli/E","F","F","4","580886502e30a90001da9441","04/26/2022, 13:51:54","E_F_Judi_Dench.jpg E_F_Kate_Winslet.jpg",-0.638222207547572,"34","Female","left",1,1,FALSE
1831,"P_F_tehresy_may.jpg","P_M_george_Wbush.jpg","TRUE","pictures/stimuli/P","pictures/stimuli/P","F","M","6","580886502e30a90001da9441","04/26/2022, 13:51:54","P_F_tehresy_may.jpg P_M_george_Wbush.jpg",0.638222207547572,"34","Female","left",1,0,TRUE
2360,"E_F_Kate_Winslet.jpg","P_M_Tony_Blair.jpg","FALSE","pictures/stimuli/E","pictures/stimuli/P","F","M","6","580886502e30a90001da9441","04/26/2022, 13:51:54","E_F_Kate_Winslet.jpg P_M_Tony_Blair.jpg",0.638222207547572,"34","Female","left",1,1,FALSE
1719,"E_F_jennifer_aniston.jpg","P_M_donald_trump.jpg","FALSE","pictures/stimuli/E","pictures/stimuli/P","F","M","6","580886502e30a90001da9441","04/26/2022, 13:51:54","E_F_jennifer_aniston.jpg P_M_donald_trump.jpg",0.638222207547572,"34","Female","left",1,1,FALSE
2438,"E_F_Judi_Dench.jpg","P_M_Tony_Blair.jpg","FALSE","pictures/stimuli/E","pictures/stimuli/P","F","M","6","580886502e30a90001da9441","04/26/2022, 13:51:54","E_F_Judi_Dench.jpg P_M_Tony_Blair.jpg",0.638222207547572,"34","Female","left",1,1,FALSE
3236,"E_F_angelina_jolie.jpg","E_F_sandra_bullock.jpg","TRUE","pictures/stimuli/E","pictures/stimuli/E","F","F","4","580886502e30a90001da9441","04/26/2022, 13:51:54","E_F_angelina_jolie.jpg E_F_sandra_bullock.jpg",-0.638222207547572,"34","Female","left",1,1,FALSE
4128,"P_M_boris_johnson.jpg","P_M_george_Wbush.jpg","TRUE","pictures/stimuli/P","pictures/stimuli/P","M","M","6","580886502e30a90001da9441","04/26/2022, 13:51:54","P_M_boris_johnson.jpg P_M_george_Wbush.jpg",0.638222207547572,"34","Female","left",1,0,TRUE
2908,"P_F_hillary_clinton.jpg","P_M_donald_trump.jpg","TRUE","pictures/stimuli/P","pictures/stimuli/P","F","M","6","580886502e30a90001da9441","04/26/2022, 13:51:54","P_F_hillary_clinton.jpg P_M_donald_trump.jpg",0.638222207547572,"34","Female","left",0,1,TRUE
3205,"E_M_Hugh_Grant.jpg","E_M_robert_de_niro.jpg","TRUE","pictures/stimuli/E","pictures/stimuli/E","M","M","5","580886502e30a90001da9441","04/26/2022, 13:51:54","E_M_Hugh_Grant.jpg E_M_robert_de_niro.jpg",0,"34","Female","left",1,1,FALSE
3303,"E_M_nicolas_cage.jpg","P_M_george_Wbush.jpg","FALSE","pictures/stimuli/E","pictures/stimuli/P","M","M","5","580886502e30a90001da9441","04/26/2022, 13:51:54","E_M_nicolas_cage.jpg P_M_george_Wbush.jpg",0,"34","Female","left",1,0,TRUE
2956,"P_F_nicola_sturgeon.jpg","P_M_Tony_Blair.jpg","TRUE","pictures/stimuli/P","pictures/stimuli/P","F","M","6","580886502e30a90001da9441","04/26/2022, 13:51:54","P_F_nicola_sturgeon.jpg P_M_Tony_Blair.jpg",0.638222207547572,"34","Female","left",0,1,TRUE
4435,"E_F_Judi_Dench.jpg","P_F_hillary_clinton.jpg","FALSE","pictures/stimuli/E","pictures/stimuli/P","F","F","5","580886502e30a90001da9441","04/26/2022, 13:51:54","E_F_Judi_Dench.jpg P_F_hillary_clinton.jpg",0,"34","Female","left",1,0,TRUE
3198,"E_F_keira_knightley.jpg","E_M_michael_caine.jpg","TRUE","pictures/stimuli/E","pictures/stimuli/E","F","M","6","580886502e30a90001da9441","04/26/2022, 13:51:54","E_F_keira_knightley.jpg E_M_michael_caine.jpg",0.638222207547572,"34","Female","left",1,1,FALSE
3051,"E_F_Kate_Winslet.jpg","P_M_donald_trump.jpg","FALSE","pictures/stimuli/E","pictures/stimuli/P","F","M","6","580886502e30a90001da9441","04/26/2022, 13:51:54","E_F_Kate_Winslet.jpg P_M_donald_trump.jpg",0.638222207547572,"34","Female","left",1,1,FALSE
11946,"E_M_robert_de_niro.jpg","E_M_tom_hankes.jpg","TRUE","pictures/stimuli/E","pictures/stimuli/E","M","M","5","580886502e30a90001da9441","04/26/2022, 13:51:54","E_M_robert_de_niro.jpg E_M_tom_hankes.jpg",0,"34","Female","left",1,1,FALSE
2453,"E_F_Kate_Winslet.jpg","E_M_nicolas_cage.jpg","TRUE","pictures/stimuli/E","pictures/stimuli/E","F","M","6","580886502e30a90001da9441","04/26/2022, 13:51:54","E_F_Kate_Winslet.jpg E_M_nicolas_cage.jpg",0.638222207547572,"34","Female","left",1,1,FALSE
3268,"P_M_bill_clinton.jpg","P_M_george_Wbush.jpg","TRUE","pictures/stimuli/P","pictures/stimuli/P","M","M","5","580886502e30a90001da9441","04/26/2022, 13:51:54","P_M_bill_clinton.jpg P_M_george_Wbush.jpg",0,"34","Female","left",0,0,TRUE
3278,"E_M_michael_caine.jpg","P_M_george_Wbush.jpg","FALSE","pictures/stimuli/E","pictures/stimuli/P","M","M","6","580886502e30a90001da9441","04/26/2022, 13:51:54","E_M_michael_caine.jpg P_M_george_Wbush.jpg",0.638222207547572,"34","Female","left",1,0,TRUE
3431,"E_F_jennifer_aniston.jpg","E_M_nicolas_cage.jpg","TRUE","pictures/stimuli/E","pictures/stimuli/E","F","M","6","580886502e30a90001da9441","04/26/2022, 13:51:54","E_F_jennifer_aniston.jpg E_M_nicolas_cage.jpg",0.638222207547572,"34","Female","left",1,1,FALSE
6004,"E_F_angelina_jolie.jpg","E_F_keira_knightley.jpg","TRUE","pictures/stimuli/E","pictures/stimuli/E","F","F","3","580886502e30a90001da9441","04/26/2022, 13:51:54","E_F_angelina_jolie.jpg E_F_keira_knightley.jpg",-1.27644441509514,"34","Female","left",1,1,FALSE
2914,"E_F_angelina_jolie.jpg","E_M_michael_caine.jpg","TRUE","pictures/stimuli/E","pictures/stimuli/E","F","M","6","580886502e30a90001da9441","04/26/2022, 13:51:54","E_F_angelina_jolie.jpg E_M_michael_caine.jpg",0.638222207547572,"34","Female","left",1,1,FALSE
2589,"E_F_jennifer_aniston.jpg","E_F_Judi_Dench.jpg","TRUE","pictures/stimuli/E","pictures/stimuli/E","F","F","4","580886502e30a90001da9441","04/26/2022, 13:51:54","E_F_jennifer_aniston.jpg E_F_Judi_Dench.jpg",-0.638222207547572,"34","Female","left",1,1,FALSE
2514,"E_F_Judi_Dench.jpg","P_F_nicola_sturgeon.jpg","FALSE","pictures/stimuli/E","pictures/stimuli/P","F","F","5","580886502e30a90001da9441","04/26/2022, 13:51:54","E_F_Judi_Dench.jpg P_F_nicola_sturgeon.jpg",0,"34","Female","left",1,0,TRUE
4046,"E_F_jennifer_aniston.jpg","P_F_tehresy_may.jpg","FALSE","pictures/stimuli/E","pictures/stimuli/P","F","F","6","580886502e30a90001da9441","04/26/2022, 13:51:54","E_F_jennifer_aniston.jpg P_F_tehresy_may.jpg",0.638222207547572,"34","Female","left",1,1,FALSE
2653,"E_M_michael_caine.jpg","E_M_nicolas_cage.jpg","TRUE","pictures/stimuli/E","pictures/stimuli/E","M","M","6","580886502e30a90001da9441","04/26/2022, 13:51:54","E_M_michael_caine.jpg E_M_nicolas_cage.jpg",0.638222207547572,"34","Female","left",1,1,FALSE
9494,"E_M_tom_hankes.jpg","P_F_hillary_clinton.jpg","FALSE","pictures/stimuli/E","pictures/stimuli/P","M","F","6","580886502e30a90001da9441","04/26/2022, 13:51:54","E_M_tom_hankes.jpg P_F_hillary_clinton.jpg",0.638222207547572,"34","Female","left",1,0,TRUE
3412,"E_F_keira_knightley.jpg","E_M_nicolas_cage.jpg","TRUE","pictures/stimuli/E","pictures/stimuli/E","F","M","6","580886502e30a90001da9441","04/26/2022, 13:51:54","E_F_keira_knightley.jpg E_M_nicolas_cage.jpg",0.638222207547572,"34","Female","left",1,1,FALSE
2575,"E_F_jennifer_aniston.jpg","P_F_hillary_clinton.jpg","FALSE","pictures/stimuli/E","pictures/stimuli/P","F","F","6","580886502e30a90001da9441","04/26/2022, 13:51:54","E_F_jennifer_aniston.jpg P_F_hillary_clinton.jpg",0.638222207547572,"34","Female","left",1,0,TRUE
2163,"P_F_tehresy_may.jpg","P_M_david_cameron.jpg","TRUE","pictures/stimuli/P","pictures/stimuli/P","F","M","6","580886502e30a90001da9441","04/26/2022, 13:51:54","P_F_tehresy_may.jpg P_M_david_cameron.jpg",0.638222207547572,"34","Female","left",1,1,FALSE
3276,"E_F_Kate_Winslet.jpg","P_F_nicola_sturgeon.jpg","FALSE","pictures/stimuli/E","pictures/stimuli/P","F","F","6","580886502e30a90001da9441","04/26/2022, 13:51:54","E_F_Kate_Winslet.jpg P_F_nicola_sturgeon.jpg",0.638222207547572,"34","Female","left",1,0,TRUE
4193,"E_M_michael_caine.jpg","P_M_david_cameron.jpg","FALSE","pictures/stimuli/E","pictures/stimuli/P","M","M","6","580886502e30a90001da9441","04/26/2022, 13:51:54","E_M_michael_caine.jpg P_M_david_cameron.jpg",0.638222207547572,"34","Female","left",1,1,FALSE
4214,"P_F_hillary_clinton.jpg","P_M_david_cameron.jpg","TRUE","pictures/stimuli/P","pictures/stimuli/P","F","M","6","580886502e30a90001da9441","04/26/2022, 13:51:54","P_F_hillary_clinton.jpg P_M_david_cameron.jpg",0.638222207547572,"34","Female","left",0,1,TRUE
3970,"P_M_boris_johnson.jpg","P_M_david_cameron.jpg","TRUE","pictures/stimuli/P","pictures/stimuli/P","M","M","6","580886502e30a90001da9441","04/26/2022, 13:51:54","P_M_boris_johnson.jpg P_M_david_cameron.jpg",0.638222207547572,"34","Female","left",1,1,FALSE
2772,"E_F_jennifer_aniston.jpg","P_M_boris_johnson.jpg","FALSE","pictures/stimuli/E","pictures/stimuli/P","F","M","6","580886502e30a90001da9441","04/26/2022, 13:51:54","E_F_jennifer_aniston.jpg P_M_boris_johnson.jpg",0.638222207547572,"34","Female","left",1,1,FALSE
8565,"E_F_sandra_bullock.jpg","P_M_david_cameron.jpg","FALSE","pictures/stimuli/E","pictures/stimuli/P","F","M","6","580886502e30a90001da9441","04/26/2022, 13:51:54","E_F_sandra_bullock.jpg P_M_david_cameron.jpg",0.638222207547572,"34","Female","left",1,1,FALSE
2031,"E_F_sandra_bullock.jpg","E_M_michael_caine.jpg","TRUE","pictures/stimuli/E","pictures/stimuli/E","F","M","6","580886502e30a90001da9441","04/26/2022, 13:51:54","E_F_sandra_bullock.jpg E_M_michael_caine.jpg",0.638222207547572,"34","Female","left",1,1,FALSE
5925,"P_M_boris_johnson.jpg","P_M_donald_trump.jpg","TRUE","pictures/stimuli/P","pictures/stimuli/P","M","M","2","580886502e30a90001da9441","04/26/2022, 13:51:54","P_M_boris_johnson.jpg P_M_donald_trump.jpg",-1.91466662264272,"34","Female","left",1,1,FALSE
2959,"E_F_angelina_jolie.jpg","P_M_Tony_Blair.jpg","FALSE","pictures/stimuli/E","pictures/stimuli/P","F","M","6","580886502e30a90001da9441","04/26/2022, 13:51:54","E_F_angelina_jolie.jpg P_M_Tony_Blair.jpg",0.638222207547572,"34","Female","left",1,1,FALSE
12574,"E_F_sandra_bullock.jpg","P_F_tehresy_may.jpg","FALSE","pictures/stimuli/E","pictures/stimuli/P","F","F","6","580886502e30a90001da9441","04/26/2022, 13:51:54","E_F_sandra_bullock.jpg P_F_tehresy_may.jpg",0.638222207547572,"34","Female","left",1,1,FALSE
2555,"E_M_Hugh_Grant.jpg","P_M_george_Wbush.jpg","FALSE","pictures/stimuli/E","pictures/stimuli/P","M","M","6","580886502e30a90001da9441","04/26/2022, 13:51:54","E_M_Hugh_Grant.jpg P_M_george_Wbush.jpg",0.638222207547572,"34","Female","left",1,0,TRUE
3635,"E_F_sandra_bullock.jpg","P_M_boris_johnson.jpg","FALSE","pictures/stimuli/E","pictures/stimuli/P","F","M","6","580886502e30a90001da9441","04/26/2022, 13:51:54","E_F_sandra_bullock.jpg P_M_boris_johnson.jpg",0.638222207547572,"34","Female","left",1,1,FALSE
5240,"P_F_hillary_clinton.jpg","P_M_bill_clinton.jpg","TRUE","pictures/stimuli/P","pictures/stimuli/P","F","M","6","580886502e30a90001da9441","04/26/2022, 13:51:54","P_F_hillary_clinton.jpg P_M_bill_clinton.jpg",0.638222207547572,"34","Female","left",0,0,TRUE
2893,"E_F_Kate_Winslet.jpg","E_M_michael_caine.jpg","TRUE","pictures/stimuli/E","pictures/stimuli/E","F","M","6","580886502e30a90001da9441","04/26/2022, 13:51:54","E_F_Kate_Winslet.jpg E_M_michael_caine.jpg",0.638222207547572,"34","Female","left",1,1,FALSE
1864,"E_M_tom_hankes.jpg","P_M_boris_johnson.jpg","FALSE","pictures/stimuli/E","pictures/stimuli/P","M","M","6","580886502e30a90001da9441","04/26/2022, 13:51:54","E_M_tom_hankes.jpg P_M_boris_johnson.jpg",0.638222207547572,"34","Female","left",1,1,FALSE
3416,"E_M_Hugh_Grant.jpg","E_M_nicolas_cage.jpg","TRUE","pictures/stimuli/E","pictures/stimuli/E","M","M","6","580886502e30a90001da9441","04/26/2022, 13:51:54","E_M_Hugh_Grant.jpg E_M_nicolas_cage.jpg",0.638222207547572,"34","Female","left",1,1,FALSE
2151,"E_F_jennifer_aniston.jpg","E_M_Hugh_Grant.jpg","TRUE","pictures/stimuli/E","pictures/stimuli/E","F","M","6","580886502e30a90001da9441","04/26/2022, 13:51:54","E_F_jennifer_aniston.jpg E_M_Hugh_Grant.jpg",0.638222207547572,"34","Female","left",1,1,FALSE
2844,"E_F_angelina_jolie.jpg","P_M_donald_trump.jpg","FALSE","pictures/stimuli/E","pictures/stimuli/P","F","M","6","580886502e30a90001da9441","04/26/2022, 13:51:54","E_F_angelina_jolie.jpg P_M_donald_trump.jpg",0.638222207547572,"34","Female","left",1,1,FALSE
2347,"E_M_nicolas_cage.jpg","P_M_david_cameron.jpg","FALSE","pictures/stimuli/E","pictures/stimuli/P","M","M","6","580886502e30a90001da9441","04/26/2022, 13:51:54","E_M_nicolas_cage.jpg P_M_david_cameron.jpg",0.638222207547572,"34","Female","left",1,1,FALSE
2083,"E_M_Hugh_Grant.jpg","P_M_donald_trump.jpg","FALSE","pictures/stimuli/E","pictures/stimuli/P","M","M","6","580886502e30a90001da9441","04/26/2022, 13:51:54","E_M_Hugh_Grant.jpg P_M_donald_trump.jpg",0.638222207547572,"34","Female","left",1,1,FALSE
1955,"E_M_tom_hankes.jpg","P_M_david_cameron.jpg","FALSE","pictures/stimuli/E","pictures/stimuli/P","M","M","6","580886502e30a90001da9441","04/26/2022, 13:51:54","E_M_tom_hankes.jpg P_M_david_cameron.jpg",0.638222207547572,"34","Female","left",1,1,FALSE
2066,"E_F_angelina_jolie.jpg","P_M_boris_johnson.jpg","FALSE","pictures/stimuli/E","pictures/stimuli/P","F","M","6","580886502e30a90001da9441","04/26/2022, 13:51:54","E_F_angelina_jolie.jpg P_M_boris_johnson.jpg",0.638222207547572,"34","Female","left",1,1,FALSE
2277,"E_F_jennifer_aniston.jpg","P_M_george_Wbush.jpg","FALSE","pictures/stimuli/E","pictures/stimuli/P","F","M","6","580886502e30a90001da9441","04/26/2022, 13:51:54","E_F_jennifer_aniston.jpg P_M_george_Wbush.jpg",0.638222207547572,"34","Female","left",1,0,TRUE
5651,"E_F_Kate_Winslet.jpg","P_M_bill_clinton.jpg","FALSE","pictures/stimuli/E","pictures/stimuli/P","F","M","6","580886502e30a90001da9441","04/26/2022, 13:51:54","E_F_Kate_Winslet.jpg P_M_bill_clinton.jpg",0.638222207547572,"34","Female","left",1,0,TRUE
3382,"E_F_sandra_bullock.jpg","P_M_george_Wbush.jpg","FALSE","pictures/stimuli/E","pictures/stimuli/P","F","M","6","580886502e30a90001da9441","04/26/2022, 13:51:54","E_F_sandra_bullock.jpg P_M_george_Wbush.jpg",0.638222207547572,"34","Female","left",1,0,TRUE
6448,"E_F_Judi_Dench.jpg","E_M_robert_de_niro.jpg","TRUE","pictures/stimuli/E","pictures/stimuli/E","F","M","5","580886502e30a90001da9441","04/26/2022, 13:51:54","E_F_Judi_Dench.jpg E_M_robert_de_niro.jpg",0,"34","Female","left",1,1,FALSE
2102,"P_F_nicola_sturgeon.jpg","P_M_bill_clinton.jpg","TRUE","pictures/stimuli/P","pictures/stimuli/P","F","M","6","580886502e30a90001da9441","04/26/2022, 13:51:54","P_F_nicola_sturgeon.jpg P_M_bill_clinton.jpg",0.638222207547572,"34","Female","left",0,0,TRUE
2700,"E_M_nicolas_cage.jpg","E_M_tom_hankes.jpg","TRUE","pictures/stimuli/E","pictures/stimuli/E","M","M","6","580886502e30a90001da9441","04/26/2022, 13:51:54","E_M_nicolas_cage.jpg E_M_tom_hankes.jpg",0.638222207547572,"34","Female","left",1,1,FALSE
2089,"E_F_angelina_jolie.jpg","P_F_nicola_sturgeon.jpg","FALSE","pictures/stimuli/E","pictures/stimuli/P","F","F","6","580886502e30a90001da9441","04/26/2022, 13:51:54","E_F_angelina_jolie.jpg P_F_nicola_sturgeon.jpg",0.638222207547572,"34","Female","left",1,0,TRUE
3138,"E_F_jennifer_aniston.jpg","E_F_keira_knightley.jpg","TRUE","pictures/stimuli/E","pictures/stimuli/E","F","F","4","580886502e30a90001da9441","04/26/2022, 13:51:54","E_F_jennifer_aniston.jpg E_F_keira_knightley.jpg",-0.638222207547572,"34","Female","left",1,1,FALSE
2486,"E_F_Kate_Winslet.jpg","P_F_tehresy_may.jpg","FALSE","pictures/stimuli/E","pictures/stimuli/P","F","F","6","580886502e30a90001da9441","04/26/2022, 13:51:54","E_F_Kate_Winslet.jpg P_F_tehresy_may.jpg",0.638222207547572,"34","Female","left",1,1,FALSE
2002,"E_F_jennifer_aniston.jpg","P_M_Tony_Blair.jpg","FALSE","pictures/stimuli/E","pictures/stimuli/P","F","M","6","580886502e30a90001da9441","04/26/2022, 13:51:54","E_F_jennifer_aniston.jpg P_M_Tony_Blair.jpg",0.638222207547572,"34","Female","left",1,1,FALSE
2948,"E_F_Judi_Dench.jpg","P_M_donald_trump.jpg","FALSE","pictures/stimuli/E","pictures/stimuli/P","F","M","6","580886502e30a90001da9441","04/26/2022, 13:51:54","E_F_Judi_Dench.jpg P_M_donald_trump.jpg",0.638222207547572,"34","Female","left",1,1,FALSE
5250,"E_F_jennifer_aniston.jpg","E_F_Kate_Winslet.jpg","TRUE","pictures/stimuli/E","pictures/stimuli/E","F","F","4","580886502e30a90001da9441","04/26/2022, 13:51:54","E_F_jennifer_aniston.jpg E_F_Kate_Winslet.jpg",-0.638222207547572,"34","Female","left",1,1,FALSE
2747,"E_F_jennifer_aniston.jpg","E_F_sandra_bullock.jpg","TRUE","pictures/stimuli/E","pictures/stimuli/E","F","F","4","580886502e30a90001da9441","04/26/2022, 13:51:54","E_F_jennifer_aniston.jpg E_F_sandra_bullock.jpg",-0.638222207547572,"34","Female","left",1,1,FALSE
3300,"P_F_tehresy_may.jpg","P_M_bill_clinton.jpg","TRUE","pictures/stimuli/P","pictures/stimuli/P","F","M","6","580886502e30a90001da9441","04/26/2022, 13:51:54","P_F_tehresy_may.jpg P_M_bill_clinton.jpg",0.638222207547572,"34","Female","left",1,0,TRUE
2542,"E_F_angelina_jolie.jpg","P_F_tehresy_may.jpg","FALSE","pictures/stimuli/E","pictures/stimuli/P","F","F","6","580886502e30a90001da9441","04/26/2022, 13:51:54","E_F_angelina_jolie.jpg P_F_tehresy_may.jpg",0.638222207547572,"34","Female","left",1,1,FALSE
2847,"E_M_robert_de_niro.jpg","P_M_donald_trump.jpg","FALSE","pictures/stimuli/E","pictures/stimuli/P","M","M","6","580886502e30a90001da9441","04/26/2022, 13:51:54","E_M_robert_de_niro.jpg P_M_donald_trump.jpg",0.638222207547572,"34","Female","left",1,1,FALSE
2116,"P_M_boris_johnson.jpg","P_M_Tony_Blair.jpg","TRUE","pictures/stimuli/P","pictures/stimuli/P","M","M","6","580886502e30a90001da9441","04/26/2022, 13:51:54","P_M_boris_johnson.jpg P_M_Tony_Blair.jpg",0.638222207547572,"34","Female","left",1,1,FALSE
12070,"E_F_jennifer_aniston.jpg","E_F_Judi_Dench.jpg","TRUE","pictures/stimuli/E","pictures/stimuli/E","F","F","5","59bd1b8b3a9ab60001119adb","04/26/2022, 14:06:12","E_F_jennifer_aniston.jpg E_F_Judi_Dench.jpg",0.539504524867914,"29","Female","right",1,1,FALSE
6688,"E_F_Judi_Dench.jpg","E_M_Hugh_Grant.jpg","TRUE","pictures/stimuli/E","pictures/stimuli/E","F","M","6","59bd1b8b3a9ab60001119adb","04/26/2022, 14:06:12","E_F_Judi_Dench.jpg E_M_Hugh_Grant.jpg",1.32199200368397,"29","Female","right",1,1,FALSE
6720,"E_M_tom_hankes.jpg","P_F_nicola_sturgeon.jpg","FALSE","pictures/stimuli/E","pictures/stimuli/P","M","F","6","59bd1b8b3a9ab60001119adb","04/26/2022, 14:06:12","E_M_tom_hankes.jpg P_F_nicola_sturgeon.jpg",1.32199200368397,"29","Female","right",1,1,FALSE
6801,"E_F_jennifer_aniston.jpg","E_M_nicolas_cage.jpg","TRUE","pictures/stimuli/E","pictures/stimuli/E","F","M","5","59bd1b8b3a9ab60001119adb","04/26/2022, 14:06:12","E_F_jennifer_aniston.jpg E_M_nicolas_cage.jpg",0.539504524867914,"29","Female","right",1,1,FALSE
11778,"E_M_robert_de_niro.jpg","E_M_tom_hankes.jpg","TRUE","pictures/stimuli/E","pictures/stimuli/E","M","M","3","59bd1b8b3a9ab60001119adb","04/26/2022, 14:06:12","E_M_robert_de_niro.jpg E_M_tom_hankes.jpg",-1.0254704327642,"29","Female","right",1,1,FALSE
8240,"E_M_Hugh_Grant.jpg","E_M_robert_de_niro.jpg","TRUE","pictures/stimuli/E","pictures/stimuli/E","M","M","4","59bd1b8b3a9ab60001119adb","04/26/2022, 14:06:12","E_M_Hugh_Grant.jpg E_M_robert_de_niro.jpg",-0.242982953948145,"29","Female","right",1,1,FALSE
7649,"E_F_Judi_Dench.jpg","P_M_david_cameron.jpg","FALSE","pictures/stimuli/E","pictures/stimuli/P","F","M","5","59bd1b8b3a9ab60001119adb","04/26/2022, 14:06:12","E_F_Judi_Dench.jpg P_M_david_cameron.jpg",0.539504524867914,"29","Female","right",1,1,FALSE
7345,"P_M_donald_trump.jpg","P_M_george_Wbush.jpg","TRUE","pictures/stimuli/P","pictures/stimuli/P","M","M","3","59bd1b8b3a9ab60001119adb","04/26/2022, 14:06:12","P_M_donald_trump.jpg P_M_george_Wbush.jpg",-1.0254704327642,"29","Female","right",1,1,FALSE
8776,"E_F_Judi_Dench.jpg","P_M_donald_trump.jpg","FALSE","pictures/stimuli/E","pictures/stimuli/P","F","M","4","59bd1b8b3a9ab60001119adb","04/26/2022, 14:06:12","E_F_Judi_Dench.jpg P_M_donald_trump.jpg",-0.242982953948145,"29","Female","right",1,1,FALSE
6258,"E_M_nicolas_cage.jpg","P_M_donald_trump.jpg","FALSE","pictures/stimuli/E","pictures/stimuli/P","M","M","3","59bd1b8b3a9ab60001119adb","04/26/2022, 14:06:12","E_M_nicolas_cage.jpg P_M_donald_trump.jpg",-1.0254704327642,"29","Female","right",1,1,FALSE
6256,"E_M_Hugh_Grant.jpg","P_F_hillary_clinton.jpg","FALSE","pictures/stimuli/E","pictures/stimuli/P","M","F","5","59bd1b8b3a9ab60001119adb","04/26/2022, 14:06:12","E_M_Hugh_Grant.jpg P_F_hillary_clinton.jpg",0.539504524867914,"29","Female","right",1,1,FALSE
7891,"E_F_angelina_jolie.jpg","E_M_tom_hankes.jpg","TRUE","pictures/stimuli/E","pictures/stimuli/E","F","M","5","59bd1b8b3a9ab60001119adb","04/26/2022, 14:06:12","E_F_angelina_jolie.jpg E_M_tom_hankes.jpg",0.539504524867914,"29","Female","right",1,1,FALSE
5644,"E_F_sandra_bullock.jpg","P_F_nicola_sturgeon.jpg","FALSE","pictures/stimuli/E","pictures/stimuli/P","F","F","5","59bd1b8b3a9ab60001119adb","04/26/2022, 14:06:12","E_F_sandra_bullock.jpg P_F_nicola_sturgeon.jpg",0.539504524867914,"29","Female","right",1,1,FALSE
8979,"E_M_michael_caine.jpg","P_M_bill_clinton.jpg","FALSE","pictures/stimuli/E","pictures/stimuli/P","M","M","2","59bd1b8b3a9ab60001119adb","04/26/2022, 14:06:12","E_M_michael_caine.jpg P_M_bill_clinton.jpg",-1.80795791158026,"29","Female","right",1,1,FALSE
6259,"E_F_angelina_jolie.jpg","P_F_hillary_clinton.jpg","FALSE","pictures/stimuli/E","pictures/stimuli/P","F","F","3","59bd1b8b3a9ab60001119adb","04/26/2022, 14:06:12","E_F_angelina_jolie.jpg P_F_hillary_clinton.jpg",-1.0254704327642,"29","Female","right",1,1,FALSE
9046,"E_M_tom_hankes.jpg","P_M_david_cameron.jpg","FALSE","pictures/stimuli/E","pictures/stimuli/P","M","M","2","59bd1b8b3a9ab60001119adb","04/26/2022, 14:06:12","E_M_tom_hankes.jpg P_M_david_cameron.jpg",-1.80795791158026,"29","Female","right",1,1,FALSE
10127,"P_F_hillary_clinton.jpg","P_M_donald_trump.jpg","TRUE","pictures/stimuli/P","pictures/stimuli/P","F","M","5","59bd1b8b3a9ab60001119adb","04/26/2022, 14:06:12","P_F_hillary_clinton.jpg P_M_donald_trump.jpg",0.539504524867914,"29","Female","right",1,1,FALSE
7009,"P_M_david_cameron.jpg","P_M_donald_trump.jpg","TRUE","pictures/stimuli/P","pictures/stimuli/P","M","M","3","59bd1b8b3a9ab60001119adb","04/26/2022, 14:06:12","P_M_david_cameron.jpg P_M_donald_trump.jpg",-1.0254704327642,"29","Female","right",1,1,FALSE
9057,"P_F_tehresy_may.jpg","P_M_boris_johnson.jpg","TRUE","pictures/stimuli/P","pictures/stimuli/P","F","M","6","59bd1b8b3a9ab60001119adb","04/26/2022, 14:06:12","P_F_tehresy_may.jpg P_M_boris_johnson.jpg",1.32199200368397,"29","Female","right",1,1,FALSE
10907,"E_M_robert_de_niro.jpg","P_M_bill_clinton.jpg","FALSE","pictures/stimuli/E","pictures/stimuli/P","M","M","2","59bd1b8b3a9ab60001119adb","04/26/2022, 14:06:12","E_M_robert_de_niro.jpg P_M_bill_clinton.jpg",-1.80795791158026,"29","Female","right",1,1,FALSE
6163,"E_M_nicolas_cage.jpg","P_M_boris_johnson.jpg","FALSE","pictures/stimuli/E","pictures/stimuli/P","M","M","4","59bd1b8b3a9ab60001119adb","04/26/2022, 14:06:12","E_M_nicolas_cage.jpg P_M_boris_johnson.jpg",-0.242982953948145,"29","Female","right",1,1,FALSE
6760,"P_M_boris_johnson.jpg","P_M_george_Wbush.jpg","TRUE","pictures/stimuli/P","pictures/stimuli/P","M","M","4","59bd1b8b3a9ab60001119adb","04/26/2022, 14:06:12","P_M_boris_johnson.jpg P_M_george_Wbush.jpg",-0.242982953948145,"29","Female","right",1,1,FALSE
9487,"E_M_nicolas_cage.jpg","P_M_george_Wbush.jpg","FALSE","pictures/stimuli/E","pictures/stimuli/P","M","M","2","59bd1b8b3a9ab60001119adb","04/26/2022, 14:06:12","E_M_nicolas_cage.jpg P_M_george_Wbush.jpg",-1.80795791158026,"29","Female","right",1,1,FALSE
6296,"E_M_Hugh_Grant.jpg","E_M_michael_caine.jpg","TRUE","pictures/stimuli/E","pictures/stimuli/E","M","M","3","59bd1b8b3a9ab60001119adb","04/26/2022, 14:06:12","E_M_Hugh_Grant.jpg E_M_michael_caine.jpg",-1.0254704327642,"29","Female","right",1,1,FALSE
10984,"E_F_Judi_Dench.jpg","E_F_sandra_bullock.jpg","TRUE","pictures/stimuli/E","pictures/stimuli/E","F","F","4","59bd1b8b3a9ab60001119adb","04/26/2022, 14:06:12","E_F_Judi_Dench.jpg E_F_sandra_bullock.jpg",-0.242982953948145,"29","Female","right",1,1,FALSE
6402,"E_F_keira_knightley.jpg","P_F_nicola_sturgeon.jpg","FALSE","pictures/stimuli/E","pictures/stimuli/P","F","F","5","59bd1b8b3a9ab60001119adb","04/26/2022, 14:06:12","E_F_keira_knightley.jpg P_F_nicola_sturgeon.jpg",0.539504524867914,"29","Female","right",1,1,FALSE
15185,"E_F_Kate_Winslet.jpg","E_M_robert_de_niro.jpg","TRUE","pictures/stimuli/E","pictures/stimuli/E","F","M","6","59bd1b8b3a9ab60001119adb","04/26/2022, 14:06:12","E_F_Kate_Winslet.jpg E_M_robert_de_niro.jpg",1.32199200368397,"29","Female","right",1,1,FALSE
6560,"E_F_Kate_Winslet.jpg","P_M_george_Wbush.jpg","FALSE","pictures/stimuli/E","pictures/stimuli/P","F","M","6","59bd1b8b3a9ab60001119adb","04/26/2022, 14:06:12","E_F_Kate_Winslet.jpg P_M_george_Wbush.jpg",1.32199200368397,"29","Female","right",1,1,FALSE
14015,"E_M_Hugh_Grant.jpg","E_M_tom_hankes.jpg","TRUE","pictures/stimuli/E","pictures/stimuli/E","M","M","2","59bd1b8b3a9ab60001119adb","04/26/2022, 14:06:12","E_M_Hugh_Grant.jpg E_M_tom_hankes.jpg",-1.80795791158026,"29","Female","right",1,1,FALSE
7367,"E_M_nicolas_cage.jpg","E_M_tom_hankes.jpg","TRUE","pictures/stimuli/E","pictures/stimuli/E","M","M","3","59bd1b8b3a9ab60001119adb","04/26/2022, 14:06:12","E_M_nicolas_cage.jpg E_M_tom_hankes.jpg",-1.0254704327642,"29","Female","right",1,1,FALSE
9334,"E_F_Kate_Winslet.jpg","P_M_Tony_Blair.jpg","FALSE","pictures/stimuli/E","pictures/stimuli/P","F","M","5","59bd1b8b3a9ab60001119adb","04/26/2022, 14:06:12","E_F_Kate_Winslet.jpg P_M_Tony_Blair.jpg",0.539504524867914,"29","Female","right",1,1,FALSE
5965,"E_F_keira_knightley.jpg","E_M_nicolas_cage.jpg","TRUE","pictures/stimuli/E","pictures/stimuli/E","F","M","6","59bd1b8b3a9ab60001119adb","04/26/2022, 14:06:12","E_F_keira_knightley.jpg E_M_nicolas_cage.jpg",1.32199200368397,"29","Female","right",1,1,FALSE
11699,"P_M_david_cameron.jpg","P_M_Tony_Blair.jpg","TRUE","pictures/stimuli/P","pictures/stimuli/P","M","M","2","59bd1b8b3a9ab60001119adb","04/26/2022, 14:06:12","P_M_david_cameron.jpg P_M_Tony_Blair.jpg",-1.80795791158026,"29","Female","right",1,1,FALSE
6276,"E_M_robert_de_niro.jpg","P_F_tehresy_may.jpg","FALSE","pictures/stimuli/E","pictures/stimuli/P","M","F","5","59bd1b8b3a9ab60001119adb","04/26/2022, 14:06:12","E_M_robert_de_niro.jpg P_F_tehresy_may.jpg",0.539504524867914,"29","Female","right",1,1,FALSE
6445,"E_F_angelina_jolie.jpg","P_M_boris_johnson.jpg","FALSE","pictures/stimuli/E","pictures/stimuli/P","F","M","5","59bd1b8b3a9ab60001119adb","04/26/2022, 14:06:12","E_F_angelina_jolie.jpg P_M_boris_johnson.jpg",0.539504524867914,"29","Female","right",1,1,FALSE
7262,"P_F_nicola_sturgeon.jpg","P_M_george_Wbush.jpg","TRUE","pictures/stimuli/P","pictures/stimuli/P","F","M","6","59bd1b8b3a9ab60001119adb","04/26/2022, 14:06:12","P_F_nicola_sturgeon.jpg P_M_george_Wbush.jpg",1.32199200368397,"29","Female","right",1,1,FALSE
7706,"E_M_Hugh_Grant.jpg","P_M_george_Wbush.jpg","FALSE","pictures/stimuli/E","pictures/stimuli/P","M","M","3","59bd1b8b3a9ab60001119adb","04/26/2022, 14:06:12","E_M_Hugh_Grant.jpg P_M_george_Wbush.jpg",-1.0254704327642,"29","Female","right",1,1,FALSE
10278,"E_F_Judi_Dench.jpg","E_M_robert_de_niro.jpg","TRUE","pictures/stimuli/E","pictures/stimuli/E","F","M","5","59bd1b8b3a9ab60001119adb","04/26/2022, 14:06:12","E_F_Judi_Dench.jpg E_M_robert_de_niro.jpg",0.539504524867914,"29","Female","right",1,1,FALSE
7013,"E_F_Judi_Dench.jpg","P_M_bill_clinton.jpg","FALSE","pictures/stimuli/E","pictures/stimuli/P","F","M","4","59bd1b8b3a9ab60001119adb","04/26/2022, 14:06:12","E_F_Judi_Dench.jpg P_M_bill_clinton.jpg",-0.242982953948145,"29","Female","right",1,1,FALSE
15924,"E_F_angelina_jolie.jpg","E_M_Hugh_Grant.jpg","TRUE","pictures/stimuli/E","pictures/stimuli/E","F","M","4","59bd1b8b3a9ab60001119adb","04/26/2022, 14:06:12","E_F_angelina_jolie.jpg E_M_Hugh_Grant.jpg",-0.242982953948145,"29","Female","right",1,1,FALSE
9345,"E_M_michael_caine.jpg","E_M_tom_hankes.jpg","TRUE","pictures/stimuli/E","pictures/stimuli/E","M","M","2","59bd1b8b3a9ab60001119adb","04/26/2022, 14:06:12","E_M_michael_caine.jpg E_M_tom_hankes.jpg",-1.80795791158026,"29","Female","right",1,1,FALSE
6407,"E_F_sandra_bullock.jpg","E_M_robert_de_niro.jpg","TRUE","pictures/stimuli/E","pictures/stimuli/E","F","M","6","59bd1b8b3a9ab60001119adb","04/26/2022, 14:06:12","E_F_sandra_bullock.jpg E_M_robert_de_niro.jpg",1.32199200368397,"29","Female","right",1,1,FALSE
9438,"E_F_Judi_Dench.jpg","E_M_tom_hankes.jpg","TRUE","pictures/stimuli/E","pictures/stimuli/E","F","M","5","59bd1b8b3a9ab60001119adb","04/26/2022, 14:06:12","E_F_Judi_Dench.jpg E_M_tom_hankes.jpg",0.539504524867914,"29","Female","right",1,1,FALSE
7856,"E_M_michael_caine.jpg","P_M_boris_johnson.jpg","FALSE","pictures/stimuli/E","pictures/stimuli/P","M","M","2","59bd1b8b3a9ab60001119adb","04/26/2022, 14:06:12","E_M_michael_caine.jpg P_M_boris_johnson.jpg",-1.80795791158026,"29","Female","right",1,1,FALSE
9944,"E_F_jennifer_aniston.jpg","E_F_Kate_Winslet.jpg","TRUE","pictures/stimuli/E","pictures/stimuli/E","F","F","2","59bd1b8b3a9ab60001119adb","04/26/2022, 14:06:12","E_F_jennifer_aniston.jpg E_F_Kate_Winslet.jpg",-1.80795791158026,"29","Female","right",1,1,FALSE
5788,"E_F_keira_knightley.jpg","E_M_robert_de_niro.jpg","TRUE","pictures/stimuli/E","pictures/stimuli/E","F","M","6","59bd1b8b3a9ab60001119adb","04/26/2022, 14:06:12","E_F_keira_knightley.jpg E_M_robert_de_niro.jpg",1.32199200368397,"29","Female","right",1,1,FALSE
7697,"E_F_jennifer_aniston.jpg","P_M_Tony_Blair.jpg","FALSE","pictures/stimuli/E","pictures/stimuli/P","F","M","5","59bd1b8b3a9ab60001119adb","04/26/2022, 14:06:12","E_F_jennifer_aniston.jpg P_M_Tony_Blair.jpg",0.539504524867914,"29","Female","right",1,1,FALSE
10743,"E_F_sandra_bullock.jpg","P_M_boris_johnson.jpg","FALSE","pictures/stimuli/E","pictures/stimuli/P","F","M","6","59bd1b8b3a9ab60001119adb","04/26/2022, 14:06:12","E_F_sandra_bullock.jpg P_M_boris_johnson.jpg",1.32199200368397,"29","Female","right",1,1,FALSE
11268,"E_F_jennifer_aniston.jpg","E_M_Hugh_Grant.jpg","TRUE","pictures/stimuli/E","pictures/stimuli/E","F","M","3","59bd1b8b3a9ab60001119adb","04/26/2022, 14:06:12","E_F_jennifer_aniston.jpg E_M_Hugh_Grant.jpg",-1.0254704327642,"29","Female","right",1,1,FALSE
4764,"P_F_tehresy_may.jpg","P_M_george_Wbush.jpg","TRUE","pictures/stimuli/P","pictures/stimuli/P","F","M","4","59bd1b8b3a9ab60001119adb","04/26/2022, 14:06:12","P_F_tehresy_may.jpg P_M_george_Wbush.jpg",-0.242982953948145,"29","Female","right",1,1,FALSE
9841,"P_M_bill_clinton.jpg","P_M_george_Wbush.jpg","TRUE","pictures/stimuli/P","pictures/stimuli/P","M","M","3","59bd1b8b3a9ab60001119adb","04/26/2022, 14:06:12","P_M_bill_clinton.jpg P_M_george_Wbush.jpg",-1.0254704327642,"29","Female","right",1,1,FALSE
6180,"P_F_nicola_sturgeon.jpg","P_M_donald_trump.jpg","TRUE","pictures/stimuli/P","pictures/stimuli/P","F","M","5","59bd1b8b3a9ab60001119adb","04/26/2022, 14:06:12","P_F_nicola_sturgeon.jpg P_M_donald_trump.jpg",0.539504524867914,"29","Female","right",1,1,FALSE
11903,"E_F_keira_knightley.jpg","E_M_tom_hankes.jpg","TRUE","pictures/stimuli/E","pictures/stimuli/E","F","M","6","59bd1b8b3a9ab60001119adb","04/26/2022, 14:06:12","E_F_keira_knightley.jpg E_M_tom_hankes.jpg",1.32199200368397,"29","Female","right",1,1,FALSE
7362,"P_M_boris_johnson.jpg","P_M_donald_trump.jpg","TRUE","pictures/stimuli/P","pictures/stimuli/P","M","M","2","59bd1b8b3a9ab60001119adb","04/26/2022, 14:06:12","P_M_boris_johnson.jpg P_M_donald_trump.jpg",-1.80795791158026,"29","Female","right",1,1,FALSE
5387,"E_M_robert_de_niro.jpg","P_M_Tony_Blair.jpg","FALSE","pictures/stimuli/E","pictures/stimuli/P","M","M","3","59bd1b8b3a9ab60001119adb","04/26/2022, 14:06:12","E_M_robert_de_niro.jpg P_M_Tony_Blair.jpg",-1.0254704327642,"29","Female","right",1,1,FALSE
6225,"E_F_Judi_Dench.jpg","P_F_nicola_sturgeon.jpg","FALSE","pictures/stimuli/E","pictures/stimuli/P","F","F","2","59bd1b8b3a9ab60001119adb","04/26/2022, 14:06:12","E_F_Judi_Dench.jpg P_F_nicola_sturgeon.jpg",-1.80795791158026,"29","Female","right",1,1,FALSE
8470,"E_F_sandra_bullock.jpg","E_M_nicolas_cage.jpg","TRUE","pictures/stimuli/E","pictures/stimuli/E","F","M","5","59bd1b8b3a9ab60001119adb","04/26/2022, 14:06:12","E_F_sandra_bullock.jpg E_M_nicolas_cage.jpg",0.539504524867914,"29","Female","right",1,1,FALSE
5122,"E_F_Kate_Winslet.jpg","P_M_boris_johnson.jpg","FALSE","pictures/stimuli/E","pictures/stimuli/P","F","M","5","59bd1b8b3a9ab60001119adb","04/26/2022, 14:06:12","E_F_Kate_Winslet.jpg P_M_boris_johnson.jpg",0.539504524867914,"29","Female","right",1,1,FALSE
6328,"P_F_hillary_clinton.jpg","P_M_david_cameron.jpg","TRUE","pictures/stimuli/P","pictures/stimuli/P","F","M","5","59bd1b8b3a9ab60001119adb","04/26/2022, 14:06:12","P_F_hillary_clinton.jpg P_M_david_cameron.jpg",0.539504524867914,"29","Female","right",1,1,FALSE
11294,"E_M_tom_hankes.jpg","P_M_bill_clinton.jpg","FALSE","pictures/stimuli/E","pictures/stimuli/P","M","M","4","59bd1b8b3a9ab60001119adb","04/26/2022, 14:06:12","E_M_tom_hankes.jpg P_M_bill_clinton.jpg",-0.242982953948145,"29","Female","right",1,1,FALSE
6963,"E_M_Hugh_Grant.jpg","P_M_david_cameron.jpg","FALSE","pictures/stimuli/E","pictures/stimuli/P","M","M","2","59bd1b8b3a9ab60001119adb","04/26/2022, 14:06:12","E_M_Hugh_Grant.jpg P_M_david_cameron.jpg",-1.80795791158026,"29","Female","right",1,1,FALSE
10013,"E_M_nicolas_cage.jpg","E_M_robert_de_niro.jpg","TRUE","pictures/stimuli/E","pictures/stimuli/E","M","M","2","59bd1b8b3a9ab60001119adb","04/26/2022, 14:06:12","E_M_nicolas_cage.jpg E_M_robert_de_niro.jpg",-1.80795791158026,"29","Female","right",1,1,FALSE
7800,"E_F_angelina_jolie.jpg","E_M_nicolas_cage.jpg","TRUE","pictures/stimuli/E","pictures/stimuli/E","F","M","4","59bd1b8b3a9ab60001119adb","04/26/2022, 14:06:12","E_F_angelina_jolie.jpg E_M_nicolas_cage.jpg",-0.242982953948145,"29","Female","right",1,1,FALSE
8311,"E_M_nicolas_cage.jpg","P_M_bill_clinton.jpg","FALSE","pictures/stimuli/E","pictures/stimuli/P","M","M","5","59bd1b8b3a9ab60001119adb","04/26/2022, 14:06:12","E_M_nicolas_cage.jpg P_M_bill_clinton.jpg",0.539504524867914,"29","Female","right",1,1,FALSE
6350,"E_F_keira_knightley.jpg","E_M_Hugh_Grant.jpg","TRUE","pictures/stimuli/E","pictures/stimuli/E","F","M","4","59bd1b8b3a9ab60001119adb","04/26/2022, 14:06:12","E_F_keira_knightley.jpg E_M_Hugh_Grant.jpg",-0.242982953948145,"29","Female","right",1,1,FALSE
8461,"P_M_david_cameron.jpg","P_M_george_Wbush.jpg","TRUE","pictures/stimuli/P","pictures/stimuli/P","M","M","4","59bd1b8b3a9ab60001119adb","04/26/2022, 14:06:12","P_M_david_cameron.jpg P_M_george_Wbush.jpg",-0.242982953948145,"29","Female","right",1,1,FALSE
7342,"E_M_robert_de_niro.jpg","P_F_hillary_clinton.jpg","FALSE","pictures/stimuli/E","pictures/stimuli/P","M","F","6","59bd1b8b3a9ab60001119adb","04/26/2022, 14:06:12","E_M_robert_de_niro.jpg P_F_hillary_clinton.jpg",1.32199200368397,"29","Female","right",1,1,FALSE
4796,"E_M_Hugh_Grant.jpg","P_F_tehresy_may.jpg","FALSE","pictures/stimuli/E","pictures/stimuli/P","M","F","6","59bd1b8b3a9ab60001119adb","04/26/2022, 14:06:12","E_M_Hugh_Grant.jpg P_F_tehresy_may.jpg",1.32199200368397,"29","Female","right",1,1,FALSE
6374,"E_F_Kate_Winslet.jpg","E_F_keira_knightley.jpg","TRUE","pictures/stimuli/E","pictures/stimuli/E","F","F","2","59bd1b8b3a9ab60001119adb","04/26/2022, 14:06:12","E_F_Kate_Winslet.jpg E_F_keira_knightley.jpg",-1.80795791158026,"29","Female","right",1,1,FALSE
12083,"E_M_tom_hankes.jpg","P_F_hillary_clinton.jpg","FALSE","pictures/stimuli/E","pictures/stimuli/P","M","F","5","59bd1b8b3a9ab60001119adb","04/26/2022, 14:06:12","E_M_tom_hankes.jpg P_F_hillary_clinton.jpg",0.539504524867914,"29","Female","right",1,1,FALSE
6716,"E_F_keira_knightley.jpg","P_M_Tony_Blair.jpg","FALSE","pictures/stimuli/E","pictures/stimuli/P","F","M","5","59bd1b8b3a9ab60001119adb","04/26/2022, 14:06:12","E_F_keira_knightley.jpg P_M_Tony_Blair.jpg",0.539504524867914,"29","Female","right",1,1,FALSE
12170,"E_F_jennifer_aniston.jpg","E_F_sandra_bullock.jpg","TRUE","pictures/stimuli/E","pictures/stimuli/E","F","F","3","59bd1b8b3a9ab60001119adb","04/26/2022, 14:06:12","E_F_jennifer_aniston.jpg E_F_sandra_bullock.jpg",-1.0254704327642,"29","Female","right",1,1,FALSE
7527,"E_F_sandra_bullock.jpg","P_M_george_Wbush.jpg","FALSE","pictures/stimuli/E","pictures/stimuli/P","F","M","6","59bd1b8b3a9ab60001119adb","04/26/2022, 14:06:12","E_F_sandra_bullock.jpg P_M_george_Wbush.jpg",1.32199200368397,"29","Female","right",1,1,FALSE
6342,"E_F_keira_knightley.jpg","P_M_bill_clinton.jpg","FALSE","pictures/stimuli/E","pictures/stimuli/P","F","M","6","59bd1b8b3a9ab60001119adb","04/26/2022, 14:06:12","E_F_keira_knightley.jpg P_M_bill_clinton.jpg",1.32199200368397,"29","Female","right",1,1,FALSE
6079,"E_F_Kate_Winslet.jpg","P_M_donald_trump.jpg","FALSE","pictures/stimuli/E","pictures/stimuli/P","F","M","5","59bd1b8b3a9ab60001119adb","04/26/2022, 14:06:12","E_F_Kate_Winslet.jpg P_M_donald_trump.jpg",0.539504524867914,"29","Female","right",1,1,FALSE
11091,"E_M_robert_de_niro.jpg","P_M_donald_trump.jpg","FALSE","pictures/stimuli/E","pictures/stimuli/P","M","M","4","59bd1b8b3a9ab60001119adb","04/26/2022, 14:06:12","E_M_robert_de_niro.jpg P_M_donald_trump.jpg",-0.242982953948145,"29","Female","right",1,1,FALSE
7491,"P_F_nicola_sturgeon.jpg","P_F_tehresy_may.jpg","TRUE","pictures/stimuli/P","pictures/stimuli/P","F","F","5","59bd1b8b3a9ab60001119adb","04/26/2022, 14:06:12","P_F_nicola_sturgeon.jpg P_F_tehresy_may.jpg",0.539504524867914,"29","Female","right",1,1,FALSE
6663,"E_F_Kate_Winslet.jpg","P_F_nicola_sturgeon.jpg","FALSE","pictures/stimuli/E","pictures/stimuli/P","F","F","4","59bd1b8b3a9ab60001119adb","04/26/2022, 14:06:12","E_F_Kate_Winslet.jpg P_F_nicola_sturgeon.jpg",-0.242982953948145,"29","Female","right",1,1,FALSE
7962,"E_M_michael_caine.jpg","P_M_david_cameron.jpg","FALSE","pictures/stimuli/E","pictures/stimuli/P","M","M","3","59bd1b8b3a9ab60001119adb","04/26/2022, 14:06:12","E_M_michael_caine.jpg P_M_david_cameron.jpg",-1.0254704327642,"29","Female","right",1,1,FALSE
6693,"P_F_nicola_sturgeon.jpg","P_M_boris_johnson.jpg","TRUE","pictures/stimuli/P","pictures/stimuli/P","F","M","6","59bd1b8b3a9ab60001119adb","04/26/2022, 14:06:12","P_F_nicola_sturgeon.jpg P_M_boris_johnson.jpg",1.32199200368397,"29","Female","right",1,1,FALSE
9081,"E_F_angelina_jolie.jpg","P_F_tehresy_may.jpg","FALSE","pictures/stimuli/E","pictures/stimuli/P","F","F","5","59bd1b8b3a9ab60001119adb","04/26/2022, 14:06:12","E_F_angelina_jolie.jpg P_F_tehresy_may.jpg",0.539504524867914,"29","Female","right",1,1,FALSE
13573,"E_M_Hugh_Grant.jpg","P_M_donald_trump.jpg","FALSE","pictures/stimuli/E","pictures/stimuli/P","M","M","5","59bd1b8b3a9ab60001119adb","04/26/2022, 14:06:12","E_M_Hugh_Grant.jpg P_M_donald_trump.jpg",0.539504524867914,"29","Female","right",1,1,FALSE
12437,"E_F_Judi_Dench.jpg","E_F_Kate_Winslet.jpg","TRUE","pictures/stimuli/E","pictures/stimuli/E","F","F","2","59bd1b8b3a9ab60001119adb","04/26/2022, 14:06:12","E_F_Judi_Dench.jpg E_F_Kate_Winslet.jpg",-1.80795791158026,"29","Female","right",1,1,FALSE
9288,"E_F_Kate_Winslet.jpg","E_M_michael_caine.jpg","TRUE","pictures/stimuli/E","pictures/stimuli/E","F","M","5","59bd1b8b3a9ab60001119adb","04/26/2022, 14:06:12","E_F_Kate_Winslet.jpg E_M_michael_caine.jpg",0.539504524867914,"29","Female","right",1,1,FALSE
8705,"E_F_Judi_Dench.jpg","E_M_michael_caine.jpg","TRUE","pictures/stimuli/E","pictures/stimuli/E","F","M","5","59bd1b8b3a9ab60001119adb","04/26/2022, 14:06:12","E_F_Judi_Dench.jpg E_M_michael_caine.jpg",0.539504524867914,"29","Female","right",1,1,FALSE
8949,"P_M_george_Wbush.jpg","P_M_Tony_Blair.jpg","TRUE","pictures/stimuli/P","pictures/stimuli/P","M","M","3","59bd1b8b3a9ab60001119adb","04/26/2022, 14:06:12","P_M_george_Wbush.jpg P_M_Tony_Blair.jpg",-1.0254704327642,"29","Female","right",1,1,FALSE
9846,"E_F_angelina_jolie.jpg","E_F_jennifer_aniston.jpg","TRUE","pictures/stimuli/E","pictures/stimuli/E","F","F","3","59bd1b8b3a9ab60001119adb","04/26/2022, 14:06:12","E_F_angelina_jolie.jpg E_F_jennifer_aniston.jpg",-1.0254704327642,"29","Female","right",1,1,FALSE
9765,"E_M_tom_hankes.jpg","P_F_tehresy_may.jpg","FALSE","pictures/stimuli/E","pictures/stimuli/P","M","F","6","59bd1b8b3a9ab60001119adb","04/26/2022, 14:06:12","E_M_tom_hankes.jpg P_F_tehresy_may.jpg",1.32199200368397,"29","Female","right",1,1,FALSE
9429,"E_M_michael_caine.jpg","E_M_robert_de_niro.jpg","TRUE","pictures/stimuli/E","pictures/stimuli/E","M","M","3","59bd1b8b3a9ab60001119adb","04/26/2022, 14:06:12","E_M_michael_caine.jpg E_M_robert_de_niro.jpg",-1.0254704327642,"29","Female","right",1,1,FALSE
6127,"E_M_tom_hankes.jpg","P_M_george_Wbush.jpg","FALSE","pictures/stimuli/E","pictures/stimuli/P","M","M","2","59bd1b8b3a9ab60001119adb","04/26/2022, 14:06:12","E_M_tom_hankes.jpg P_M_george_Wbush.jpg",-1.80795791158026,"29","Female","right",1,1,FALSE
6021,"E_F_sandra_bullock.jpg","P_F_tehresy_may.jpg","FALSE","pictures/stimuli/E","pictures/stimuli/P","F","F","5","59bd1b8b3a9ab60001119adb","04/26/2022, 14:06:12","E_F_sandra_bullock.jpg P_F_tehresy_may.jpg",0.539504524867914,"29","Female","right",1,1,FALSE
5881,"E_M_nicolas_cage.jpg","P_M_Tony_Blair.jpg","FALSE","pictures/stimuli/E","pictures/stimuli/P","M","M","2","59bd1b8b3a9ab60001119adb","04/26/2022, 14:06:12","E_M_nicolas_cage.jpg P_M_Tony_Blair.jpg",-1.80795791158026,"29","Female","right",1,1,FALSE
9488,"P_F_hillary_clinton.jpg","P_M_Tony_Blair.jpg","TRUE","pictures/stimuli/P","pictures/stimuli/P","F","M","5","59bd1b8b3a9ab60001119adb","04/26/2022, 14:06:12","P_F_hillary_clinton.jpg P_M_Tony_Blair.jpg",0.539504524867914,"29","Female","right",1,1,FALSE
6632,"E_M_Hugh_Grant.jpg","P_M_bill_clinton.jpg","FALSE","pictures/stimuli/E","pictures/stimuli/P","M","M","3","59bd1b8b3a9ab60001119adb","04/26/2022, 14:06:12","E_M_Hugh_Grant.jpg P_M_bill_clinton.jpg",-1.0254704327642,"29","Female","right",1,1,FALSE
5911,"E_F_jennifer_aniston.jpg","P_M_george_Wbush.jpg","FALSE","pictures/stimuli/E","pictures/stimuli/P","F","M","6","59bd1b8b3a9ab60001119adb","04/26/2022, 14:06:12","E_F_jennifer_aniston.jpg P_M_george_Wbush.jpg",1.32199200368397,"29","Female","right",1,1,FALSE
7846,"E_F_angelina_jolie.jpg","P_M_david_cameron.jpg","FALSE","pictures/stimuli/E","pictures/stimuli/P","F","M","5","59bd1b8b3a9ab60001119adb","04/26/2022, 14:06:12","E_F_angelina_jolie.jpg P_M_david_cameron.jpg",0.539504524867914,"29","Female","right",1,1,FALSE
6535,"P_M_bill_clinton.jpg","P_M_donald_trump.jpg","TRUE","pictures/stimuli/P","pictures/stimuli/P","M","M","4","59bd1b8b3a9ab60001119adb","04/26/2022, 14:06:12","P_M_bill_clinton.jpg P_M_donald_trump.jpg",-0.242982953948145,"29","Female","right",1,1,FALSE
5800,"E_F_Judi_Dench.jpg","E_F_keira_knightley.jpg","TRUE","pictures/stimuli/E","pictures/stimuli/E","F","F","3","59bd1b8b3a9ab60001119adb","04/26/2022, 14:06:12","E_F_Judi_Dench.jpg E_F_keira_knightley.jpg",-1.0254704327642,"29","Female","right",1,1,FALSE
10444,"E_M_michael_caine.jpg","P_F_nicola_sturgeon.jpg","FALSE","pictures/stimuli/E","pictures/stimuli/P","M","F","5","59bd1b8b3a9ab60001119adb","04/26/2022, 14:06:12","E_M_michael_caine.jpg P_F_nicola_sturgeon.jpg",0.539504524867914,"29","Female","right",1,1,FALSE
5368,"E_M_nicolas_cage.jpg","P_M_david_cameron.jpg","FALSE","pictures/stimuli/E","pictures/stimuli/P","M","M","4","59bd1b8b3a9ab60001119adb","04/26/2022, 14:06:12","E_M_nicolas_cage.jpg P_M_david_cameron.jpg",-0.242982953948145,"29","Female","right",1,1,FALSE
5816,"E_F_angelina_jolie.jpg","E_M_michael_caine.jpg","TRUE","pictures/stimuli/E","pictures/stimuli/E","F","M","5","59bd1b8b3a9ab60001119adb","04/26/2022, 14:06:12","E_F_angelina_jolie.jpg E_M_michael_caine.jpg",0.539504524867914,"29","Female","right",1,1,FALSE
6264,"E_F_keira_knightley.jpg","P_F_hillary_clinton.jpg","FALSE","pictures/stimuli/E","pictures/stimuli/P","F","F","3","59bd1b8b3a9ab60001119adb","04/26/2022, 14:06:12","E_F_keira_knightley.jpg P_F_hillary_clinton.jpg",-1.0254704327642,"29","Female","right",1,1,FALSE
7383,"P_M_boris_johnson.jpg","P_M_david_cameron.jpg","TRUE","pictures/stimuli/P","pictures/stimuli/P","M","M","5","59bd1b8b3a9ab60001119adb","04/26/2022, 14:06:12","P_M_boris_johnson.jpg P_M_david_cameron.jpg",0.539504524867914,"29","Female","right",1,1,FALSE
6611,"E_F_Kate_Winslet.jpg","P_M_bill_clinton.jpg","FALSE","pictures/stimuli/E","pictures/stimuli/P","F","M","5","59bd1b8b3a9ab60001119adb","04/26/2022, 14:06:12","E_F_Kate_Winslet.jpg P_M_bill_clinton.jpg",0.539504524867914,"29","Female","right",1,1,FALSE
7411,"P_M_boris_johnson.jpg","P_M_Tony_Blair.jpg","TRUE","pictures/stimuli/P","pictures/stimuli/P","M","M","4","59bd1b8b3a9ab60001119adb","04/26/2022, 14:06:12","P_M_boris_johnson.jpg P_M_Tony_Blair.jpg",-0.242982953948145,"29","Female","right",1,1,FALSE
7247,"E_F_jennifer_aniston.jpg","P_M_boris_johnson.jpg","FALSE","pictures/stimuli/E","pictures/stimuli/P","F","M","5","59bd1b8b3a9ab60001119adb","04/26/2022, 14:06:12","E_F_jennifer_aniston.jpg P_M_boris_johnson.jpg",0.539504524867914,"29","Female","right",1,1,FALSE
4926,"E_F_jennifer_aniston.jpg","P_F_tehresy_may.jpg","FALSE","pictures/stimuli/E","pictures/stimuli/P","F","F","5","59bd1b8b3a9ab60001119adb","04/26/2022, 14:06:12","E_F_jennifer_aniston.jpg P_F_tehresy_may.jpg",0.539504524867914,"29","Female","right",1,1,FALSE
10328,"E_F_keira_knightley.jpg","E_F_sandra_bullock.jpg","TRUE","pictures/stimuli/E","pictures/stimuli/E","F","F","1","59bd1b8b3a9ab60001119adb","04/26/2022, 14:06:12","E_F_keira_knightley.jpg E_F_sandra_bullock.jpg",-2.59044539039632,"29","Female","right",1,1,FALSE
8117,"E_F_sandra_bullock.jpg","P_M_Tony_Blair.jpg","FALSE","pictures/stimuli/E","pictures/stimuli/P","F","M","5","59bd1b8b3a9ab60001119adb","04/26/2022, 14:06:12","E_F_sandra_bullock.jpg P_M_Tony_Blair.jpg",0.539504524867914,"29","Female","right",1,1,FALSE
10960,"E_M_michael_caine.jpg","P_M_donald_trump.jpg","FALSE","pictures/stimuli/E","pictures/stimuli/P","M","M","4","59bd1b8b3a9ab60001119adb","04/26/2022, 14:06:12","E_M_michael_caine.jpg P_M_donald_trump.jpg",-0.242982953948145,"29","Female","right",1,1,FALSE
6191,"E_F_sandra_bullock.jpg","P_M_donald_trump.jpg","FALSE","pictures/stimuli/E","pictures/stimuli/P","F","M","6","59bd1b8b3a9ab60001119adb","04/26/2022, 14:06:12","E_F_sandra_bullock.jpg P_M_donald_trump.jpg",1.32199200368397,"29","Female","right",1,1,FALSE
7594,"E_M_michael_caine.jpg","P_F_tehresy_may.jpg","FALSE","pictures/stimuli/E","pictures/stimuli/P","M","F","5","59bd1b8b3a9ab60001119adb","04/26/2022, 14:06:12","E_M_michael_caine.jpg P_F_tehresy_may.jpg",0.539504524867914,"29","Female","right",1,1,FALSE
5923,"E_F_jennifer_aniston.jpg","P_F_nicola_sturgeon.jpg","FALSE","pictures/stimuli/E","pictures/stimuli/P","F","F","5","59bd1b8b3a9ab60001119adb","04/26/2022, 14:06:12","E_F_jennifer_aniston.jpg P_F_nicola_sturgeon.jpg",0.539504524867914,"29","Female","right",1,1,FALSE
7705,"E_F_angelina_jolie.jpg","E_F_Judi_Dench.jpg","TRUE","pictures/stimuli/E","pictures/stimuli/E","F","F","3","59bd1b8b3a9ab60001119adb","04/26/2022, 14:06:12","E_F_angelina_jolie.jpg E_F_Judi_Dench.jpg",-1.0254704327642,"29","Female","right",1,1,FALSE
7461,"E_M_robert_de_niro.jpg","P_F_nicola_sturgeon.jpg","FALSE","pictures/stimuli/E","pictures/stimuli/P","M","F","4","59bd1b8b3a9ab60001119adb","04/26/2022, 14:06:12","E_M_robert_de_niro.jpg P_F_nicola_sturgeon.jpg",-0.242982953948145,"29","Female","right",1,1,FALSE
6870,"E_M_Hugh_Grant.jpg","P_M_Tony_Blair.jpg","FALSE","pictures/stimuli/E","pictures/stimuli/P","M","M","2","59bd1b8b3a9ab60001119adb","04/26/2022, 14:06:12","E_M_Hugh_Grant.jpg P_M_Tony_Blair.jpg",-1.80795791158026,"29","Female","right",1,1,FALSE
7716,"E_M_michael_caine.jpg","P_F_hillary_clinton.jpg","FALSE","pictures/stimuli/E","pictures/stimuli/P","M","F","4","59bd1b8b3a9ab60001119adb","04/26/2022, 14:06:12","E_M_michael_caine.jpg P_F_hillary_clinton.jpg",-0.242982953948145,"29","Female","right",1,1,FALSE
6447,"P_F_tehresy_may.jpg","P_M_david_cameron.jpg","TRUE","pictures/stimuli/P","pictures/stimuli/P","F","M","6","59bd1b8b3a9ab60001119adb","04/26/2022, 14:06:12","P_F_tehresy_may.jpg P_M_david_cameron.jpg",1.32199200368397,"29","Female","right",1,1,FALSE
8425,"E_F_angelina_jolie.jpg","P_M_Tony_Blair.jpg","FALSE","pictures/stimuli/E","pictures/stimuli/P","F","M","4","59bd1b8b3a9ab60001119adb","04/26/2022, 14:06:12","E_F_angelina_jolie.jpg P_M_Tony_Blair.jpg",-0.242982953948145,"29","Female","right",1,1,FALSE
7236,"P_F_hillary_clinton.jpg","P_F_nicola_sturgeon.jpg","TRUE","pictures/stimuli/P","pictures/stimuli/P","F","F","3","59bd1b8b3a9ab60001119adb","04/26/2022, 14:06:12","P_F_hillary_clinton.jpg P_F_nicola_sturgeon.jpg",-1.0254704327642,"29","Female","right",1,1,FALSE
11767,"E_M_Hugh_Grant.jpg","E_M_nicolas_cage.jpg","TRUE","pictures/stimuli/E","pictures/stimuli/E","M","M","4","59bd1b8b3a9ab60001119adb","04/26/2022, 14:06:12","E_M_Hugh_Grant.jpg E_M_nicolas_cage.jpg",-0.242982953948145,"29","Female","right",1,1,FALSE
7958,"E_F_angelina_jolie.jpg","E_F_Kate_Winslet.jpg","TRUE","pictures/stimuli/E","pictures/stimuli/E","F","F","3","59bd1b8b3a9ab60001119adb","04/26/2022, 14:06:12","E_F_angelina_jolie.jpg E_F_Kate_Winslet.jpg",-1.0254704327642,"29","Female","right",1,1,FALSE
6803,"E_F_angelina_jolie.jpg","E_M_robert_de_niro.jpg","TRUE","pictures/stimuli/E","pictures/stimuli/E","F","M","6","59bd1b8b3a9ab60001119adb","04/26/2022, 14:06:12","E_F_angelina_jolie.jpg E_M_robert_de_niro.jpg",1.32199200368397,"29","Female","right",1,1,FALSE
6865,"E_M_nicolas_cage.jpg","P_F_tehresy_may.jpg","FALSE","pictures/stimuli/E","pictures/stimuli/P","M","F","6","59bd1b8b3a9ab60001119adb","04/26/2022, 14:06:12","E_M_nicolas_cage.jpg P_F_tehresy_may.jpg",1.32199200368397,"29","Female","right",1,1,FALSE
5647,"E_M_tom_hankes.jpg","P_M_Tony_Blair.jpg","FALSE","pictures/stimuli/E","pictures/stimuli/P","M","M","2","59bd1b8b3a9ab60001119adb","04/26/2022, 14:06:12","E_M_tom_hankes.jpg P_M_Tony_Blair.jpg",-1.80795791158026,"29","Female","right",1,1,FALSE
5431,"P_F_tehresy_may.jpg","P_M_donald_trump.jpg","TRUE","pictures/stimuli/P","pictures/stimuli/P","F","M","5","59bd1b8b3a9ab60001119adb","04/26/2022, 14:06:12","P_F_tehresy_may.jpg P_M_donald_trump.jpg",0.539504524867914,"29","Female","right",1,1,FALSE
8427,"E_F_angelina_jolie.jpg","E_F_sandra_bullock.jpg","TRUE","pictures/stimuli/E","pictures/stimuli/E","F","F","2","59bd1b8b3a9ab60001119adb","04/26/2022, 14:06:12","E_F_angelina_jolie.jpg E_F_sandra_bullock.jpg",-1.80795791158026,"29","Female","right",1,1,FALSE
6376,"E_F_angelina_jolie.jpg","P_M_bill_clinton.jpg","FALSE","pictures/stimuli/E","pictures/stimuli/P","F","M","6","59bd1b8b3a9ab60001119adb","04/26/2022, 14:06:12","E_F_angelina_jolie.jpg P_M_bill_clinton.jpg",1.32199200368397,"29","Female","right",1,1,FALSE
6413,"E_F_sandra_bullock.jpg","E_M_michael_caine.jpg","TRUE","pictures/stimuli/E","pictures/stimuli/E","F","M","5","59bd1b8b3a9ab60001119adb","04/26/2022, 14:06:12","E_F_sandra_bullock.jpg E_M_michael_caine.jpg",0.539504524867914,"29","Female","right",1,1,FALSE
6714,"E_F_sandra_bullock.jpg","P_F_hillary_clinton.jpg","FALSE","pictures/stimuli/E","pictures/stimuli/P","F","F","5","59bd1b8b3a9ab60001119adb","04/26/2022, 14:06:12","E_F_sandra_bullock.jpg P_F_hillary_clinton.jpg",0.539504524867914,"29","Female","right",1,1,FALSE
8845,"E_F_Kate_Winslet.jpg","E_M_Hugh_Grant.jpg","TRUE","pictures/stimuli/E","pictures/stimuli/E","F","M","4","59bd1b8b3a9ab60001119adb","04/26/2022, 14:06:12","E_F_Kate_Winslet.jpg E_M_Hugh_Grant.jpg",-0.242982953948145,"29","Female","right",1,1,FALSE
4862,"E_F_Kate_Winslet.jpg","E_M_nicolas_cage.jpg","TRUE","pictures/stimuli/E","pictures/stimuli/E","F","M","5","59bd1b8b3a9ab60001119adb","04/26/2022, 14:06:12","E_F_Kate_Winslet.jpg E_M_nicolas_cage.jpg",0.539504524867914,"29","Female","right",1,1,FALSE
6165,"E_M_nicolas_cage.jpg","P_F_nicola_sturgeon.jpg","FALSE","pictures/stimuli/E","pictures/stimuli/P","M","F","6","59bd1b8b3a9ab60001119adb","04/26/2022, 14:06:12","E_M_nicolas_cage.jpg P_F_nicola_sturgeon.jpg",1.32199200368397,"29","Female","right",1,1,FALSE
13175,"E_F_jennifer_aniston.jpg","E_F_keira_knightley.jpg","TRUE","pictures/stimuli/E","pictures/stimuli/E","F","F","2","59bd1b8b3a9ab60001119adb","04/26/2022, 14:06:12","E_F_jennifer_aniston.jpg E_F_keira_knightley.jpg",-1.80795791158026,"29","Female","right",1,1,FALSE
5577,"E_F_Judi_Dench.jpg","P_F_tehresy_may.jpg","FALSE","pictures/stimuli/E","pictures/stimuli/P","F","F","5","59bd1b8b3a9ab60001119adb","04/26/2022, 14:06:12","E_F_Judi_Dench.jpg P_F_tehresy_may.jpg",0.539504524867914,"29","Female","right",1,1,FALSE
6598,"E_M_michael_caine.jpg","E_M_nicolas_cage.jpg","TRUE","pictures/stimuli/E","pictures/stimuli/E","M","M","4","59bd1b8b3a9ab60001119adb","04/26/2022, 14:06:12","E_M_michael_caine.jpg E_M_nicolas_cage.jpg",-0.242982953948145,"29","Female","right",1,1,FALSE
5661,"E_F_keira_knightley.jpg","P_M_donald_trump.jpg","FALSE","pictures/stimuli/E","pictures/stimuli/P","F","M","6","59bd1b8b3a9ab60001119adb","04/26/2022, 14:06:12","E_F_keira_knightley.jpg P_M_donald_trump.jpg",1.32199200368397,"29","Female","right",1,1,FALSE
6042,"E_F_angelina_jolie.jpg","P_M_george_Wbush.jpg","FALSE","pictures/stimuli/E","pictures/stimuli/P","F","M","6","59bd1b8b3a9ab60001119adb","04/26/2022, 14:06:12","E_F_angelina_jolie.jpg P_M_george_Wbush.jpg",1.32199200368397,"29","Female","right",1,1,FALSE
5442,"E_M_Hugh_Grant.jpg","P_M_boris_johnson.jpg","FALSE","pictures/stimuli/E","pictures/stimuli/P","M","M","5","59bd1b8b3a9ab60001119adb","04/26/2022, 14:06:12","E_M_Hugh_Grant.jpg P_M_boris_johnson.jpg",0.539504524867914,"29","Female","right",1,1,FALSE
7977,"E_F_Kate_Winslet.jpg","E_F_sandra_bullock.jpg","TRUE","pictures/stimuli/E","pictures/stimuli/E","F","F","3","59bd1b8b3a9ab60001119adb","04/26/2022, 14:06:12","E_F_Kate_Winslet.jpg E_F_sandra_bullock.jpg",-1.0254704327642,"29","Female","right",1,1,FALSE
7007,"E_F_jennifer_aniston.jpg","E_M_michael_caine.jpg","TRUE","pictures/stimuli/E","pictures/stimuli/E","F","M","5","59bd1b8b3a9ab60001119adb","04/26/2022, 14:06:12","E_F_jennifer_aniston.jpg E_M_michael_caine.jpg",0.539504524867914,"29","Female","right",1,1,FALSE
6013,"E_F_jennifer_aniston.jpg","P_M_bill_clinton.jpg","FALSE","pictures/stimuli/E","pictures/stimuli/P","F","M","5","59bd1b8b3a9ab60001119adb","04/26/2022, 14:06:12","E_F_jennifer_aniston.jpg P_M_bill_clinton.jpg",0.539504524867914,"29","Female","right",1,1,FALSE
7092,"E_F_Kate_Winslet.jpg","E_M_tom_hankes.jpg","TRUE","pictures/stimuli/E","pictures/stimuli/E","F","M","5","59bd1b8b3a9ab60001119adb","04/26/2022, 14:06:12","E_F_Kate_Winslet.jpg E_M_tom_hankes.jpg",0.539504524867914,"29","Female","right",1,1,FALSE
9813,"P_F_tehresy_may.jpg","P_M_bill_clinton.jpg","TRUE","pictures/stimuli/P","pictures/stimuli/P","F","M","4","59bd1b8b3a9ab60001119adb","04/26/2022, 14:06:12","P_F_tehresy_may.jpg P_M_bill_clinton.jpg",-0.242982953948145,"29","Female","right",1,1,FALSE
5984,"E_F_jennifer_aniston.jpg","E_M_tom_hankes.jpg","TRUE","pictures/stimuli/E","pictures/stimuli/E","F","M","5","59bd1b8b3a9ab60001119adb","04/26/2022, 14:06:12","E_F_jennifer_aniston.jpg E_M_tom_hankes.jpg",0.539504524867914,"29","Female","right",1,1,FALSE
9361,"E_F_sandra_bullock.jpg","E_M_Hugh_Grant.jpg","TRUE","pictures/stimuli/E","pictures/stimuli/E","F","M","4","59bd1b8b3a9ab60001119adb","04/26/2022, 14:06:12","E_F_sandra_bullock.jpg E_M_Hugh_Grant.jpg",-0.242982953948145,"29","Female","right",1,1,FALSE
8485,"E_F_angelina_jolie.jpg","P_M_donald_trump.jpg","FALSE","pictures/stimuli/E","pictures/stimuli/P","F","M","6","59bd1b8b3a9ab60001119adb","04/26/2022, 14:06:12","E_F_angelina_jolie.jpg P_M_donald_trump.jpg",1.32199200368397,"29","Female","right",1,1,FALSE
6115,"P_F_nicola_sturgeon.jpg","P_M_david_cameron.jpg","TRUE","pictures/stimuli/P","pictures/stimuli/P","F","M","5","59bd1b8b3a9ab60001119adb","04/26/2022, 14:06:12","P_F_nicola_sturgeon.jpg P_M_david_cameron.jpg",0.539504524867914,"29","Female","right",1,1,FALSE
6794,"P_F_nicola_sturgeon.jpg","P_M_bill_clinton.jpg","TRUE","pictures/stimuli/P","pictures/stimuli/P","F","M","5","59bd1b8b3a9ab60001119adb","04/26/2022, 14:06:12","P_F_nicola_sturgeon.jpg P_M_bill_clinton.jpg",0.539504524867914,"29","Female","right",1,1,FALSE
6392,"E_F_keira_knightley.jpg","P_M_boris_johnson.jpg","FALSE","pictures/stimuli/E","pictures/stimuli/P","F","M","6","59bd1b8b3a9ab60001119adb","04/26/2022, 14:06:12","E_F_keira_knightley.jpg P_M_boris_johnson.jpg",1.32199200368397,"29","Female","right",1,1,FALSE
5679,"E_F_Kate_Winslet.jpg","P_F_tehresy_may.jpg","FALSE","pictures/stimuli/E","pictures/stimuli/P","F","F","5","59bd1b8b3a9ab60001119adb","04/26/2022, 14:06:12","E_F_Kate_Winslet.jpg P_F_tehresy_may.jpg",0.539504524867914,"29","Female","right",1,1,FALSE
8050,"P_M_bill_clinton.jpg","P_M_Tony_Blair.jpg","TRUE","pictures/stimuli/P","pictures/stimuli/P","M","M","4","59bd1b8b3a9ab60001119adb","04/26/2022, 14:06:12","P_M_bill_clinton.jpg P_M_Tony_Blair.jpg",-0.242982953948145,"29","Female","right",1,1,FALSE
5632,"P_M_donald_trump.jpg","P_M_Tony_Blair.jpg","TRUE","pictures/stimuli/P","pictures/stimuli/P","M","M","5","59bd1b8b3a9ab60001119adb","04/26/2022, 14:06:12","P_M_donald_trump.jpg P_M_Tony_Blair.jpg",0.539504524867914,"29","Female","right",1,1,FALSE
5848,"E_F_jennifer_aniston.jpg","P_M_david_cameron.jpg","FALSE","pictures/stimuli/E","pictures/stimuli/P","F","M","5","59bd1b8b3a9ab60001119adb","04/26/2022, 14:06:12","E_F_jennifer_aniston.jpg P_M_david_cameron.jpg",0.539504524867914,"29","Female","right",1,1,FALSE
10145,"E_F_angelina_jolie.jpg","E_F_keira_knightley.jpg","TRUE","pictures/stimuli/E","pictures/stimuli/E","F","F","2","59bd1b8b3a9ab60001119adb","04/26/2022, 14:06:12","E_F_angelina_jolie.jpg E_F_keira_knightley.jpg",-1.80795791158026,"29","Female","right",1,1,FALSE
6262,"P_F_hillary_clinton.jpg","P_M_boris_johnson.jpg","TRUE","pictures/stimuli/P","pictures/stimuli/P","F","M","4","59bd1b8b3a9ab60001119adb","04/26/2022, 14:06:12","P_F_hillary_clinton.jpg P_M_boris_johnson.jpg",-0.242982953948145,"29","Female","right",1,1,FALSE
6135,"E_F_Judi_Dench.jpg","P_M_Tony_Blair.jpg","FALSE","pictures/stimuli/E","pictures/stimuli/P","F","M","5","59bd1b8b3a9ab60001119adb","04/26/2022, 14:06:12","E_F_Judi_Dench.jpg P_M_Tony_Blair.jpg",0.539504524867914,"29","Female","right",1,1,FALSE
7244,"E_M_robert_de_niro.jpg","P_M_george_Wbush.jpg","FALSE","pictures/stimuli/E","pictures/stimuli/P","M","M","3","59bd1b8b3a9ab60001119adb","04/26/2022, 14:06:12","E_M_robert_de_niro.jpg P_M_george_Wbush.jpg",-1.0254704327642,"29","Female","right",1,1,FALSE
5873,"E_M_Hugh_Grant.jpg","P_F_nicola_sturgeon.jpg","FALSE","pictures/stimuli/E","pictures/stimuli/P","M","F","5","59bd1b8b3a9ab60001119adb","04/26/2022, 14:06:12","E_M_Hugh_Grant.jpg P_F_nicola_sturgeon.jpg",0.539504524867914,"29","Female","right",1,1,FALSE
9613,"E_M_michael_caine.jpg","P_M_Tony_Blair.jpg","FALSE","pictures/stimuli/E","pictures/stimuli/P","M","M","5","59bd1b8b3a9ab60001119adb","04/26/2022, 14:06:12","E_M_michael_caine.jpg P_M_Tony_Blair.jpg",0.539504524867914,"29","Female","right",1,1,FALSE
8478,"E_M_nicolas_cage.jpg","P_F_hillary_clinton.jpg","FALSE","pictures/stimuli/E","pictures/stimuli/P","M","F","6","59bd1b8b3a9ab60001119adb","04/26/2022, 14:06:12","E_M_nicolas_cage.jpg P_F_hillary_clinton.jpg",1.32199200368397,"29","Female","right",1,1,FALSE
6122,"E_F_sandra_bullock.jpg","P_M_david_cameron.jpg","FALSE","pictures/stimuli/E","pictures/stimuli/P","F","M","5","59bd1b8b3a9ab60001119adb","04/26/2022, 14:06:12","E_F_sandra_bullock.jpg P_M_david_cameron.jpg",0.539504524867914,"29","Female","right",1,1,FALSE
9195,"E_F_Judi_Dench.jpg","P_M_boris_johnson.jpg","FALSE","pictures/stimuli/E","pictures/stimuli/P","F","M","5","59bd1b8b3a9ab60001119adb","04/26/2022, 14:06:12","E_F_Judi_Dench.jpg P_M_boris_johnson.jpg",0.539504524867914,"29","Female","right",1,1,FALSE
5883,"P_F_tehresy_may.jpg","P_M_Tony_Blair.jpg","TRUE","pictures/stimuli/P","pictures/stimuli/P","F","M","5","59bd1b8b3a9ab60001119adb","04/26/2022, 14:06:12","P_F_tehresy_may.jpg P_M_Tony_Blair.jpg",0.539504524867914,"29","Female","right",1,1,FALSE
6556,"P_F_nicola_sturgeon.jpg","P_M_Tony_Blair.jpg","TRUE","pictures/stimuli/P","pictures/stimuli/P","F","M","5","59bd1b8b3a9ab60001119adb","04/26/2022, 14:06:12","P_F_nicola_sturgeon.jpg P_M_Tony_Blair.jpg",0.539504524867914,"29","Female","right",1,1,FALSE
7330,"E_F_jennifer_aniston.jpg","P_F_hillary_clinton.jpg","FALSE","pictures/stimuli/E","pictures/stimuli/P","F","F","3","59bd1b8b3a9ab60001119adb","04/26/2022, 14:06:12","E_F_jennifer_aniston.jpg P_F_hillary_clinton.jpg",-1.0254704327642,"29","Female","right",1,1,FALSE
7040,"E_F_keira_knightley.jpg","P_M_david_cameron.jpg","FALSE","pictures/stimuli/E","pictures/stimuli/P","F","M","4","59bd1b8b3a9ab60001119adb","04/26/2022, 14:06:12","E_F_keira_knightley.jpg P_M_david_cameron.jpg",-0.242982953948145,"29","Female","right",1,1,FALSE
5851,"E_F_sandra_bullock.jpg","P_M_bill_clinton.jpg","FALSE","pictures/stimuli/E","pictures/stimuli/P","F","M","5","59bd1b8b3a9ab60001119adb","04/26/2022, 14:06:12","E_F_sandra_bullock.jpg P_M_bill_clinton.jpg",0.539504524867914,"29","Female","right",1,1,FALSE
6806,"E_M_michael_caine.jpg","P_M_george_Wbush.jpg","FALSE","pictures/stimuli/E","pictures/stimuli/P","M","M","3","59bd1b8b3a9ab60001119adb","04/26/2022, 14:06:12","E_M_michael_caine.jpg P_M_george_Wbush.jpg",-1.0254704327642,"29","Female","right",1,1,FALSE
6445,"E_F_keira_knightley.jpg","P_F_tehresy_may.jpg","FALSE","pictures/stimuli/E","pictures/stimuli/P","F","F","6","59bd1b8b3a9ab60001119adb","04/26/2022, 14:06:12","E_F_keira_knightley.jpg P_F_tehresy_may.jpg",1.32199200368397,"29","Female","right",1,1,FALSE
10959,"P_F_hillary_clinton.jpg","P_F_tehresy_may.jpg","TRUE","pictures/stimuli/P","pictures/stimuli/P","F","F","4","59bd1b8b3a9ab60001119adb","04/26/2022, 14:06:12","P_F_hillary_clinton.jpg P_F_tehresy_may.jpg",-0.242982953948145,"29","Female","right",1,1,FALSE
7882,"E_F_Judi_Dench.jpg","P_M_george_Wbush.jpg","FALSE","pictures/stimuli/E","pictures/stimuli/P","F","M","5","59bd1b8b3a9ab60001119adb","04/26/2022, 14:06:12","E_F_Judi_Dench.jpg P_M_george_Wbush.jpg",0.539504524867914,"29","Female","right",1,1,FALSE
5372,"E_M_tom_hankes.jpg","P_M_donald_trump.jpg","FALSE","pictures/stimuli/E","pictures/stimuli/P","M","M","5","59bd1b8b3a9ab60001119adb","04/26/2022, 14:06:12","E_M_tom_hankes.jpg P_M_donald_trump.jpg",0.539504524867914,"29","Female","right",1,1,FALSE
5555,"E_F_Kate_Winslet.jpg","P_M_david_cameron.jpg","FALSE","pictures/stimuli/E","pictures/stimuli/P","F","M","4","59bd1b8b3a9ab60001119adb","04/26/2022, 14:06:12","E_F_Kate_Winslet.jpg P_M_david_cameron.jpg",-0.242982953948145,"29","Female","right",1,1,FALSE
9520,"E_M_robert_de_niro.jpg","P_M_david_cameron.jpg","FALSE","pictures/stimuli/E","pictures/stimuli/P","M","M","5","59bd1b8b3a9ab60001119adb","04/26/2022, 14:06:12","E_M_robert_de_niro.jpg P_M_david_cameron.jpg",0.539504524867914,"29","Female","right",1,1,FALSE
5811,"E_F_jennifer_aniston.jpg","E_M_robert_de_niro.jpg","TRUE","pictures/stimuli/E","pictures/stimuli/E","F","M","6","59bd1b8b3a9ab60001119adb","04/26/2022, 14:06:12","E_F_jennifer_aniston.jpg E_M_robert_de_niro.jpg",1.32199200368397,"29","Female","right",1,1,FALSE
8476,"P_M_bill_clinton.jpg","P_M_david_cameron.jpg","TRUE","pictures/stimuli/P","pictures/stimuli/P","M","M","4","59bd1b8b3a9ab60001119adb","04/26/2022, 14:06:12","P_M_bill_clinton.jpg P_M_david_cameron.jpg",-0.242982953948145,"29","Female","right",1,1,FALSE
5407,"E_F_Judi_Dench.jpg","E_M_nicolas_cage.jpg","TRUE","pictures/stimuli/E","pictures/stimuli/E","F","M","5","59bd1b8b3a9ab60001119adb","04/26/2022, 14:06:12","E_F_Judi_Dench.jpg E_M_nicolas_cage.jpg",0.539504524867914,"29","Female","right",1,1,FALSE
8993,"E_F_Kate_Winslet.jpg","P_F_hillary_clinton.jpg","FALSE","pictures/stimuli/E","pictures/stimuli/P","F","F","2","59bd1b8b3a9ab60001119adb","04/26/2022, 14:06:12","E_F_Kate_Winslet.jpg P_F_hillary_clinton.jpg",-1.80795791158026,"29","Female","right",1,1,FALSE
7070,"E_F_jennifer_aniston.jpg","P_M_donald_trump.jpg","FALSE","pictures/stimuli/E","pictures/stimuli/P","F","M","5","59bd1b8b3a9ab60001119adb","04/26/2022, 14:06:12","E_F_jennifer_aniston.jpg P_M_donald_trump.jpg",0.539504524867914,"29","Female","right",1,1,FALSE
7368,"E_F_keira_knightley.jpg","P_M_george_Wbush.jpg","FALSE","pictures/stimuli/E","pictures/stimuli/P","F","M","6","59bd1b8b3a9ab60001119adb","04/26/2022, 14:06:12","E_F_keira_knightley.jpg P_M_george_Wbush.jpg",1.32199200368397,"29","Female","right",1,1,FALSE
7165,"E_F_sandra_bullock.jpg","E_M_tom_hankes.jpg","TRUE","pictures/stimuli/E","pictures/stimuli/E","F","M","5","59bd1b8b3a9ab60001119adb","04/26/2022, 14:06:12","E_F_sandra_bullock.jpg E_M_tom_hankes.jpg",0.539504524867914,"29","Female","right",1,1,FALSE
7098,"E_F_keira_knightley.jpg","E_M_michael_caine.jpg","TRUE","pictures/stimuli/E","pictures/stimuli/E","F","M","5","59bd1b8b3a9ab60001119adb","04/26/2022, 14:06:12","E_F_keira_knightley.jpg E_M_michael_caine.jpg",0.539504524867914,"29","Female","right",1,1,FALSE
11494,"E_F_angelina_jolie.jpg","P_F_nicola_sturgeon.jpg","FALSE","pictures/stimuli/E","pictures/stimuli/P","F","F","4","59bd1b8b3a9ab60001119adb","04/26/2022, 14:06:12","E_F_angelina_jolie.jpg P_F_nicola_sturgeon.jpg",-0.242982953948145,"29","Female","right",1,1,FALSE
5497,"P_F_hillary_clinton.jpg","P_M_george_Wbush.jpg","TRUE","pictures/stimuli/P","pictures/stimuli/P","F","M","5","59bd1b8b3a9ab60001119adb","04/26/2022, 14:06:12","P_F_hillary_clinton.jpg P_M_george_Wbush.jpg",0.539504524867914,"29","Female","right",1,1,FALSE
5961,"P_F_hillary_clinton.jpg","P_M_bill_clinton.jpg","TRUE","pictures/stimuli/P","pictures/stimuli/P","F","M","4","59bd1b8b3a9ab60001119adb","04/26/2022, 14:06:12","P_F_hillary_clinton.jpg P_M_bill_clinton.jpg",-0.242982953948145,"29","Female","right",1,1,FALSE
8312,"E_M_robert_de_niro.jpg","P_M_boris_johnson.jpg","FALSE","pictures/stimuli/E","pictures/stimuli/P","M","M","4","59bd1b8b3a9ab60001119adb","04/26/2022, 14:06:12","E_M_robert_de_niro.jpg P_M_boris_johnson.jpg",-0.242982953948145,"29","Female","right",1,1,FALSE
8197,"E_F_Judi_Dench.jpg","P_F_hillary_clinton.jpg","FALSE","pictures/stimuli/E","pictures/stimuli/P","F","F","4","59bd1b8b3a9ab60001119adb","04/26/2022, 14:06:12","E_F_Judi_Dench.jpg P_F_hillary_clinton.jpg",-0.242982953948145,"29","Female","right",1,1,FALSE
7775,"P_M_bill_clinton.jpg","P_M_boris_johnson.jpg","TRUE","pictures/stimuli/P","pictures/stimuli/P","M","M","3","59bd1b8b3a9ab60001119adb","04/26/2022, 14:06:12","P_M_bill_clinton.jpg P_M_boris_johnson.jpg",-1.0254704327642,"29","Female","right",1,1,FALSE
5296,"E_M_tom_hankes.jpg","P_M_boris_johnson.jpg","FALSE","pictures/stimuli/E","pictures/stimuli/P","M","M","5","59bd1b8b3a9ab60001119adb","04/26/2022, 14:06:12","E_M_tom_hankes.jpg P_M_boris_johnson.jpg",0.539504524867914,"29","Female","right",1,1,FALSE
5402,"E_F_jennifer_aniston.jpg","P_M_bill_clinton.jpg","FALSE","pictures/stimuli/E","pictures/stimuli/P","F","M","6","5b1a88970ada0a0001e0f483","04/26/2022, 13:50:52","E_F_jennifer_aniston.jpg P_M_bill_clinton.jpg",1.47999723321199,"29","Female","right",1,1,FALSE
4016,"E_M_michael_caine.jpg","E_M_robert_de_niro.jpg","TRUE","pictures/stimuli/E","pictures/stimuli/E","M","M","6","5b1a88970ada0a0001e0f483","04/26/2022, 13:50:52","E_M_michael_caine.jpg E_M_robert_de_niro.jpg",1.47999723321199,"29","Female","right",1,1,FALSE
5324,"E_F_keira_knightley.jpg","P_M_bill_clinton.jpg","FALSE","pictures/stimuli/E","pictures/stimuli/P","F","M","6","5b1a88970ada0a0001e0f483","04/26/2022, 13:50:52","E_F_keira_knightley.jpg P_M_bill_clinton.jpg",1.47999723321199,"29","Female","right",1,1,FALSE
3331,"E_M_Hugh_Grant.jpg","E_M_robert_de_niro.jpg","TRUE","pictures/stimuli/E","pictures/stimuli/E","M","M","6","5b1a88970ada0a0001e0f483","04/26/2022, 13:50:52","E_M_Hugh_Grant.jpg E_M_robert_de_niro.jpg",1.47999723321199,"29","Female","right",1,1,FALSE
5222,"E_F_angelina_jolie.jpg","E_F_keira_knightley.jpg","TRUE","pictures/stimuli/E","pictures/stimuli/E","F","F","4","5b1a88970ada0a0001e0f483","04/26/2022, 13:50:52","E_F_angelina_jolie.jpg E_F_keira_knightley.jpg",-0.0157446514171489,"29","Female","right",1,1,FALSE
3834,"E_F_sandra_bullock.jpg","P_M_Tony_Blair.jpg","FALSE","pictures/stimuli/E","pictures/stimuli/P","F","M","6","5b1a88970ada0a0001e0f483","04/26/2022, 13:50:52","E_F_sandra_bullock.jpg P_M_Tony_Blair.jpg",1.47999723321199,"29","Female","right",1,1,FALSE
3294,"E_F_angelina_jolie.jpg","P_M_george_Wbush.jpg","FALSE","pictures/stimuli/E","pictures/stimuli/P","F","M","6","5b1a88970ada0a0001e0f483","04/26/2022, 13:50:52","E_F_angelina_jolie.jpg P_M_george_Wbush.jpg",1.47999723321199,"29","Female","right",1,1,FALSE
