"RT","img_1","img_2","isSameProffesion","img1proffesion","img2proffesion","img1Gender","img2Gender","keyPressed","participant","time","normlised_keyPress","age","gender","handedness","isFamiliar_img1","isFamiliar_img2","vividness_img1","vividness_img2","reject_trial","pair"
3819,"E_F_Kate_Winslet.jpg","P_M_boris_johnson.jpg","FALSE","pictures/stimuli/E","pictures/stimuli/P","F","M","6","576728c8236f930001a69a71","11/02/2022, 16:06:58",0.63437698624179,"26","Female","right",1,1,5,5,FALSE,"E_F_Kate_Winslet.jpg P_M_boris_johnson.jpg"
5047,"E_M_michael_caine.jpg","P_M_boris_johnson.jpg","FALSE","pictures/stimuli/E","pictures/stimuli/P","M","M","4","576728c8236f930001a69a71","11/02/2022, 16:06:58",-0.920869818738082,"26","Female","right",1,1,5,5,FALSE,"E_M_michael_caine.jpg P_M_boris_johnson.jpg"
2671,"E_F_Kate_Winslet.jpg","E_M_michael_caine.jpg","TRUE","pictures/stimuli/E","pictures/stimuli/E","F","M","6","576728c8236f930001a69a71","11/02/2022, 16:06:58",0.63437698624179,"26","Female","right",1,1,5,5,FALSE,"E_F_Kate_Winslet.jpg E_M_michael_caine.jpg"
2062,"E_M_michael_caine.jpg","P_M_bill_clinton.jpg","FALSE","pictures/stimuli/E","pictures/stimuli/P","M","M","3","576728c8236f930001a69a71","11/02/2022, 16:06:58",-1.69849322122802,"26","Female","right",1,1,5,5,FALSE,"E_M_michael_caine.jpg P_M_bill_clinton.jpg"
2009,"E_F_angelina_jolie.jpg","P_M_george_Wbush.jpg","FALSE","pictures/stimuli/E","pictures/stimuli/P","F","M","6","576728c8236f930001a69a71","11/02/2022, 16:06:58",0.63437698624179,"26","Female","right",1,1,5,5,FALSE,"E_F_angelina_jolie.jpg P_M_george_Wbush.jpg"
2401,"P_M_george_Wbush.jpg","P_M_Tony_Blair.jpg","TRUE","pictures/stimuli/P","pictures/stimuli/P","M","M","4","576728c8236f930001a69a71","11/02/2022, 16:06:58",-0.920869818738082,"26","Female","right",1,1,5,5,FALSE,"P_M_george_Wbush.jpg P_M_Tony_Blair.jpg"
3886,"P_M_boris_johnson.jpg","P_M_donald_trump.jpg","TRUE","pictures/stimuli/P","pictures/stimuli/P","M","M","1","576728c8236f930001a69a71","11/02/2022, 16:06:58",-3.25374002620789,"26","Female","right",1,1,5,5,FALSE,"P_M_boris_johnson.jpg P_M_donald_trump.jpg"
2296,"E_F_Judi_Dench.jpg","P_M_donald_trump.jpg","FALSE","pictures/stimuli/E","pictures/stimuli/P","F","M","6","576728c8236f930001a69a71","11/02/2022, 16:06:58",0.63437698624179,"26","Female","right",1,1,5,5,FALSE,"E_F_Judi_Dench.jpg P_M_donald_trump.jpg"
2432,"E_F_Judi_Dench.jpg","P_F_hillary_clinton.jpg","FALSE","pictures/stimuli/E","pictures/stimuli/P","F","F","3","576728c8236f930001a69a71","11/02/2022, 16:06:58",-1.69849322122802,"26","Female","right",1,1,5,5,FALSE,"E_F_Judi_Dench.jpg P_F_hillary_clinton.jpg"
2569,"E_M_michael_caine.jpg","P_F_nicola_sturgeon.jpg","FALSE","pictures/stimuli/E","pictures/stimuli/P","M","F","5","576728c8236f930001a69a71","11/02/2022, 16:06:58",-0.143246416248146,"26","Female","right",1,1,5,5,FALSE,"E_M_michael_caine.jpg P_F_nicola_sturgeon.jpg"
2442,"E_F_Judi_Dench.jpg","E_F_sandra_bullock.jpg","TRUE","pictures/stimuli/E","pictures/stimuli/E","F","F","2","576728c8236f930001a69a71","11/02/2022, 16:06:58",-2.47611662371795,"26","Female","right",1,1,5,5,FALSE,"E_F_Judi_Dench.jpg E_F_sandra_bullock.jpg"
2850,"P_F_nicola_sturgeon.jpg","P_M_bill_clinton.jpg","TRUE","pictures/stimuli/P","pictures/stimuli/P","F","M","5","576728c8236f930001a69a71","11/02/2022, 16:06:58",-0.143246416248146,"26","Female","right",1,1,5,5,FALSE,"P_F_nicola_sturgeon.jpg P_M_bill_clinton.jpg"
1915,"E_F_sandra_bullock.jpg","P_M_bill_clinton.jpg","FALSE","pictures/stimuli/E","pictures/stimuli/P","F","M","6","576728c8236f930001a69a71","11/02/2022, 16:06:58",0.63437698624179,"26","Female","right",1,1,5,5,FALSE,"E_F_sandra_bullock.jpg P_M_bill_clinton.jpg"
1975,"E_F_sandra_bullock.jpg","E_M_robert_de_niro.jpg","TRUE","pictures/stimuli/E","pictures/stimuli/E","F","M","6","576728c8236f930001a69a71","11/02/2022, 16:06:58",0.63437698624179,"26","Female","right",1,1,5,5,FALSE,"E_F_sandra_bullock.jpg E_M_robert_de_niro.jpg"
2671,"E_F_Kate_Winslet.jpg","P_M_david_cameron.jpg","FALSE","pictures/stimuli/E","pictures/stimuli/P","F","M","6","576728c8236f930001a69a71","11/02/2022, 16:06:58",0.63437698624179,"26","Female","right",1,1,5,5,FALSE,"E_F_Kate_Winslet.jpg P_M_david_cameron.jpg"
1936,"E_F_jennifer_aniston.jpg","P_M_donald_trump.jpg","FALSE","pictures/stimuli/E","pictures/stimuli/P","F","M","6","576728c8236f930001a69a71","11/02/2022, 16:06:58",0.63437698624179,"26","Female","right",1,1,5,5,FALSE,"E_F_jennifer_aniston.jpg P_M_donald_trump.jpg"
2553,"P_F_hillary_clinton.jpg","P_F_nicola_sturgeon.jpg","TRUE","pictures/stimuli/P","pictures/stimuli/P","F","F","3","576728c8236f930001a69a71","11/02/2022, 16:06:58",-1.69849322122802,"26","Female","right",1,1,5,5,FALSE,"P_F_hillary_clinton.jpg P_F_nicola_sturgeon.jpg"
2163,"E_M_Hugh_Grant.jpg","P_F_hillary_clinton.jpg","FALSE","pictures/stimuli/E","pictures/stimuli/P","M","F","6","576728c8236f930001a69a71","11/02/2022, 16:06:58",0.63437698624179,"26","Female","right",1,1,5,5,FALSE,"E_M_Hugh_Grant.jpg P_F_hillary_clinton.jpg"
3259,"P_F_tehresy_may.jpg","P_M_bill_clinton.jpg","TRUE","pictures/stimuli/P","pictures/stimuli/P","F","M","6","576728c8236f930001a69a71","11/02/2022, 16:06:58",0.63437698624179,"26","Female","right",1,1,5,5,FALSE,"P_F_tehresy_may.jpg P_M_bill_clinton.jpg"
1877,"P_F_nicola_sturgeon.jpg","P_M_donald_trump.jpg","TRUE","pictures/stimuli/P","pictures/stimuli/P","F","M","6","576728c8236f930001a69a71","11/02/2022, 16:06:58",0.63437698624179,"26","Female","right",1,1,5,5,FALSE,"P_F_nicola_sturgeon.jpg P_M_donald_trump.jpg"
3330,"E_F_Judi_Dench.jpg","E_F_keira_knightley.jpg","TRUE","pictures/stimuli/E","pictures/stimuli/E","F","F","6","576728c8236f930001a69a71","11/02/2022, 16:06:58",0.63437698624179,"26","Female","right",1,1,5,5,FALSE,"E_F_Judi_Dench.jpg E_F_keira_knightley.jpg"
2133,"P_M_boris_johnson.jpg","P_M_Tony_Blair.jpg","TRUE","pictures/stimuli/P","pictures/stimuli/P","M","M","3","576728c8236f930001a69a71","11/02/2022, 16:06:58",-1.69849322122802,"26","Female","right",1,1,5,5,FALSE,"P_M_boris_johnson.jpg P_M_Tony_Blair.jpg"
3466,"E_F_angelina_jolie.jpg","P_F_tehresy_may.jpg","FALSE","pictures/stimuli/E","pictures/stimuli/P","F","F","5","576728c8236f930001a69a71","11/02/2022, 16:06:58",-0.143246416248146,"26","Female","right",1,1,5,5,FALSE,"E_F_angelina_jolie.jpg P_F_tehresy_may.jpg"
2850,"E_F_angelina_jolie.jpg","E_M_tom_hankes.jpg","TRUE","pictures/stimuli/E","pictures/stimuli/E","F","M","6","576728c8236f930001a69a71","11/02/2022, 16:06:58",0.63437698624179,"26","Female","right",1,1,5,5,FALSE,"E_F_angelina_jolie.jpg E_M_tom_hankes.jpg"
3018,"E_F_Kate_Winslet.jpg","E_F_keira_knightley.jpg","TRUE","pictures/stimuli/E","pictures/stimuli/E","F","F","2","576728c8236f930001a69a71","11/02/2022, 16:06:58",-2.47611662371795,"26","Female","right",1,1,5,5,FALSE,"E_F_Kate_Winslet.jpg E_F_keira_knightley.jpg"
3002,"E_M_robert_de_niro.jpg","P_M_bill_clinton.jpg","FALSE","pictures/stimuli/E","pictures/stimuli/P","M","M","5","576728c8236f930001a69a71","11/02/2022, 16:06:58",-0.143246416248146,"26","Female","right",1,1,5,5,FALSE,"E_M_robert_de_niro.jpg P_M_bill_clinton.jpg"
3702,"E_F_Judi_Dench.jpg","P_M_Tony_Blair.jpg","FALSE","pictures/stimuli/E","pictures/stimuli/P","F","M","5","576728c8236f930001a69a71","11/02/2022, 16:06:58",-0.143246416248146,"26","Female","right",1,1,5,5,FALSE,"E_F_Judi_Dench.jpg P_M_Tony_Blair.jpg"
2966,"E_F_angelina_jolie.jpg","E_M_michael_caine.jpg","TRUE","pictures/stimuli/E","pictures/stimuli/E","F","M","6","576728c8236f930001a69a71","11/02/2022, 16:06:58",0.63437698624179,"26","Female","right",1,1,5,5,FALSE,"E_F_angelina_jolie.jpg E_M_michael_caine.jpg"
2965,"E_M_robert_de_niro.jpg","E_M_tom_hankes.jpg","TRUE","pictures/stimuli/E","pictures/stimuli/E","M","M","4","576728c8236f930001a69a71","11/02/2022, 16:06:58",-0.920869818738082,"26","Female","right",1,1,5,5,FALSE,"E_M_robert_de_niro.jpg E_M_tom_hankes.jpg"
2311,"E_F_jennifer_aniston.jpg","P_F_hillary_clinton.jpg","FALSE","pictures/stimuli/E","pictures/stimuli/P","F","F","6","576728c8236f930001a69a71","11/02/2022, 16:06:58",0.63437698624179,"26","Female","right",1,1,5,5,FALSE,"E_F_jennifer_aniston.jpg P_F_hillary_clinton.jpg"
1376,"E_F_sandra_bullock.jpg","E_M_Hugh_Grant.jpg","TRUE","pictures/stimuli/E","pictures/stimuli/E","F","M","6","576728c8236f930001a69a71","11/02/2022, 16:06:58",0.63437698624179,"26","Female","right",1,1,5,5,FALSE,"E_F_sandra_bullock.jpg E_M_Hugh_Grant.jpg"
3966,"E_F_sandra_bullock.jpg","P_M_boris_johnson.jpg","FALSE","pictures/stimuli/E","pictures/stimuli/P","F","M","6","576728c8236f930001a69a71","11/02/2022, 16:06:58",0.63437698624179,"26","Female","right",1,1,5,5,FALSE,"E_F_sandra_bullock.jpg P_M_boris_johnson.jpg"
2982,"E_F_keira_knightley.jpg","E_M_nicolas_cage.jpg","TRUE","pictures/stimuli/E","pictures/stimuli/E","F","M","6","576728c8236f930001a69a71","11/02/2022, 16:06:58",0.63437698624179,"26","Female","right",1,1,5,5,FALSE,"E_F_keira_knightley.jpg E_M_nicolas_cage.jpg"
1401,"E_F_keira_knightley.jpg","E_M_tom_hankes.jpg","TRUE","pictures/stimuli/E","pictures/stimuli/E","F","M","6","576728c8236f930001a69a71","11/02/2022, 16:06:58",0.63437698624179,"26","Female","right",1,1,5,5,FALSE,"E_F_keira_knightley.jpg E_M_tom_hankes.jpg"
2291,"P_M_boris_johnson.jpg","P_M_george_Wbush.jpg","TRUE","pictures/stimuli/P","pictures/stimuli/P","M","M","4","576728c8236f930001a69a71","11/02/2022, 16:06:58",-0.920869818738082,"26","Female","right",1,1,5,5,FALSE,"P_M_boris_johnson.jpg P_M_george_Wbush.jpg"
4654,"E_F_jennifer_aniston.jpg","E_F_Judi_Dench.jpg","TRUE","pictures/stimuli/E","pictures/stimuli/E","F","F","4","576728c8236f930001a69a71","11/02/2022, 16:06:58",-0.920869818738082,"26","Female","right",1,1,5,5,FALSE,"E_F_jennifer_aniston.jpg E_F_Judi_Dench.jpg"
2079,"E_F_Judi_Dench.jpg","E_M_Hugh_Grant.jpg","TRUE","pictures/stimuli/E","pictures/stimuli/E","F","M","6","576728c8236f930001a69a71","11/02/2022, 16:06:58",0.63437698624179,"26","Female","right",1,1,5,5,FALSE,"E_F_Judi_Dench.jpg E_M_Hugh_Grant.jpg"
3239,"E_M_Hugh_Grant.jpg","E_M_robert_de_niro.jpg","TRUE","pictures/stimuli/E","pictures/stimuli/E","M","M","3","576728c8236f930001a69a71","11/02/2022, 16:06:58",-1.69849322122802,"26","Female","right",1,1,5,5,FALSE,"E_M_Hugh_Grant.jpg E_M_robert_de_niro.jpg"
2429,"E_F_keira_knightley.jpg","P_M_Tony_Blair.jpg","FALSE","pictures/stimuli/E","pictures/stimuli/P","F","M","6","576728c8236f930001a69a71","11/02/2022, 16:06:58",0.63437698624179,"26","Female","right",1,1,5,5,FALSE,"E_F_keira_knightley.jpg P_M_Tony_Blair.jpg"
4010,"P_M_boris_johnson.jpg","P_M_david_cameron.jpg","TRUE","pictures/stimuli/P","pictures/stimuli/P","M","M","4","576728c8236f930001a69a71","11/02/2022, 16:06:58",-0.920869818738082,"26","Female","right",1,1,5,5,FALSE,"P_M_boris_johnson.jpg P_M_david_cameron.jpg"
1756,"E_F_Kate_Winslet.jpg","P_F_hillary_clinton.jpg","FALSE","pictures/stimuli/E","pictures/stimuli/P","F","F","6","576728c8236f930001a69a71","11/02/2022, 16:06:58",0.63437698624179,"26","Female","right",1,1,5,5,FALSE,"E_F_Kate_Winslet.jpg P_F_hillary_clinton.jpg"
3195,"P_M_david_cameron.jpg","P_M_donald_trump.jpg","TRUE","pictures/stimuli/P","pictures/stimuli/P","M","M","5","576728c8236f930001a69a71","11/02/2022, 16:06:58",-0.143246416248146,"26","Female","right",1,1,5,5,FALSE,"P_M_david_cameron.jpg P_M_donald_trump.jpg"
1789,"P_F_hillary_clinton.jpg","P_M_david_cameron.jpg","TRUE","pictures/stimuli/P","pictures/stimuli/P","F","M","6","576728c8236f930001a69a71","11/02/2022, 16:06:58",0.63437698624179,"26","Female","right",1,1,5,5,FALSE,"P_F_hillary_clinton.jpg P_M_david_cameron.jpg"
1839,"E_F_Kate_Winslet.jpg","E_M_nicolas_cage.jpg","TRUE","pictures/stimuli/E","pictures/stimuli/E","F","M","6","576728c8236f930001a69a71","11/02/2022, 16:06:58",0.63437698624179,"26","Female","right",1,1,5,5,FALSE,"E_F_Kate_Winslet.jpg E_M_nicolas_cage.jpg"
2096,"E_F_Judi_Dench.jpg","E_M_tom_hankes.jpg","TRUE","pictures/stimuli/E","pictures/stimuli/E","F","M","6","576728c8236f930001a69a71","11/02/2022, 16:06:58",0.63437698624179,"26","Female","right",1,1,5,5,FALSE,"E_F_Judi_Dench.jpg E_M_tom_hankes.jpg"
3790,"E_M_tom_hankes.jpg","P_M_Tony_Blair.jpg","FALSE","pictures/stimuli/E","pictures/stimuli/P","M","M","5","576728c8236f930001a69a71","11/02/2022, 16:06:58",-0.143246416248146,"26","Female","right",1,1,5,5,FALSE,"E_M_tom_hankes.jpg P_M_Tony_Blair.jpg"
1910,"E_M_robert_de_niro.jpg","P_M_david_cameron.jpg","FALSE","pictures/stimuli/E","pictures/stimuli/P","M","M","6","576728c8236f930001a69a71","11/02/2022, 16:06:58",0.63437698624179,"26","Female","right",1,1,5,5,FALSE,"E_M_robert_de_niro.jpg P_M_david_cameron.jpg"
1929,"E_M_robert_de_niro.jpg","P_M_donald_trump.jpg","FALSE","pictures/stimuli/E","pictures/stimuli/P","M","M","6","576728c8236f930001a69a71","11/02/2022, 16:06:58",0.63437698624179,"26","Female","right",1,1,5,5,FALSE,"E_M_robert_de_niro.jpg P_M_donald_trump.jpg"
1621,"E_F_jennifer_aniston.jpg","E_M_nicolas_cage.jpg","TRUE","pictures/stimuli/E","pictures/stimuli/E","F","M","6","576728c8236f930001a69a71","11/02/2022, 16:06:58",0.63437698624179,"26","Female","right",1,1,5,5,FALSE,"E_F_jennifer_aniston.jpg E_M_nicolas_cage.jpg"
5001,"E_F_jennifer_aniston.jpg","E_F_sandra_bullock.jpg","TRUE","pictures/stimuli/E","pictures/stimuli/E","F","F","6","576728c8236f930001a69a71","11/02/2022, 16:06:58",0.63437698624179,"26","Female","right",1,1,5,5,FALSE,"E_F_jennifer_aniston.jpg E_F_sandra_bullock.jpg"
2052,"E_F_jennifer_aniston.jpg","E_F_Kate_Winslet.jpg","TRUE","pictures/stimuli/E","pictures/stimuli/E","F","F","4","576728c8236f930001a69a71","11/02/2022, 16:06:58",-0.920869818738082,"26","Female","right",1,1,5,5,FALSE,"E_F_jennifer_aniston.jpg E_F_Kate_Winslet.jpg"
5240,"E_M_tom_hankes.jpg","P_M_bill_clinton.jpg","FALSE","pictures/stimuli/E","pictures/stimuli/P","M","M","6","576728c8236f930001a69a71","11/02/2022, 16:06:58",0.63437698624179,"26","Female","right",1,1,5,5,FALSE,"E_M_tom_hankes.jpg P_M_bill_clinton.jpg"
1542,"E_F_keira_knightley.jpg","P_M_george_Wbush.jpg","FALSE","pictures/stimuli/E","pictures/stimuli/P","F","M","6","576728c8236f930001a69a71","11/02/2022, 16:06:58",0.63437698624179,"26","Female","right",1,1,5,5,FALSE,"E_F_keira_knightley.jpg P_M_george_Wbush.jpg"
1750,"P_F_tehresy_may.jpg","P_M_boris_johnson.jpg","TRUE","pictures/stimuli/P","pictures/stimuli/P","F","M","6","576728c8236f930001a69a71","11/02/2022, 16:06:58",0.63437698624179,"26","Female","right",1,1,5,5,FALSE,"P_F_tehresy_may.jpg P_M_boris_johnson.jpg"
7741,"E_M_robert_de_niro.jpg","P_M_Tony_Blair.jpg","FALSE","pictures/stimuli/E","pictures/stimuli/P","M","M","6","576728c8236f930001a69a71","11/02/2022, 16:06:58",0.63437698624179,"26","Female","right",1,1,5,5,FALSE,"E_M_robert_de_niro.jpg P_M_Tony_Blair.jpg"
2341,"E_M_robert_de_niro.jpg","P_F_hillary_clinton.jpg","FALSE","pictures/stimuli/E","pictures/stimuli/P","M","F","6","576728c8236f930001a69a71","11/02/2022, 16:06:58",0.63437698624179,"26","Female","right",1,1,5,5,FALSE,"E_M_robert_de_niro.jpg P_F_hillary_clinton.jpg"
2885,"P_F_tehresy_may.jpg","P_M_donald_trump.jpg","TRUE","pictures/stimuli/P","pictures/stimuli/P","F","M","6","576728c8236f930001a69a71","11/02/2022, 16:06:58",0.63437698624179,"26","Female","right",1,1,5,5,FALSE,"P_F_tehresy_may.jpg P_M_donald_trump.jpg"
3587,"P_M_bill_clinton.jpg","P_M_boris_johnson.jpg","TRUE","pictures/stimuli/P","pictures/stimuli/P","M","M","6","576728c8236f930001a69a71","11/02/2022, 16:06:58",0.63437698624179,"26","Female","right",1,1,5,5,FALSE,"P_M_bill_clinton.jpg P_M_boris_johnson.jpg"
1589,"P_F_hillary_clinton.jpg","P_M_donald_trump.jpg","TRUE","pictures/stimuli/P","pictures/stimuli/P","F","M","6","576728c8236f930001a69a71","11/02/2022, 16:06:58",0.63437698624179,"26","Female","right",1,1,5,5,FALSE,"P_F_hillary_clinton.jpg P_M_donald_trump.jpg"
1473,"E_F_jennifer_aniston.jpg","P_M_boris_johnson.jpg","FALSE","pictures/stimuli/E","pictures/stimuli/P","F","M","6","576728c8236f930001a69a71","11/02/2022, 16:06:58",0.63437698624179,"26","Female","right",1,1,5,5,FALSE,"E_F_jennifer_aniston.jpg P_M_boris_johnson.jpg"
1363,"E_M_Hugh_Grant.jpg","P_F_nicola_sturgeon.jpg","FALSE","pictures/stimuli/E","pictures/stimuli/P","M","F","6","576728c8236f930001a69a71","11/02/2022, 16:06:58",0.63437698624179,"26","Female","right",1,1,5,5,FALSE,"E_M_Hugh_Grant.jpg P_F_nicola_sturgeon.jpg"
1384,"E_F_angelina_jolie.jpg","P_M_bill_clinton.jpg","FALSE","pictures/stimuli/E","pictures/stimuli/P","F","M","6","576728c8236f930001a69a71","11/02/2022, 16:06:58",0.63437698624179,"26","Female","right",1,1,5,5,FALSE,"E_F_angelina_jolie.jpg P_M_bill_clinton.jpg"
1459,"E_F_angelina_jolie.jpg","P_M_Tony_Blair.jpg","FALSE","pictures/stimuli/E","pictures/stimuli/P","F","M","6","576728c8236f930001a69a71","11/02/2022, 16:06:58",0.63437698624179,"26","Female","right",1,1,5,5,FALSE,"E_F_angelina_jolie.jpg P_M_Tony_Blair.jpg"
2276,"E_F_sandra_bullock.jpg","P_F_nicola_sturgeon.jpg","FALSE","pictures/stimuli/E","pictures/stimuli/P","F","F","5","576728c8236f930001a69a71","11/02/2022, 16:06:58",-0.143246416248146,"26","Female","right",1,1,5,5,FALSE,"E_F_sandra_bullock.jpg P_F_nicola_sturgeon.jpg"
2515,"E_M_nicolas_cage.jpg","P_M_bill_clinton.jpg","FALSE","pictures/stimuli/E","pictures/stimuli/P","M","M","4","576728c8236f930001a69a71","11/02/2022, 16:06:58",-0.920869818738082,"26","Female","right",1,1,5,5,FALSE,"E_M_nicolas_cage.jpg P_M_bill_clinton.jpg"
2014,"E_F_angelina_jolie.jpg","E_M_nicolas_cage.jpg","TRUE","pictures/stimuli/E","pictures/stimuli/E","F","M","6","576728c8236f930001a69a71","11/02/2022, 16:06:58",0.63437698624179,"26","Female","right",1,1,5,5,FALSE,"E_F_angelina_jolie.jpg E_M_nicolas_cage.jpg"
5026,"P_M_bill_clinton.jpg","P_M_Tony_Blair.jpg","TRUE","pictures/stimuli/P","pictures/stimuli/P","M","M","5","576728c8236f930001a69a71","11/02/2022, 16:06:58",-0.143246416248146,"26","Female","right",1,1,5,5,FALSE,"P_M_bill_clinton.jpg P_M_Tony_Blair.jpg"
2501,"P_F_tehresy_may.jpg","P_M_george_Wbush.jpg","TRUE","pictures/stimuli/P","pictures/stimuli/P","F","M","6","576728c8236f930001a69a71","11/02/2022, 16:06:58",0.63437698624179,"26","Female","right",1,1,5,5,FALSE,"P_F_tehresy_may.jpg P_M_george_Wbush.jpg"
2156,"E_M_tom_hankes.jpg","P_F_hillary_clinton.jpg","FALSE","pictures/stimuli/E","pictures/stimuli/P","M","F","6","576728c8236f930001a69a71","11/02/2022, 16:06:58",0.63437698624179,"26","Female","right",1,1,5,5,FALSE,"E_M_tom_hankes.jpg P_F_hillary_clinton.jpg"
4193,"E_M_Hugh_Grant.jpg","P_F_tehresy_may.jpg","FALSE","pictures/stimuli/E","pictures/stimuli/P","M","F","6","576728c8236f930001a69a71","11/02/2022, 16:06:58",0.63437698624179,"26","Female","right",1,1,5,5,FALSE,"E_M_Hugh_Grant.jpg P_F_tehresy_may.jpg"
2642,"P_F_nicola_sturgeon.jpg","P_F_tehresy_may.jpg","TRUE","pictures/stimuli/P","pictures/stimuli/P","F","F","4","576728c8236f930001a69a71","11/02/2022, 16:06:58",-0.920869818738082,"26","Female","right",1,1,5,5,FALSE,"P_F_nicola_sturgeon.jpg P_F_tehresy_may.jpg"
2961,"P_F_hillary_clinton.jpg","P_M_bill_clinton.jpg","TRUE","pictures/stimuli/P","pictures/stimuli/P","F","M","6","576728c8236f930001a69a71","11/02/2022, 16:06:58",0.63437698624179,"26","Female","right",1,1,5,5,FALSE,"P_F_hillary_clinton.jpg P_M_bill_clinton.jpg"
2107,"E_F_Kate_Winslet.jpg","P_F_nicola_sturgeon.jpg","FALSE","pictures/stimuli/E","pictures/stimuli/P","F","F","6","576728c8236f930001a69a71","11/02/2022, 16:06:58",0.63437698624179,"26","Female","right",1,1,5,5,FALSE,"E_F_Kate_Winslet.jpg P_F_nicola_sturgeon.jpg"
6062,"E_M_michael_caine.jpg","P_F_hillary_clinton.jpg","FALSE","pictures/stimuli/E","pictures/stimuli/P","M","F","6","576728c8236f930001a69a71","11/02/2022, 16:06:58",0.63437698624179,"26","Female","right",1,1,5,5,FALSE,"E_M_michael_caine.jpg P_F_hillary_clinton.jpg"
1336,"E_F_keira_knightley.jpg","P_M_david_cameron.jpg","FALSE","pictures/stimuli/E","pictures/stimuli/P","F","M","6","576728c8236f930001a69a71","11/02/2022, 16:06:58",0.63437698624179,"26","Female","right",1,1,5,5,FALSE,"E_F_keira_knightley.jpg P_M_david_cameron.jpg"
1116,"P_F_tehresy_may.jpg","P_M_Tony_Blair.jpg","TRUE","pictures/stimuli/P","pictures/stimuli/P","F","M","6","576728c8236f930001a69a71","11/02/2022, 16:06:58",0.63437698624179,"26","Female","right",1,1,5,5,FALSE,"P_F_tehresy_may.jpg P_M_Tony_Blair.jpg"
1288,"E_F_Kate_Winslet.jpg","E_M_Hugh_Grant.jpg","TRUE","pictures/stimuli/E","pictures/stimuli/E","F","M","6","576728c8236f930001a69a71","11/02/2022, 16:06:58",0.63437698624179,"26","Female","right",1,1,5,5,FALSE,"E_F_Kate_Winslet.jpg E_M_Hugh_Grant.jpg"
2649,"E_F_sandra_bullock.jpg","E_M_tom_hankes.jpg","TRUE","pictures/stimuli/E","pictures/stimuli/E","F","M","6","576728c8236f930001a69a71","11/02/2022, 16:06:58",0.63437698624179,"26","Female","right",1,1,5,5,FALSE,"E_F_sandra_bullock.jpg E_M_tom_hankes.jpg"
2280,"P_M_david_cameron.jpg","P_M_Tony_Blair.jpg","TRUE","pictures/stimuli/P","pictures/stimuli/P","M","M","5","576728c8236f930001a69a71","11/02/2022, 16:06:58",-0.143246416248146,"26","Female","right",1,1,5,5,FALSE,"P_M_david_cameron.jpg P_M_Tony_Blair.jpg"
2292,"E_F_Judi_Dench.jpg","E_M_nicolas_cage.jpg","TRUE","pictures/stimuli/E","pictures/stimuli/E","F","M","6","576728c8236f930001a69a71","11/02/2022, 16:06:58",0.63437698624179,"26","Female","right",1,1,5,5,FALSE,"E_F_Judi_Dench.jpg E_M_nicolas_cage.jpg"
3058,"E_M_nicolas_cage.jpg","P_M_george_Wbush.jpg","FALSE","pictures/stimuli/E","pictures/stimuli/P","M","M","4","576728c8236f930001a69a71","11/02/2022, 16:06:58",-0.920869818738082,"26","Female","right",1,1,5,5,FALSE,"E_M_nicolas_cage.jpg P_M_george_Wbush.jpg"
1787,"E_F_Kate_Winslet.jpg","E_M_tom_hankes.jpg","TRUE","pictures/stimuli/E","pictures/stimuli/E","F","M","6","576728c8236f930001a69a71","11/02/2022, 16:06:58",0.63437698624179,"26","Female","right",1,1,5,5,FALSE,"E_F_Kate_Winslet.jpg E_M_tom_hankes.jpg"
2429,"E_F_Judi_Dench.jpg","E_M_robert_de_niro.jpg","TRUE","pictures/stimuli/E","pictures/stimuli/E","F","M","6","576728c8236f930001a69a71","11/02/2022, 16:06:58",0.63437698624179,"26","Female","right",1,1,5,5,FALSE,"E_F_Judi_Dench.jpg E_M_robert_de_niro.jpg"
2358,"P_F_nicola_sturgeon.jpg","P_M_george_Wbush.jpg","TRUE","pictures/stimuli/P","pictures/stimuli/P","F","M","6","576728c8236f930001a69a71","11/02/2022, 16:06:58",0.63437698624179,"26","Female","right",1,1,5,5,FALSE,"P_F_nicola_sturgeon.jpg P_M_george_Wbush.jpg"
3550,"E_F_Kate_Winslet.jpg","E_F_sandra_bullock.jpg","TRUE","pictures/stimuli/E","pictures/stimuli/E","F","F","5","576728c8236f930001a69a71","11/02/2022, 16:06:58",-0.143246416248146,"26","Female","right",1,1,5,5,FALSE,"E_F_Kate_Winslet.jpg E_F_sandra_bullock.jpg"
1707,"E_F_jennifer_aniston.jpg","P_M_david_cameron.jpg","FALSE","pictures/stimuli/E","pictures/stimuli/P","F","M","6","576728c8236f930001a69a71","11/02/2022, 16:06:58",0.63437698624179,"26","Female","right",1,1,5,5,FALSE,"E_F_jennifer_aniston.jpg P_M_david_cameron.jpg"
2523,"E_M_tom_hankes.jpg","P_F_nicola_sturgeon.jpg","FALSE","pictures/stimuli/E","pictures/stimuli/P","M","F","6","576728c8236f930001a69a71","11/02/2022, 16:06:58",0.63437698624179,"26","Female","right",1,1,5,5,FALSE,"E_M_tom_hankes.jpg P_F_nicola_sturgeon.jpg"
5598,"E_F_angelina_jolie.jpg","P_F_nicola_sturgeon.jpg","FALSE","pictures/stimuli/E","pictures/stimuli/P","F","F","4","576728c8236f930001a69a71","11/02/2022, 16:06:58",-0.920869818738082,"26","Female","right",1,1,5,5,FALSE,"E_F_angelina_jolie.jpg P_F_nicola_sturgeon.jpg"
2416,"P_M_donald_trump.jpg","P_M_Tony_Blair.jpg","TRUE","pictures/stimuli/P","pictures/stimuli/P","M","M","5","576728c8236f930001a69a71","11/02/2022, 16:06:58",-0.143246416248146,"26","Female","right",1,1,5,5,FALSE,"P_M_donald_trump.jpg P_M_Tony_Blair.jpg"
2233,"E_F_keira_knightley.jpg","E_M_robert_de_niro.jpg","TRUE","pictures/stimuli/E","pictures/stimuli/E","F","M","6","576728c8236f930001a69a71","11/02/2022, 16:06:58",0.63437698624179,"26","Female","right",1,1,5,5,FALSE,"E_F_keira_knightley.jpg E_M_robert_de_niro.jpg"
2722,"E_M_nicolas_cage.jpg","P_F_hillary_clinton.jpg","FALSE","pictures/stimuli/E","pictures/stimuli/P","M","F","6","576728c8236f930001a69a71","11/02/2022, 16:06:58",0.63437698624179,"26","Female","right",1,1,5,5,FALSE,"E_M_nicolas_cage.jpg P_F_hillary_clinton.jpg"
2393,"E_F_sandra_bullock.jpg","P_F_hillary_clinton.jpg","FALSE","pictures/stimuli/E","pictures/stimuli/P","F","F","5","576728c8236f930001a69a71","11/02/2022, 16:06:58",-0.143246416248146,"26","Female","right",1,1,5,5,FALSE,"E_F_sandra_bullock.jpg P_F_hillary_clinton.jpg"
2630,"E_M_michael_caine.jpg","E_M_tom_hankes.jpg","TRUE","pictures/stimuli/E","pictures/stimuli/E","M","M","6","576728c8236f930001a69a71","11/02/2022, 16:06:58",0.63437698624179,"26","Female","right",1,1,5,5,FALSE,"E_M_michael_caine.jpg E_M_tom_hankes.jpg"
2846,"P_M_donald_trump.jpg","P_M_george_Wbush.jpg","TRUE","pictures/stimuli/P","pictures/stimuli/P","M","M","4","576728c8236f930001a69a71","11/02/2022, 16:06:58",-0.920869818738082,"26","Female","right",1,1,5,5,FALSE,"P_M_donald_trump.jpg P_M_george_Wbush.jpg"
2656,"E_M_tom_hankes.jpg","P_M_donald_trump.jpg","FALSE","pictures/stimuli/E","pictures/stimuli/P","M","M","6","576728c8236f930001a69a71","11/02/2022, 16:06:58",0.63437698624179,"26","Female","right",1,1,5,5,FALSE,"E_M_tom_hankes.jpg P_M_donald_trump.jpg"
26229,"P_F_nicola_sturgeon.jpg","P_M_david_cameron.jpg","TRUE","pictures/stimuli/P","pictures/stimuli/P","F","M","6","576728c8236f930001a69a71","11/02/2022, 16:06:58",0.63437698624179,"26","Female","right",1,1,5,5,FALSE,"P_F_nicola_sturgeon.jpg P_M_david_cameron.jpg"
3604,"E_M_michael_caine.jpg","P_M_donald_trump.jpg","FALSE","pictures/stimuli/E","pictures/stimuli/P","M","M","4","576728c8236f930001a69a71","11/02/2022, 16:06:58",-0.920869818738082,"26","Female","right",1,1,5,5,FALSE,"E_M_michael_caine.jpg P_M_donald_trump.jpg"
1878,"E_F_angelina_jolie.jpg","E_F_Kate_Winslet.jpg","TRUE","pictures/stimuli/E","pictures/stimuli/E","F","F","3","576728c8236f930001a69a71","11/02/2022, 16:06:58",-1.69849322122802,"26","Female","right",1,1,5,5,FALSE,"E_F_angelina_jolie.jpg E_F_Kate_Winslet.jpg"
1968,"E_F_jennifer_aniston.jpg","P_F_nicola_sturgeon.jpg","FALSE","pictures/stimuli/E","pictures/stimuli/P","F","F","5","576728c8236f930001a69a71","11/02/2022, 16:06:58",-0.143246416248146,"26","Female","right",1,1,5,5,FALSE,"E_F_jennifer_aniston.jpg P_F_nicola_sturgeon.jpg"
1394,"E_F_jennifer_aniston.jpg","P_M_Tony_Blair.jpg","FALSE","pictures/stimuli/E","pictures/stimuli/P","F","M","6","576728c8236f930001a69a71","11/02/2022, 16:06:58",0.63437698624179,"26","Female","right",1,1,5,5,FALSE,"E_F_jennifer_aniston.jpg P_M_Tony_Blair.jpg"
3297,"E_F_sandra_bullock.jpg","P_M_Tony_Blair.jpg","FALSE","pictures/stimuli/E","pictures/stimuli/P","F","M","6","576728c8236f930001a69a71","11/02/2022, 16:06:58",0.63437698624179,"26","Female","right",1,1,5,5,FALSE,"E_F_sandra_bullock.jpg P_M_Tony_Blair.jpg"
4429,"E_M_Hugh_Grant.jpg","P_M_george_Wbush.jpg","FALSE","pictures/stimuli/E","pictures/stimuli/P","M","M","6","576728c8236f930001a69a71","11/02/2022, 16:06:58",0.63437698624179,"26","Female","right",1,1,5,5,FALSE,"E_M_Hugh_Grant.jpg P_M_george_Wbush.jpg"
2158,"E_F_Judi_Dench.jpg","P_M_david_cameron.jpg","FALSE","pictures/stimuli/E","pictures/stimuli/P","F","M","6","576728c8236f930001a69a71","11/02/2022, 16:06:58",0.63437698624179,"26","Female","right",1,1,5,5,FALSE,"E_F_Judi_Dench.jpg P_M_david_cameron.jpg"
1313,"E_F_Judi_Dench.jpg","E_M_michael_caine.jpg","TRUE","pictures/stimuli/E","pictures/stimuli/E","F","M","6","576728c8236f930001a69a71","11/02/2022, 16:06:58",0.63437698624179,"26","Female","right",1,1,5,5,FALSE,"E_F_Judi_Dench.jpg E_M_michael_caine.jpg"
2649,"E_M_Hugh_Grant.jpg","E_M_nicolas_cage.jpg","TRUE","pictures/stimuli/E","pictures/stimuli/E","M","M","6","576728c8236f930001a69a71","11/02/2022, 16:06:58",0.63437698624179,"26","Female","right",1,1,5,5,FALSE,"E_M_Hugh_Grant.jpg E_M_nicolas_cage.jpg"
2930,"E_F_keira_knightley.jpg","P_M_donald_trump.jpg","FALSE","pictures/stimuli/E","pictures/stimuli/P","F","M","6","576728c8236f930001a69a71","11/02/2022, 16:06:58",0.63437698624179,"26","Female","right",1,1,5,5,FALSE,"E_F_keira_knightley.jpg P_M_donald_trump.jpg"
1803,"E_M_tom_hankes.jpg","P_M_george_Wbush.jpg","FALSE","pictures/stimuli/E","pictures/stimuli/P","M","M","6","576728c8236f930001a69a71","11/02/2022, 16:06:58",0.63437698624179,"26","Female","right",1,1,5,5,FALSE,"E_M_tom_hankes.jpg P_M_george_Wbush.jpg"
2827,"E_F_keira_knightley.jpg","E_F_sandra_bullock.jpg","TRUE","pictures/stimuli/E","pictures/stimuli/E","F","F","5","576728c8236f930001a69a71","11/02/2022, 16:06:58",-0.143246416248146,"26","Female","right",1,1,5,5,FALSE,"E_F_keira_knightley.jpg E_F_sandra_bullock.jpg"
2069,"E_M_michael_caine.jpg","P_M_david_cameron.jpg","FALSE","pictures/stimuli/E","pictures/stimuli/P","M","M","6","576728c8236f930001a69a71","11/02/2022, 16:06:58",0.63437698624179,"26","Female","right",1,1,5,5,FALSE,"E_M_michael_caine.jpg P_M_david_cameron.jpg"
1654,"E_F_jennifer_aniston.jpg","P_M_bill_clinton.jpg","FALSE","pictures/stimuli/E","pictures/stimuli/P","F","M","6","576728c8236f930001a69a71","11/02/2022, 16:06:58",0.63437698624179,"26","Female","right",1,1,5,5,FALSE,"E_F_jennifer_aniston.jpg P_M_bill_clinton.jpg"
2159,"E_M_michael_caine.jpg","P_F_tehresy_may.jpg","FALSE","pictures/stimuli/E","pictures/stimuli/P","M","F","6","576728c8236f930001a69a71","11/02/2022, 16:06:58",0.63437698624179,"26","Female","right",1,1,5,5,FALSE,"E_M_michael_caine.jpg P_F_tehresy_may.jpg"
8680,"E_F_sandra_bullock.jpg","P_M_donald_trump.jpg","FALSE","pictures/stimuli/E","pictures/stimuli/P","F","M","6","576728c8236f930001a69a71","11/02/2022, 16:06:58",0.63437698624179,"26","Female","right",1,1,5,5,FALSE,"E_F_sandra_bullock.jpg P_M_donald_trump.jpg"
1303,"P_F_nicola_sturgeon.jpg","P_M_Tony_Blair.jpg","TRUE","pictures/stimuli/P","pictures/stimuli/P","F","M","6","576728c8236f930001a69a71","11/02/2022, 16:06:58",0.63437698624179,"26","Female","right",1,1,5,5,FALSE,"P_F_nicola_sturgeon.jpg P_M_Tony_Blair.jpg"
4462,"E_F_keira_knightley.jpg","P_F_tehresy_may.jpg","FALSE","pictures/stimuli/E","pictures/stimuli/P","F","F","6","576728c8236f930001a69a71","11/02/2022, 16:06:58",0.63437698624179,"26","Female","right",1,1,5,5,FALSE,"E_F_keira_knightley.jpg P_F_tehresy_may.jpg"
2383,"E_M_nicolas_cage.jpg","P_M_boris_johnson.jpg","FALSE","pictures/stimuli/E","pictures/stimuli/P","M","M","5","576728c8236f930001a69a71","11/02/2022, 16:06:58",-0.143246416248146,"26","Female","right",1,1,5,5,FALSE,"E_M_nicolas_cage.jpg P_M_boris_johnson.jpg"
1564,"P_F_hillary_clinton.jpg","P_M_Tony_Blair.jpg","TRUE","pictures/stimuli/P","pictures/stimuli/P","F","M","6","576728c8236f930001a69a71","11/02/2022, 16:06:58",0.63437698624179,"26","Female","right",1,1,5,5,FALSE,"P_F_hillary_clinton.jpg P_M_Tony_Blair.jpg"
2314,"E_F_angelina_jolie.jpg","E_F_keira_knightley.jpg","TRUE","pictures/stimuli/E","pictures/stimuli/E","F","F","2","576728c8236f930001a69a71","11/02/2022, 16:06:58",-2.47611662371795,"26","Female","right",1,1,5,5,FALSE,"E_F_angelina_jolie.jpg E_F_keira_knightley.jpg"
2123,"P_F_tehresy_may.jpg","P_M_david_cameron.jpg","TRUE","pictures/stimuli/P","pictures/stimuli/P","F","M","6","576728c8236f930001a69a71","11/02/2022, 16:06:58",0.63437698624179,"26","Female","right",1,1,5,5,FALSE,"P_F_tehresy_may.jpg P_M_david_cameron.jpg"
1508,"E_M_nicolas_cage.jpg","P_M_Tony_Blair.jpg","FALSE","pictures/stimuli/E","pictures/stimuli/P","M","M","6","576728c8236f930001a69a71","11/02/2022, 16:06:58",0.63437698624179,"26","Female","right",1,1,5,5,FALSE,"E_M_nicolas_cage.jpg P_M_Tony_Blair.jpg"
2056,"E_M_michael_caine.jpg","P_M_Tony_Blair.jpg","FALSE","pictures/stimuli/E","pictures/stimuli/P","M","M","6","576728c8236f930001a69a71","11/02/2022, 16:06:58",0.63437698624179,"26","Female","right",1,1,5,5,FALSE,"E_M_michael_caine.jpg P_M_Tony_Blair.jpg"
1395,"E_M_Hugh_Grant.jpg","P_M_Tony_Blair.jpg","FALSE","pictures/stimuli/E","pictures/stimuli/P","M","M","6","576728c8236f930001a69a71","11/02/2022, 16:06:58",0.63437698624179,"26","Female","right",1,1,5,5,FALSE,"E_M_Hugh_Grant.jpg P_M_Tony_Blair.jpg"
1350,"E_F_angelina_jolie.jpg","P_M_donald_trump.jpg","FALSE","pictures/stimuli/E","pictures/stimuli/P","F","M","6","576728c8236f930001a69a71","11/02/2022, 16:06:58",0.63437698624179,"26","Female","right",1,1,5,5,FALSE,"E_F_angelina_jolie.jpg P_M_donald_trump.jpg"
1632,"E_F_sandra_bullock.jpg","P_M_george_Wbush.jpg","FALSE","pictures/stimuli/E","pictures/stimuli/P","F","M","6","576728c8236f930001a69a71","11/02/2022, 16:06:58",0.63437698624179,"26","Female","right",1,1,5,5,FALSE,"E_F_sandra_bullock.jpg P_M_george_Wbush.jpg"
6443,"E_M_nicolas_cage.jpg","E_M_robert_de_niro.jpg","TRUE","pictures/stimuli/E","pictures/stimuli/E","M","M","3","576728c8236f930001a69a71","11/02/2022, 16:06:58",-1.69849322122802,"26","Female","right",1,1,5,5,FALSE,"E_M_nicolas_cage.jpg E_M_robert_de_niro.jpg"
2610,"E_F_Kate_Winslet.jpg","P_F_tehresy_may.jpg","FALSE","pictures/stimuli/E","pictures/stimuli/P","F","F","6","576728c8236f930001a69a71","11/02/2022, 16:06:58",0.63437698624179,"26","Female","right",1,1,5,5,FALSE,"E_F_Kate_Winslet.jpg P_F_tehresy_may.jpg"
1730,"E_M_Hugh_Grant.jpg","P_M_bill_clinton.jpg","FALSE","pictures/stimuli/E","pictures/stimuli/P","M","M","6","576728c8236f930001a69a71","11/02/2022, 16:06:58",0.63437698624179,"26","Female","right",1,1,5,5,FALSE,"E_M_Hugh_Grant.jpg P_M_bill_clinton.jpg"
1965,"P_F_hillary_clinton.jpg","P_M_george_Wbush.jpg","TRUE","pictures/stimuli/P","pictures/stimuli/P","F","M","6","576728c8236f930001a69a71","11/02/2022, 16:06:58",0.63437698624179,"26","Female","right",1,1,5,5,FALSE,"P_F_hillary_clinton.jpg P_M_george_Wbush.jpg"
1496,"E_M_robert_de_niro.jpg","P_F_tehresy_may.jpg","FALSE","pictures/stimuli/E","pictures/stimuli/P","M","F","6","576728c8236f930001a69a71","11/02/2022, 16:06:58",0.63437698624179,"26","Female","right",1,1,5,5,FALSE,"E_M_robert_de_niro.jpg P_F_tehresy_may.jpg"
1610,"E_M_Hugh_Grant.jpg","P_M_donald_trump.jpg","FALSE","pictures/stimuli/E","pictures/stimuli/P","M","M","6","576728c8236f930001a69a71","11/02/2022, 16:06:58",0.63437698624179,"26","Female","right",1,1,5,5,FALSE,"E_M_Hugh_Grant.jpg P_M_donald_trump.jpg"
4272,"E_F_jennifer_aniston.jpg","E_M_tom_hankes.jpg","TRUE","pictures/stimuli/E","pictures/stimuli/E","F","M","6","576728c8236f930001a69a71","11/02/2022, 16:06:58",0.63437698624179,"26","Female","right",1,1,5,5,FALSE,"E_F_jennifer_aniston.jpg E_M_tom_hankes.jpg"
1429,"E_F_jennifer_aniston.jpg","E_M_michael_caine.jpg","TRUE","pictures/stimuli/E","pictures/stimuli/E","F","M","6","576728c8236f930001a69a71","11/02/2022, 16:06:58",0.63437698624179,"26","Female","right",1,1,5,5,FALSE,"E_F_jennifer_aniston.jpg E_M_michael_caine.jpg"
1446,"E_F_sandra_bullock.jpg","E_M_nicolas_cage.jpg","TRUE","pictures/stimuli/E","pictures/stimuli/E","F","M","6","576728c8236f930001a69a71","11/02/2022, 16:06:58",0.63437698624179,"26","Female","right",1,1,5,5,FALSE,"E_F_sandra_bullock.jpg E_M_nicolas_cage.jpg"
4834,"E_F_Judi_Dench.jpg","P_F_tehresy_may.jpg","FALSE","pictures/stimuli/E","pictures/stimuli/P","F","F","4","576728c8236f930001a69a71","11/02/2022, 16:06:58",-0.920869818738082,"26","Female","right",1,1,5,5,FALSE,"E_F_Judi_Dench.jpg P_F_tehresy_may.jpg"
1453,"E_M_nicolas_cage.jpg","E_M_tom_hankes.jpg","TRUE","pictures/stimuli/E","pictures/stimuli/E","M","M","6","576728c8236f930001a69a71","11/02/2022, 16:06:58",0.63437698624179,"26","Female","right",1,1,5,5,FALSE,"E_M_nicolas_cage.jpg E_M_tom_hankes.jpg"
2677,"E_M_michael_caine.jpg","E_M_robert_de_niro.jpg","TRUE","pictures/stimuli/E","pictures/stimuli/E","M","M","2","576728c8236f930001a69a71","11/02/2022, 16:06:58",-2.47611662371795,"26","Female","right",1,1,5,5,FALSE,"E_M_michael_caine.jpg E_M_robert_de_niro.jpg"
2478,"E_M_nicolas_cage.jpg","P_F_nicola_sturgeon.jpg","FALSE","pictures/stimuli/E","pictures/stimuli/P","M","F","6","576728c8236f930001a69a71","11/02/2022, 16:06:58",0.63437698624179,"26","Female","right",1,1,5,5,FALSE,"E_M_nicolas_cage.jpg P_F_nicola_sturgeon.jpg"
2781,"E_M_tom_hankes.jpg","P_M_boris_johnson.jpg","FALSE","pictures/stimuli/E","pictures/stimuli/P","M","M","5","576728c8236f930001a69a71","11/02/2022, 16:06:58",-0.143246416248146,"26","Female","right",1,1,5,5,FALSE,"E_M_tom_hankes.jpg P_M_boris_johnson.jpg"
1640,"E_F_keira_knightley.jpg","E_M_Hugh_Grant.jpg","TRUE","pictures/stimuli/E","pictures/stimuli/E","F","M","6","576728c8236f930001a69a71","11/02/2022, 16:06:58",0.63437698624179,"26","Female","right",1,1,5,5,FALSE,"E_F_keira_knightley.jpg E_M_Hugh_Grant.jpg"
3694,"E_M_Hugh_Grant.jpg","P_M_david_cameron.jpg","FALSE","pictures/stimuli/E","pictures/stimuli/P","M","M","5","576728c8236f930001a69a71","11/02/2022, 16:06:58",-0.143246416248146,"26","Female","right",1,1,5,5,FALSE,"E_M_Hugh_Grant.jpg P_M_david_cameron.jpg"
2855,"P_M_david_cameron.jpg","P_M_george_Wbush.jpg","TRUE","pictures/stimuli/P","pictures/stimuli/P","M","M","4","576728c8236f930001a69a71","11/02/2022, 16:06:58",-0.920869818738082,"26","Female","right",1,1,5,5,FALSE,"P_M_david_cameron.jpg P_M_george_Wbush.jpg"
1856,"E_F_jennifer_aniston.jpg","P_M_george_Wbush.jpg","FALSE","pictures/stimuli/E","pictures/stimuli/P","F","M","6","576728c8236f930001a69a71","11/02/2022, 16:06:58",0.63437698624179,"26","Female","right",1,1,5,5,FALSE,"E_F_jennifer_aniston.jpg P_M_george_Wbush.jpg"
7019,"E_F_jennifer_aniston.jpg","P_F_tehresy_may.jpg","FALSE","pictures/stimuli/E","pictures/stimuli/P","F","F","5","576728c8236f930001a69a71","11/02/2022, 16:06:58",-0.143246416248146,"26","Female","right",1,1,5,5,FALSE,"E_F_jennifer_aniston.jpg P_F_tehresy_may.jpg"
1688,"E_F_Kate_Winslet.jpg","E_M_robert_de_niro.jpg","TRUE","pictures/stimuli/E","pictures/stimuli/E","F","M","6","576728c8236f930001a69a71","11/02/2022, 16:06:58",0.63437698624179,"26","Female","right",1,1,5,5,FALSE,"E_F_Kate_Winslet.jpg E_M_robert_de_niro.jpg"
2035,"E_F_sandra_bullock.jpg","E_M_michael_caine.jpg","TRUE","pictures/stimuli/E","pictures/stimuli/E","F","M","6","576728c8236f930001a69a71","11/02/2022, 16:06:58",0.63437698624179,"26","Female","right",1,1,5,5,FALSE,"E_F_sandra_bullock.jpg E_M_michael_caine.jpg"
2683,"E_F_sandra_bullock.jpg","P_M_david_cameron.jpg","FALSE","pictures/stimuli/E","pictures/stimuli/P","F","M","6","576728c8236f930001a69a71","11/02/2022, 16:06:58",0.63437698624179,"26","Female","right",1,1,5,5,FALSE,"E_F_sandra_bullock.jpg P_M_david_cameron.jpg"
4663,"E_F_keira_knightley.jpg","E_M_michael_caine.jpg","TRUE","pictures/stimuli/E","pictures/stimuli/E","F","M","6","576728c8236f930001a69a71","11/02/2022, 16:06:58",0.63437698624179,"26","Female","right",1,1,5,5,FALSE,"E_F_keira_knightley.jpg E_M_michael_caine.jpg"
1209,"E_F_Judi_Dench.jpg","P_F_nicola_sturgeon.jpg","FALSE","pictures/stimuli/E","pictures/stimuli/P","F","F","6","576728c8236f930001a69a71","11/02/2022, 16:06:58",0.63437698624179,"26","Female","right",1,1,5,5,FALSE,"E_F_Judi_Dench.jpg P_F_nicola_sturgeon.jpg"
4087,"E_F_Kate_Winslet.jpg","P_M_donald_trump.jpg","FALSE","pictures/stimuli/E","pictures/stimuli/P","F","M","6","576728c8236f930001a69a71","11/02/2022, 16:06:58",0.63437698624179,"26","Female","right",1,1,5,5,FALSE,"E_F_Kate_Winslet.jpg P_M_donald_trump.jpg"
3516,"E_F_Kate_Winslet.jpg","P_M_Tony_Blair.jpg","FALSE","pictures/stimuli/E","pictures/stimuli/P","F","M","6","576728c8236f930001a69a71","11/02/2022, 16:06:58",0.63437698624179,"26","Female","right",1,1,5,5,FALSE,"E_F_Kate_Winslet.jpg P_M_Tony_Blair.jpg"
2796,"E_M_tom_hankes.jpg","P_F_tehresy_may.jpg","FALSE","pictures/stimuli/E","pictures/stimuli/P","M","F","6","576728c8236f930001a69a71","11/02/2022, 16:06:58",0.63437698624179,"26","Female","right",1,1,5,5,FALSE,"E_M_tom_hankes.jpg P_F_tehresy_may.jpg"
1101,"E_F_Kate_Winslet.jpg","P_M_bill_clinton.jpg","FALSE","pictures/stimuli/E","pictures/stimuli/P","F","M","6","576728c8236f930001a69a71","11/02/2022, 16:06:58",0.63437698624179,"26","Female","right",1,1,5,5,FALSE,"E_F_Kate_Winslet.jpg P_M_bill_clinton.jpg"
3046,"E_M_michael_caine.jpg","E_M_nicolas_cage.jpg","TRUE","pictures/stimuli/E","pictures/stimuli/E","M","M","3","576728c8236f930001a69a71","11/02/2022, 16:06:58",-1.69849322122802,"26","Female","right",1,1,5,5,FALSE,"E_M_michael_caine.jpg E_M_nicolas_cage.jpg"
1449,"E_F_jennifer_aniston.jpg","E_M_Hugh_Grant.jpg","TRUE","pictures/stimuli/E","pictures/stimuli/E","F","M","6","576728c8236f930001a69a71","11/02/2022, 16:06:58",0.63437698624179,"26","Female","right",1,1,5,5,FALSE,"E_F_jennifer_aniston.jpg E_M_Hugh_Grant.jpg"
2744,"P_F_hillary_clinton.jpg","P_F_tehresy_may.jpg","TRUE","pictures/stimuli/P","pictures/stimuli/P","F","F","1","576728c8236f930001a69a71","11/02/2022, 16:06:58",-3.25374002620789,"26","Female","right",1,1,5,5,FALSE,"P_F_hillary_clinton.jpg P_F_tehresy_may.jpg"
3403,"E_M_tom_hankes.jpg","P_M_david_cameron.jpg","FALSE","pictures/stimuli/E","pictures/stimuli/P","M","M","5","576728c8236f930001a69a71","11/02/2022, 16:06:58",-0.143246416248146,"26","Female","right",1,1,5,5,FALSE,"E_M_tom_hankes.jpg P_M_david_cameron.jpg"
4705,"P_M_bill_clinton.jpg","P_M_george_Wbush.jpg","TRUE","pictures/stimuli/P","pictures/stimuli/P","M","M","2","576728c8236f930001a69a71","11/02/2022, 16:06:58",-2.47611662371795,"26","Female","right",1,1,5,5,FALSE,"P_M_bill_clinton.jpg P_M_george_Wbush.jpg"
2230,"E_F_angelina_jolie.jpg","P_M_boris_johnson.jpg","FALSE","pictures/stimuli/E","pictures/stimuli/P","F","M","6","576728c8236f930001a69a71","11/02/2022, 16:06:58",0.63437698624179,"26","Female","right",1,1,5,5,FALSE,"E_F_angelina_jolie.jpg P_M_boris_johnson.jpg"
4036,"E_F_Judi_Dench.jpg","P_M_george_Wbush.jpg","FALSE","pictures/stimuli/E","pictures/stimuli/P","F","M","6","576728c8236f930001a69a71","11/02/2022, 16:06:58",0.63437698624179,"26","Female","right",1,1,5,5,FALSE,"E_F_Judi_Dench.jpg P_M_george_Wbush.jpg"
1686,"E_M_robert_de_niro.jpg","P_M_boris_johnson.jpg","FALSE","pictures/stimuli/E","pictures/stimuli/P","M","M","6","576728c8236f930001a69a71","11/02/2022, 16:06:58",0.63437698624179,"26","Female","right",1,1,5,5,FALSE,"E_M_robert_de_niro.jpg P_M_boris_johnson.jpg"
1456,"E_F_Judi_Dench.jpg","P_M_boris_johnson.jpg","FALSE","pictures/stimuli/E","pictures/stimuli/P","F","M","6","576728c8236f930001a69a71","11/02/2022, 16:06:58",0.63437698624179,"26","Female","right",1,1,5,5,FALSE,"E_F_Judi_Dench.jpg P_M_boris_johnson.jpg"
2586,"E_F_jennifer_aniston.jpg","E_F_keira_knightley.jpg","TRUE","pictures/stimuli/E","pictures/stimuli/E","F","F","1","576728c8236f930001a69a71","11/02/2022, 16:06:58",-3.25374002620789,"26","Female","right",1,1,5,5,FALSE,"E_F_jennifer_aniston.jpg E_F_keira_knightley.jpg"
5506,"E_M_Hugh_Grant.jpg","E_M_michael_caine.jpg","TRUE","pictures/stimuli/E","pictures/stimuli/E","M","M","3","576728c8236f930001a69a71","11/02/2022, 16:06:58",-1.69849322122802,"26","Female","right",1,1,5,5,FALSE,"E_M_Hugh_Grant.jpg E_M_michael_caine.jpg"
2491,"E_F_angelina_jolie.jpg","E_M_Hugh_Grant.jpg","TRUE","pictures/stimuli/E","pictures/stimuli/E","F","M","5","576728c8236f930001a69a71","11/02/2022, 16:06:58",-0.143246416248146,"26","Female","right",1,1,5,5,FALSE,"E_F_angelina_jolie.jpg E_M_Hugh_Grant.jpg"
1914,"E_F_angelina_jolie.jpg","E_F_sandra_bullock.jpg","TRUE","pictures/stimuli/E","pictures/stimuli/E","F","F","3","576728c8236f930001a69a71","11/02/2022, 16:06:58",-1.69849322122802,"26","Female","right",1,1,5,5,FALSE,"E_F_angelina_jolie.jpg E_F_sandra_bullock.jpg"
1699,"E_F_angelina_jolie.jpg","P_M_david_cameron.jpg","FALSE","pictures/stimuli/E","pictures/stimuli/P","F","M","6","576728c8236f930001a69a71","11/02/2022, 16:06:58",0.63437698624179,"26","Female","right",1,1,5,5,FALSE,"E_F_angelina_jolie.jpg P_M_david_cameron.jpg"
3971,"E_F_keira_knightley.jpg","P_M_boris_johnson.jpg","FALSE","pictures/stimuli/E","pictures/stimuli/P","F","M","6","576728c8236f930001a69a71","11/02/2022, 16:06:58",0.63437698624179,"26","Female","right",1,1,5,5,FALSE,"E_F_keira_knightley.jpg P_M_boris_johnson.jpg"
6419,"E_M_Hugh_Grant.jpg","E_M_tom_hankes.jpg","TRUE","pictures/stimuli/E","pictures/stimuli/E","M","M","2","576728c8236f930001a69a71","11/02/2022, 16:06:58",-2.47611662371795,"26","Female","right",1,1,5,5,FALSE,"E_M_Hugh_Grant.jpg E_M_tom_hankes.jpg"
12046,"E_M_nicolas_cage.jpg","P_M_donald_trump.jpg","FALSE","pictures/stimuli/E","pictures/stimuli/P","M","M","6","576728c8236f930001a69a71","11/02/2022, 16:06:58",0.63437698624179,"26","Female","right",1,1,5,5,FALSE,"E_M_nicolas_cage.jpg P_M_donald_trump.jpg"
2374,"E_F_keira_knightley.jpg","P_F_hillary_clinton.jpg","FALSE","pictures/stimuli/E","pictures/stimuli/P","F","F","5","576728c8236f930001a69a71","11/02/2022, 16:06:58",-0.143246416248146,"26","Female","right",1,1,5,5,FALSE,"E_F_keira_knightley.jpg P_F_hillary_clinton.jpg"
2454,"E_M_nicolas_cage.jpg","P_F_tehresy_may.jpg","FALSE","pictures/stimuli/E","pictures/stimuli/P","M","F","6","576728c8236f930001a69a71","11/02/2022, 16:06:58",0.63437698624179,"26","Female","right",1,1,5,5,FALSE,"E_M_nicolas_cage.jpg P_F_tehresy_may.jpg"
1528,"E_F_Kate_Winslet.jpg","P_M_george_Wbush.jpg","FALSE","pictures/stimuli/E","pictures/stimuli/P","F","M","6","576728c8236f930001a69a71","11/02/2022, 16:06:58",0.63437698624179,"26","Female","right",1,1,5,5,FALSE,"E_F_Kate_Winslet.jpg P_M_george_Wbush.jpg"
2185,"P_M_bill_clinton.jpg","P_M_david_cameron.jpg","TRUE","pictures/stimuli/P","pictures/stimuli/P","M","M","4","576728c8236f930001a69a71","11/02/2022, 16:06:58",-0.920869818738082,"26","Female","right",1,1,5,5,FALSE,"P_M_bill_clinton.jpg P_M_david_cameron.jpg"
2963,"E_F_Judi_Dench.jpg","P_M_bill_clinton.jpg","FALSE","pictures/stimuli/E","pictures/stimuli/P","F","M","5","576728c8236f930001a69a71","11/02/2022, 16:06:58",-0.143246416248146,"26","Female","right",1,1,5,5,FALSE,"E_F_Judi_Dench.jpg P_M_bill_clinton.jpg"
4872,"E_F_Judi_Dench.jpg","E_F_Kate_Winslet.jpg","TRUE","pictures/stimuli/E","pictures/stimuli/E","F","F","1","576728c8236f930001a69a71","11/02/2022, 16:06:58",-3.25374002620789,"26","Female","right",1,1,5,5,FALSE,"E_F_Judi_Dench.jpg E_F_Kate_Winslet.jpg"
3193,"E_F_sandra_bullock.jpg","P_F_tehresy_may.jpg","FALSE","pictures/stimuli/E","pictures/stimuli/P","F","F","4","576728c8236f930001a69a71","11/02/2022, 16:06:58",-0.920869818738082,"26","Female","right",1,1,5,5,FALSE,"E_F_sandra_bullock.jpg P_F_tehresy_may.jpg"
5894,"P_F_hillary_clinton.jpg","P_M_boris_johnson.jpg","TRUE","pictures/stimuli/P","pictures/stimuli/P","F","M","3","576728c8236f930001a69a71","11/02/2022, 16:06:58",-1.69849322122802,"26","Female","right",1,1,5,5,FALSE,"P_F_hillary_clinton.jpg P_M_boris_johnson.jpg"
2615,"E_M_nicolas_cage.jpg","P_M_david_cameron.jpg","FALSE","pictures/stimuli/E","pictures/stimuli/P","M","M","5","576728c8236f930001a69a71","11/02/2022, 16:06:58",-0.143246416248146,"26","Female","right",1,1,5,5,FALSE,"E_M_nicolas_cage.jpg P_M_david_cameron.jpg"
3639,"E_F_jennifer_aniston.jpg","E_M_robert_de_niro.jpg","TRUE","pictures/stimuli/E","pictures/stimuli/E","F","M","5","576728c8236f930001a69a71","11/02/2022, 16:06:58",-0.143246416248146,"26","Female","right",1,1,5,5,FALSE,"E_F_jennifer_aniston.jpg E_M_robert_de_niro.jpg"
2864,"E_F_angelina_jolie.jpg","E_F_Judi_Dench.jpg","TRUE","pictures/stimuli/E","pictures/stimuli/E","F","F","3","576728c8236f930001a69a71","11/02/2022, 16:06:58",-1.69849322122802,"26","Female","right",1,1,5,5,FALSE,"E_F_angelina_jolie.jpg E_F_Judi_Dench.jpg"
2277,"P_M_bill_clinton.jpg","P_M_donald_trump.jpg","TRUE","pictures/stimuli/P","pictures/stimuli/P","M","M","3","576728c8236f930001a69a71","11/02/2022, 16:06:58",-1.69849322122802,"26","Female","right",1,1,5,5,FALSE,"P_M_bill_clinton.jpg P_M_donald_trump.jpg"
1861,"E_F_angelina_jolie.jpg","E_F_jennifer_aniston.jpg","TRUE","pictures/stimuli/E","pictures/stimuli/E","F","F","2","576728c8236f930001a69a71","11/02/2022, 16:06:58",-2.47611662371795,"26","Female","right",1,1,5,5,FALSE,"E_F_angelina_jolie.jpg E_F_jennifer_aniston.jpg"
2549,"E_F_angelina_jolie.jpg","E_M_robert_de_niro.jpg","TRUE","pictures/stimuli/E","pictures/stimuli/E","F","M","5","576728c8236f930001a69a71","11/02/2022, 16:06:58",-0.143246416248146,"26","Female","right",1,1,5,5,FALSE,"E_F_angelina_jolie.jpg E_M_robert_de_niro.jpg"
1797,"E_F_keira_knightley.jpg","P_M_bill_clinton.jpg","FALSE","pictures/stimuli/E","pictures/stimuli/P","F","M","6","576728c8236f930001a69a71","11/02/2022, 16:06:58",0.63437698624179,"26","Female","right",1,1,5,5,FALSE,"E_F_keira_knightley.jpg P_M_bill_clinton.jpg"
4163,"E_F_angelina_jolie.jpg","P_F_hillary_clinton.jpg","FALSE","pictures/stimuli/E","pictures/stimuli/P","F","F","4","576728c8236f930001a69a71","11/02/2022, 16:06:58",-0.920869818738082,"26","Female","right",1,1,5,5,FALSE,"E_F_angelina_jolie.jpg P_F_hillary_clinton.jpg"
1725,"E_M_Hugh_Grant.jpg","P_M_boris_johnson.jpg","FALSE","pictures/stimuli/E","pictures/stimuli/P","M","M","5","576728c8236f930001a69a71","11/02/2022, 16:06:58",-0.143246416248146,"26","Female","right",1,1,5,5,FALSE,"E_M_Hugh_Grant.jpg P_M_boris_johnson.jpg"
2397,"E_F_keira_knightley.jpg","P_F_nicola_sturgeon.jpg","FALSE","pictures/stimuli/E","pictures/stimuli/P","F","F","6","576728c8236f930001a69a71","11/02/2022, 16:06:58",0.63437698624179,"26","Female","right",1,1,5,5,FALSE,"E_F_keira_knightley.jpg P_F_nicola_sturgeon.jpg"
2962,"E_M_michael_caine.jpg","P_M_george_Wbush.jpg","FALSE","pictures/stimuli/E","pictures/stimuli/P","M","M","3","576728c8236f930001a69a71","11/02/2022, 16:06:58",-1.69849322122802,"26","Female","right",1,1,5,5,FALSE,"E_M_michael_caine.jpg P_M_george_Wbush.jpg"
1881,"E_M_robert_de_niro.jpg","P_M_george_Wbush.jpg","FALSE","pictures/stimuli/E","pictures/stimuli/P","M","M","5","576728c8236f930001a69a71","11/02/2022, 16:06:58",-0.143246416248146,"26","Female","right",1,1,5,5,FALSE,"E_M_robert_de_niro.jpg P_M_george_Wbush.jpg"
2429,"E_M_robert_de_niro.jpg","P_F_nicola_sturgeon.jpg","FALSE","pictures/stimuli/E","pictures/stimuli/P","M","F","5","576728c8236f930001a69a71","11/02/2022, 16:06:58",-0.143246416248146,"26","Female","right",1,1,5,5,FALSE,"E_M_robert_de_niro.jpg P_F_nicola_sturgeon.jpg"
1960,"P_F_nicola_sturgeon.jpg","P_M_boris_johnson.jpg","TRUE","pictures/stimuli/P","pictures/stimuli/P","F","M","6","576728c8236f930001a69a71","11/02/2022, 16:06:58",0.63437698624179,"26","Female","right",1,1,5,5,FALSE,"P_F_nicola_sturgeon.jpg P_M_boris_johnson.jpg"
9692,"E_M_tom_hankes.jpg","P_M_boris_johnson.jpg","FALSE","pictures/stimuli/E","pictures/stimuli/P","M","M","6","57df427c722df500017f43ae","11/02/2022, 16:13:27",0.226553218679853,"33","Female","right",1,1,2,2,FALSE,"E_M_tom_hankes.jpg P_M_boris_johnson.jpg"
3683,"P_F_hillary_clinton.jpg","P_M_boris_johnson.jpg","TRUE","pictures/stimuli/P","pictures/stimuli/P","F","M","6","57df427c722df500017f43ae","11/02/2022, 16:13:27",0.226553218679853,"33","Female","right",1,1,2,2,FALSE,"P_F_hillary_clinton.jpg P_M_boris_johnson.jpg"
4892,"E_F_Judi_Dench.jpg","E_M_robert_de_niro.jpg","TRUE","pictures/stimuli/E","pictures/stimuli/E","F","M","6","57df427c722df500017f43ae","11/02/2022, 16:13:27",0.226553218679853,"33","Female","right",1,1,3,2,FALSE,"E_F_Judi_Dench.jpg E_M_robert_de_niro.jpg"
10249,"E_F_jennifer_aniston.jpg","E_F_Kate_Winslet.jpg","TRUE","pictures/stimuli/E","pictures/stimuli/E","F","F","6","57df427c722df500017f43ae","11/02/2022, 16:13:27",0.226553218679853,"33","Female","right",1,1,2,3,FALSE,"E_F_jennifer_aniston.jpg E_F_Kate_Winslet.jpg"
4539,"E_F_keira_knightley.jpg","E_M_nicolas_cage.jpg","TRUE","pictures/stimuli/E","pictures/stimuli/E","F","M","6","57df427c722df500017f43ae","11/02/2022, 16:13:27",0.226553218679853,"33","Female","right",1,1,2,2,FALSE,"E_F_keira_knightley.jpg E_M_nicolas_cage.jpg"
2798,"E_M_Hugh_Grant.jpg","P_F_tehresy_may.jpg","FALSE","pictures/stimuli/E","pictures/stimuli/P","M","F","6","57df427c722df500017f43ae","11/02/2022, 16:13:27",0.226553218679853,"33","Female","right",1,1,2,2,FALSE,"E_M_Hugh_Grant.jpg P_F_tehresy_may.jpg"
3142,"E_F_keira_knightley.jpg","P_M_bill_clinton.jpg","FALSE","pictures/stimuli/E","pictures/stimuli/P","F","M","6","57df427c722df500017f43ae","11/02/2022, 16:13:27",0.226553218679853,"33","Female","right",1,1,2,2,FALSE,"E_F_keira_knightley.jpg P_M_bill_clinton.jpg"
4781,"E_M_michael_caine.jpg","P_M_donald_trump.jpg","FALSE","pictures/stimuli/E","pictures/stimuli/P","M","M","6","57df427c722df500017f43ae","11/02/2022, 16:13:27",0.226553218679853,"33","Female","right",1,1,2,2,FALSE,"E_M_michael_caine.jpg P_M_donald_trump.jpg"
3562,"E_F_sandra_bullock.jpg","P_F_tehresy_may.jpg","FALSE","pictures/stimuli/E","pictures/stimuli/P","F","F","6","57df427c722df500017f43ae","11/02/2022, 16:13:27",0.226553218679853,"33","Female","right",1,1,2,2,FALSE,"E_F_sandra_bullock.jpg P_F_tehresy_may.jpg"
4832,"E_M_nicolas_cage.jpg","P_M_donald_trump.jpg","FALSE","pictures/stimuli/E","pictures/stimuli/P","M","M","6","57df427c722df500017f43ae","11/02/2022, 16:13:27",0.226553218679853,"33","Female","right",1,1,2,2,FALSE,"E_M_nicolas_cage.jpg P_M_donald_trump.jpg"
20191,"E_M_Hugh_Grant.jpg","E_M_michael_caine.jpg","TRUE","pictures/stimuli/E","pictures/stimuli/E","M","M","5","57df427c722df500017f43ae","11/02/2022, 16:13:27",-2.30551216656556,"33","Female","right",1,1,2,2,FALSE,"E_M_Hugh_Grant.jpg E_M_michael_caine.jpg"
2859,"P_F_tehresy_may.jpg","P_M_donald_trump.jpg","TRUE","pictures/stimuli/P","pictures/stimuli/P","F","M","6","57df427c722df500017f43ae","11/02/2022, 16:13:27",0.226553218679853,"33","Female","right",1,1,2,2,FALSE,"P_F_tehresy_may.jpg P_M_donald_trump.jpg"
3706,"E_F_Kate_Winslet.jpg","P_F_hillary_clinton.jpg","FALSE","pictures/stimuli/E","pictures/stimuli/P","F","F","6","57df427c722df500017f43ae","11/02/2022, 16:13:27",0.226553218679853,"33","Female","right",1,1,3,2,FALSE,"E_F_Kate_Winslet.jpg P_F_hillary_clinton.jpg"
5949,"E_M_nicolas_cage.jpg","P_M_david_cameron.jpg","FALSE","pictures/stimuli/E","pictures/stimuli/P","M","M","5","57df427c722df500017f43ae","11/02/2022, 16:13:27",-2.30551216656556,"33","Female","right",1,1,2,3,FALSE,"E_M_nicolas_cage.jpg P_M_david_cameron.jpg"
3034,"E_M_robert_de_niro.jpg","P_F_nicola_sturgeon.jpg","FALSE","pictures/stimuli/E","pictures/stimuli/P","M","F","6","57df427c722df500017f43ae","11/02/2022, 16:13:27",0.226553218679853,"33","Female","right",1,1,2,2,FALSE,"E_M_robert_de_niro.jpg P_F_nicola_sturgeon.jpg"
2894,"E_M_nicolas_cage.jpg","P_F_hillary_clinton.jpg","FALSE","pictures/stimuli/E","pictures/stimuli/P","M","F","6","57df427c722df500017f43ae","11/02/2022, 16:13:27",0.226553218679853,"33","Female","right",1,1,2,2,FALSE,"E_M_nicolas_cage.jpg P_F_hillary_clinton.jpg"
2484,"E_F_Judi_Dench.jpg","E_M_tom_hankes.jpg","TRUE","pictures/stimuli/E","pictures/stimuli/E","F","M","6","57df427c722df500017f43ae","11/02/2022, 16:13:27",0.226553218679853,"33","Female","right",1,1,3,2,FALSE,"E_F_Judi_Dench.jpg E_M_tom_hankes.jpg"
4142,"E_F_Judi_Dench.jpg","E_M_nicolas_cage.jpg","TRUE","pictures/stimuli/E","pictures/stimuli/E","F","M","6","57df427c722df500017f43ae","11/02/2022, 16:13:27",0.226553218679853,"33","Female","right",1,1,3,2,FALSE,"E_F_Judi_Dench.jpg E_M_nicolas_cage.jpg"
4003,"E_F_sandra_bullock.jpg","P_M_Tony_Blair.jpg","FALSE","pictures/stimuli/E","pictures/stimuli/P","F","M","6","57df427c722df500017f43ae","11/02/2022, 16:13:27",0.226553218679853,"33","Female","right",1,1,2,4,FALSE,"E_F_sandra_bullock.jpg P_M_Tony_Blair.jpg"
3144,"P_M_david_cameron.jpg","P_M_george_Wbush.jpg","TRUE","pictures/stimuli/P","pictures/stimuli/P","M","M","6","57df427c722df500017f43ae","11/02/2022, 16:13:27",0.226553218679853,"33","Female","right",1,1,3,2,FALSE,"P_M_david_cameron.jpg P_M_george_Wbush.jpg"
12348,"E_F_keira_knightley.jpg","E_M_tom_hankes.jpg","TRUE","pictures/stimuli/E","pictures/stimuli/E","F","M","6","57df427c722df500017f43ae","11/02/2022, 16:13:27",0.226553218679853,"33","Female","right",1,1,2,2,FALSE,"E_F_keira_knightley.jpg E_M_tom_hankes.jpg"
8653,"P_F_nicola_sturgeon.jpg","P_M_david_cameron.jpg","TRUE","pictures/stimuli/P","pictures/stimuli/P","F","M","6","57df427c722df500017f43ae","11/02/2022, 16:13:27",0.226553218679853,"33","Female","right",1,1,2,3,FALSE,"P_F_nicola_sturgeon.jpg P_M_david_cameron.jpg"
8137,"E_M_tom_hankes.jpg","P_F_hillary_clinton.jpg","FALSE","pictures/stimuli/E","pictures/stimuli/P","M","F","6","57df427c722df500017f43ae","11/02/2022, 16:13:27",0.226553218679853,"33","Female","right",1,1,2,2,FALSE,"E_M_tom_hankes.jpg P_F_hillary_clinton.jpg"
3705,"E_F_Judi_Dench.jpg","P_F_tehresy_may.jpg","FALSE","pictures/stimuli/E","pictures/stimuli/P","F","F","6","57df427c722df500017f43ae","11/02/2022, 16:13:27",0.226553218679853,"33","Female","right",1,1,3,2,FALSE,"E_F_Judi_Dench.jpg P_F_tehresy_may.jpg"
3952,"E_F_Kate_Winslet.jpg","E_M_nicolas_cage.jpg","TRUE","pictures/stimuli/E","pictures/stimuli/E","F","M","6","57df427c722df500017f43ae","11/02/2022, 16:13:27",0.226553218679853,"33","Female","right",1,1,3,2,FALSE,"E_F_Kate_Winslet.jpg E_M_nicolas_cage.jpg"
6299,"P_F_nicola_sturgeon.jpg","P_M_george_Wbush.jpg","TRUE","pictures/stimuli/P","pictures/stimuli/P","F","M","6","57df427c722df500017f43ae","11/02/2022, 16:13:27",0.226553218679853,"33","Female","right",1,1,2,2,FALSE,"P_F_nicola_sturgeon.jpg P_M_george_Wbush.jpg"
3439,"E_F_jennifer_aniston.jpg","E_F_keira_knightley.jpg","TRUE","pictures/stimuli/E","pictures/stimuli/E","F","F","6","57df427c722df500017f43ae","11/02/2022, 16:13:27",0.226553218679853,"33","Female","right",1,1,2,2,FALSE,"E_F_jennifer_aniston.jpg E_F_keira_knightley.jpg"
3113,"E_M_nicolas_cage.jpg","P_F_tehresy_may.jpg","FALSE","pictures/stimuli/E","pictures/stimuli/P","M","F","6","57df427c722df500017f43ae","11/02/2022, 16:13:27",0.226553218679853,"33","Female","right",1,1,2,2,FALSE,"E_M_nicolas_cage.jpg P_F_tehresy_may.jpg"
3314,"E_F_sandra_bullock.jpg","E_M_michael_caine.jpg","TRUE","pictures/stimuli/E","pictures/stimuli/E","F","M","6","57df427c722df500017f43ae","11/02/2022, 16:13:27",0.226553218679853,"33","Female","right",1,1,2,2,FALSE,"E_F_sandra_bullock.jpg E_M_michael_caine.jpg"
3044,"E_F_angelina_jolie.jpg","E_F_keira_knightley.jpg","TRUE","pictures/stimuli/E","pictures/stimuli/E","F","F","6","57df427c722df500017f43ae","11/02/2022, 16:13:27",0.226553218679853,"33","Female","right",1,1,2,2,FALSE,"E_F_angelina_jolie.jpg E_F_keira_knightley.jpg"
1860,"E_F_Judi_Dench.jpg","P_F_hillary_clinton.jpg","FALSE","pictures/stimuli/E","pictures/stimuli/P","F","F","6","57df427c722df500017f43ae","11/02/2022, 16:13:27",0.226553218679853,"33","Female","right",1,1,3,2,FALSE,"E_F_Judi_Dench.jpg P_F_hillary_clinton.jpg"
6581,"E_M_nicolas_cage.jpg","P_M_george_Wbush.jpg","FALSE","pictures/stimuli/E","pictures/stimuli/P","M","M","6","57df427c722df500017f43ae","11/02/2022, 16:13:27",0.226553218679853,"33","Female","right",1,1,2,2,FALSE,"E_M_nicolas_cage.jpg P_M_george_Wbush.jpg"
2590,"E_F_angelina_jolie.jpg","P_M_boris_johnson.jpg","FALSE","pictures/stimuli/E","pictures/stimuli/P","F","M","6","57df427c722df500017f43ae","11/02/2022, 16:13:27",0.226553218679853,"33","Female","right",1,1,2,2,FALSE,"E_F_angelina_jolie.jpg P_M_boris_johnson.jpg"
18724,"E_F_Judi_Dench.jpg","P_M_Tony_Blair.jpg","FALSE","pictures/stimuli/E","pictures/stimuli/P","F","M","6","57df427c722df500017f43ae","11/02/2022, 16:13:27",0.226553218679853,"33","Female","right",1,1,3,4,FALSE,"E_F_Judi_Dench.jpg P_M_Tony_Blair.jpg"
2066,"E_F_keira_knightley.jpg","P_M_david_cameron.jpg","FALSE","pictures/stimuli/E","pictures/stimuli/P","F","M","6","57df427c722df500017f43ae","11/02/2022, 16:13:27",0.226553218679853,"33","Female","right",1,1,2,3,FALSE,"E_F_keira_knightley.jpg P_M_david_cameron.jpg"
2315,"P_M_boris_johnson.jpg","P_M_david_cameron.jpg","TRUE","pictures/stimuli/P","pictures/stimuli/P","M","M","6","57df427c722df500017f43ae","11/02/2022, 16:13:27",0.226553218679853,"33","Female","right",1,1,2,3,FALSE,"P_M_boris_johnson.jpg P_M_david_cameron.jpg"
4658,"E_M_michael_caine.jpg","P_F_nicola_sturgeon.jpg","FALSE","pictures/stimuli/E","pictures/stimuli/P","M","F","6","57df427c722df500017f43ae","11/02/2022, 16:13:27",0.226553218679853,"33","Female","right",1,1,2,2,FALSE,"E_M_michael_caine.jpg P_F_nicola_sturgeon.jpg"
27082,"P_M_bill_clinton.jpg","P_M_Tony_Blair.jpg","TRUE","pictures/stimuli/P","pictures/stimuli/P","M","M","5","57df427c722df500017f43ae","11/02/2022, 16:13:27",-2.30551216656556,"33","Female","right",1,1,2,4,FALSE,"P_M_bill_clinton.jpg P_M_Tony_Blair.jpg"
2716,"P_M_donald_trump.jpg","P_M_Tony_Blair.jpg","TRUE","pictures/stimuli/P","pictures/stimuli/P","M","M","6","57df427c722df500017f43ae","11/02/2022, 16:13:27",0.226553218679853,"33","Female","right",1,1,2,4,FALSE,"P_M_donald_trump.jpg P_M_Tony_Blair.jpg"
2889,"E_F_Kate_Winslet.jpg","P_F_tehresy_may.jpg","FALSE","pictures/stimuli/E","pictures/stimuli/P","F","F","6","57df427c722df500017f43ae","11/02/2022, 16:13:27",0.226553218679853,"33","Female","right",1,1,3,2,FALSE,"E_F_Kate_Winslet.jpg P_F_tehresy_may.jpg"
3731,"E_F_Judi_Dench.jpg","E_F_Kate_Winslet.jpg","TRUE","pictures/stimuli/E","pictures/stimuli/E","F","F","6","57df427c722df500017f43ae","11/02/2022, 16:13:27",0.226553218679853,"33","Female","right",1,1,3,3,FALSE,"E_F_Judi_Dench.jpg E_F_Kate_Winslet.jpg"
2014,"E_M_robert_de_niro.jpg","P_F_tehresy_may.jpg","FALSE","pictures/stimuli/E","pictures/stimuli/P","M","F","6","57df427c722df500017f43ae","11/02/2022, 16:13:27",0.226553218679853,"33","Female","right",1,1,2,2,FALSE,"E_M_robert_de_niro.jpg P_F_tehresy_may.jpg"
1748,"E_F_Judi_Dench.jpg","P_M_boris_johnson.jpg","FALSE","pictures/stimuli/E","pictures/stimuli/P","F","M","6","57df427c722df500017f43ae","11/02/2022, 16:13:27",0.226553218679853,"33","Female","right",1,1,3,2,FALSE,"E_F_Judi_Dench.jpg P_M_boris_johnson.jpg"
2421,"E_M_tom_hankes.jpg","P_F_nicola_sturgeon.jpg","FALSE","pictures/stimuli/E","pictures/stimuli/P","M","F","6","57df427c722df500017f43ae","11/02/2022, 16:13:27",0.226553218679853,"33","Female","right",1,1,2,2,FALSE,"E_M_tom_hankes.jpg P_F_nicola_sturgeon.jpg"
2299,"E_F_angelina_jolie.jpg","E_F_jennifer_aniston.jpg","TRUE","pictures/stimuli/E","pictures/stimuli/E","F","F","6","57df427c722df500017f43ae","11/02/2022, 16:13:27",0.226553218679853,"33","Female","right",1,1,2,2,FALSE,"E_F_angelina_jolie.jpg E_F_jennifer_aniston.jpg"
2252,"E_F_angelina_jolie.jpg","E_M_nicolas_cage.jpg","TRUE","pictures/stimuli/E","pictures/stimuli/E","F","M","6","57df427c722df500017f43ae","11/02/2022, 16:13:27",0.226553218679853,"33","Female","right",1,1,2,2,FALSE,"E_F_angelina_jolie.jpg E_M_nicolas_cage.jpg"
8845,"E_M_michael_caine.jpg","P_M_george_Wbush.jpg","FALSE","pictures/stimuli/E","pictures/stimuli/P","M","M","4","57df427c722df500017f43ae","11/02/2022, 16:13:27",-4.83757755181098,"33","Female","right",1,1,2,2,FALSE,"E_M_michael_caine.jpg P_M_george_Wbush.jpg"
3542,"P_F_hillary_clinton.jpg","P_M_bill_clinton.jpg","TRUE","pictures/stimuli/P","pictures/stimuli/P","F","M","6","57df427c722df500017f43ae","11/02/2022, 16:13:27",0.226553218679853,"33","Female","right",1,1,2,2,FALSE,"P_F_hillary_clinton.jpg P_M_bill_clinton.jpg"
2286,"E_F_sandra_bullock.jpg","P_F_hillary_clinton.jpg","FALSE","pictures/stimuli/E","pictures/stimuli/P","F","F","6","57df427c722df500017f43ae","11/02/2022, 16:13:27",0.226553218679853,"33","Female","right",1,1,2,2,FALSE,"E_F_sandra_bullock.jpg P_F_hillary_clinton.jpg"
2784,"E_F_jennifer_aniston.jpg","P_M_george_Wbush.jpg","FALSE","pictures/stimuli/E","pictures/stimuli/P","F","M","6","57df427c722df500017f43ae","11/02/2022, 16:13:27",0.226553218679853,"33","Female","right",1,1,2,2,FALSE,"E_F_jennifer_aniston.jpg P_M_george_Wbush.jpg"
3144,"E_F_keira_knightley.jpg","E_M_Hugh_Grant.jpg","TRUE","pictures/stimuli/E","pictures/stimuli/E","F","M","6","57df427c722df500017f43ae","11/02/2022, 16:13:27",0.226553218679853,"33","Female","right",1,1,2,2,FALSE,"E_F_keira_knightley.jpg E_M_Hugh_Grant.jpg"
5905,"E_M_Hugh_Grant.jpg","E_M_nicolas_cage.jpg","TRUE","pictures/stimuli/E","pictures/stimuli/E","M","M","4","57df427c722df500017f43ae","11/02/2022, 16:13:27",-4.83757755181098,"33","Female","right",1,1,2,2,FALSE,"E_M_Hugh_Grant.jpg E_M_nicolas_cage.jpg"
2068,"E_F_keira_knightley.jpg","P_F_hillary_clinton.jpg","FALSE","pictures/stimuli/E","pictures/stimuli/P","F","F","6","57df427c722df500017f43ae","11/02/2022, 16:13:27",0.226553218679853,"33","Female","right",1,1,2,2,FALSE,"E_F_keira_knightley.jpg P_F_hillary_clinton.jpg"
2828,"E_M_robert_de_niro.jpg","P_M_george_Wbush.jpg","FALSE","pictures/stimuli/E","pictures/stimuli/P","M","M","6","57df427c722df500017f43ae","11/02/2022, 16:13:27",0.226553218679853,"33","Female","right",1,1,2,2,FALSE,"E_M_robert_de_niro.jpg P_M_george_Wbush.jpg"
2127,"P_F_nicola_sturgeon.jpg","P_F_tehresy_may.jpg","TRUE","pictures/stimuli/P","pictures/stimuli/P","F","F","6","57df427c722df500017f43ae","11/02/2022, 16:13:27",0.226553218679853,"33","Female","right",1,1,2,2,FALSE,"P_F_nicola_sturgeon.jpg P_F_tehresy_may.jpg"
2584,"E_F_Judi_Dench.jpg","E_F_keira_knightley.jpg","TRUE","pictures/stimuli/E","pictures/stimuli/E","F","F","6","57df427c722df500017f43ae","11/02/2022, 16:13:27",0.226553218679853,"33","Female","right",1,1,3,2,FALSE,"E_F_Judi_Dench.jpg E_F_keira_knightley.jpg"
2128,"E_F_angelina_jolie.jpg","E_M_Hugh_Grant.jpg","TRUE","pictures/stimuli/E","pictures/stimuli/E","F","M","6","57df427c722df500017f43ae","11/02/2022, 16:13:27",0.226553218679853,"33","Female","right",1,1,2,2,FALSE,"E_F_angelina_jolie.jpg E_M_Hugh_Grant.jpg"
3143,"E_F_angelina_jolie.jpg","E_M_michael_caine.jpg","TRUE","pictures/stimuli/E","pictures/stimuli/E","F","M","6","57df427c722df500017f43ae","11/02/2022, 16:13:27",0.226553218679853,"33","Female","right",1,1,2,2,FALSE,"E_F_angelina_jolie.jpg E_M_michael_caine.jpg"
2564,"P_M_bill_clinton.jpg","P_M_george_Wbush.jpg","TRUE","pictures/stimuli/P","pictures/stimuli/P","M","M","6","57df427c722df500017f43ae","11/02/2022, 16:13:27",0.226553218679853,"33","Female","right",1,1,2,2,FALSE,"P_M_bill_clinton.jpg P_M_george_Wbush.jpg"
2654,"E_F_jennifer_aniston.jpg","P_M_bill_clinton.jpg","FALSE","pictures/stimuli/E","pictures/stimuli/P","F","M","6","57df427c722df500017f43ae","11/02/2022, 16:13:27",0.226553218679853,"33","Female","right",1,1,2,2,FALSE,"E_F_jennifer_aniston.jpg P_M_bill_clinton.jpg"
2800,"E_F_Kate_Winslet.jpg","P_M_Tony_Blair.jpg","FALSE","pictures/stimuli/E","pictures/stimuli/P","F","M","6","57df427c722df500017f43ae","11/02/2022, 16:13:27",0.226553218679853,"33","Female","right",1,1,3,4,FALSE,"E_F_Kate_Winslet.jpg P_M_Tony_Blair.jpg"
7685,"E_M_Hugh_Grant.jpg","P_M_george_Wbush.jpg","FALSE","pictures/stimuli/E","pictures/stimuli/P","M","M","6","57df427c722df500017f43ae","11/02/2022, 16:13:27",0.226553218679853,"33","Female","right",1,1,2,2,FALSE,"E_M_Hugh_Grant.jpg P_M_george_Wbush.jpg"
8629,"E_F_keira_knightley.jpg","P_M_donald_trump.jpg","FALSE","pictures/stimuli/E","pictures/stimuli/P","F","M","6","57df427c722df500017f43ae","11/02/2022, 16:13:27",0.226553218679853,"33","Female","right",1,1,2,2,FALSE,"E_F_keira_knightley.jpg P_M_donald_trump.jpg"
2677,"E_M_tom_hankes.jpg","P_M_george_Wbush.jpg","FALSE","pictures/stimuli/E","pictures/stimuli/P","M","M","6","57df427c722df500017f43ae","11/02/2022, 16:13:27",0.226553218679853,"33","Female","right",1,1,2,2,FALSE,"E_M_tom_hankes.jpg P_M_george_Wbush.jpg"
3581,"E_M_nicolas_cage.jpg","P_M_bill_clinton.jpg","FALSE","pictures/stimuli/E","pictures/stimuli/P","M","M","5","57df427c722df500017f43ae","11/02/2022, 16:13:27",-2.30551216656556,"33","Female","right",1,1,2,2,FALSE,"E_M_nicolas_cage.jpg P_M_bill_clinton.jpg"
2565,"E_M_Hugh_Grant.jpg","P_M_donald_trump.jpg","FALSE","pictures/stimuli/E","pictures/stimuli/P","M","M","6","57df427c722df500017f43ae","11/02/2022, 16:13:27",0.226553218679853,"33","Female","right",1,1,2,2,FALSE,"E_M_Hugh_Grant.jpg P_M_donald_trump.jpg"
2637,"E_M_Hugh_Grant.jpg","E_M_tom_hankes.jpg","TRUE","pictures/stimuli/E","pictures/stimuli/E","M","M","6","57df427c722df500017f43ae","11/02/2022, 16:13:27",0.226553218679853,"33","Female","right",1,1,2,2,FALSE,"E_M_Hugh_Grant.jpg E_M_tom_hankes.jpg"
5151,"E_F_jennifer_aniston.jpg","P_F_nicola_sturgeon.jpg","FALSE","pictures/stimuli/E","pictures/stimuli/P","F","F","6","57df427c722df500017f43ae","11/02/2022, 16:13:27",0.226553218679853,"33","Female","right",1,1,2,2,FALSE,"E_F_jennifer_aniston.jpg P_F_nicola_sturgeon.jpg"
10201,"E_F_jennifer_aniston.jpg","P_M_david_cameron.jpg","FALSE","pictures/stimuli/E","pictures/stimuli/P","F","M","4","57df427c722df500017f43ae","11/02/2022, 16:13:27",-4.83757755181098,"33","Female","right",1,1,2,3,FALSE,"E_F_jennifer_aniston.jpg P_M_david_cameron.jpg"
2547,"E_F_jennifer_aniston.jpg","P_F_hillary_clinton.jpg","FALSE","pictures/stimuli/E","pictures/stimuli/P","F","F","6","57df427c722df500017f43ae","11/02/2022, 16:13:27",0.226553218679853,"33","Female","right",1,1,2,2,FALSE,"E_F_jennifer_aniston.jpg P_F_hillary_clinton.jpg"
3253,"E_M_nicolas_cage.jpg","P_M_Tony_Blair.jpg","FALSE","pictures/stimuli/E","pictures/stimuli/P","M","M","6","57df427c722df500017f43ae","11/02/2022, 16:13:27",0.226553218679853,"33","Female","right",1,1,2,4,FALSE,"E_M_nicolas_cage.jpg P_M_Tony_Blair.jpg"
2269,"E_F_jennifer_aniston.jpg","P_F_tehresy_may.jpg","FALSE","pictures/stimuli/E","pictures/stimuli/P","F","F","6","57df427c722df500017f43ae","11/02/2022, 16:13:27",0.226553218679853,"33","Female","right",1,1,2,2,FALSE,"E_F_jennifer_aniston.jpg P_F_tehresy_may.jpg"
2085,"E_F_Kate_Winslet.jpg","E_M_robert_de_niro.jpg","TRUE","pictures/stimuli/E","pictures/stimuli/E","F","M","6","57df427c722df500017f43ae","11/02/2022, 16:13:27",0.226553218679853,"33","Female","right",1,1,3,2,FALSE,"E_F_Kate_Winslet.jpg E_M_robert_de_niro.jpg"
2112,"E_F_Judi_Dench.jpg","P_M_george_Wbush.jpg","FALSE","pictures/stimuli/E","pictures/stimuli/P","F","M","6","57df427c722df500017f43ae","11/02/2022, 16:13:27",0.226553218679853,"33","Female","right",1,1,3,2,FALSE,"E_F_Judi_Dench.jpg P_M_george_Wbush.jpg"
2128,"P_F_tehresy_may.jpg","P_M_boris_johnson.jpg","TRUE","pictures/stimuli/P","pictures/stimuli/P","F","M","6","57df427c722df500017f43ae","11/02/2022, 16:13:27",0.226553218679853,"33","Female","right",1,1,2,2,FALSE,"P_F_tehresy_may.jpg P_M_boris_johnson.jpg"
2175,"P_F_hillary_clinton.jpg","P_M_george_Wbush.jpg","TRUE","pictures/stimuli/P","pictures/stimuli/P","F","M","6","57df427c722df500017f43ae","11/02/2022, 16:13:27",0.226553218679853,"33","Female","right",1,1,2,2,FALSE,"P_F_hillary_clinton.jpg P_M_george_Wbush.jpg"
2310,"E_F_keira_knightley.jpg","P_M_boris_johnson.jpg","FALSE","pictures/stimuli/E","pictures/stimuli/P","F","M","6","57df427c722df500017f43ae","11/02/2022, 16:13:27",0.226553218679853,"33","Female","right",1,1,2,2,FALSE,"E_F_keira_knightley.jpg P_M_boris_johnson.jpg"
1853,"P_F_nicola_sturgeon.jpg","P_M_bill_clinton.jpg","TRUE","pictures/stimuli/P","pictures/stimuli/P","F","M","6","57df427c722df500017f43ae","11/02/2022, 16:13:27",0.226553218679853,"33","Female","right",1,1,2,2,FALSE,"P_F_nicola_sturgeon.jpg P_M_bill_clinton.jpg"
2653,"E_M_tom_hankes.jpg","P_F_tehresy_may.jpg","FALSE","pictures/stimuli/E","pictures/stimuli/P","M","F","6","57df427c722df500017f43ae","11/02/2022, 16:13:27",0.226553218679853,"33","Female","right",1,1,2,2,FALSE,"E_M_tom_hankes.jpg P_F_tehresy_may.jpg"
7717,"E_F_angelina_jolie.jpg","E_M_robert_de_niro.jpg","TRUE","pictures/stimuli/E","pictures/stimuli/E","F","M","6","57df427c722df500017f43ae","11/02/2022, 16:13:27",0.226553218679853,"33","Female","right",1,1,2,2,FALSE,"E_F_angelina_jolie.jpg E_M_robert_de_niro.jpg"
2965,"E_F_sandra_bullock.jpg","P_M_george_Wbush.jpg","FALSE","pictures/stimuli/E","pictures/stimuli/P","F","M","6","57df427c722df500017f43ae","11/02/2022, 16:13:27",0.226553218679853,"33","Female","right",1,1,2,2,FALSE,"E_F_sandra_bullock.jpg P_M_george_Wbush.jpg"
2310,"P_M_david_cameron.jpg","P_M_donald_trump.jpg","TRUE","pictures/stimuli/P","pictures/stimuli/P","M","M","6","57df427c722df500017f43ae","11/02/2022, 16:13:27",0.226553218679853,"33","Female","right",1,1,3,2,FALSE,"P_M_david_cameron.jpg P_M_donald_trump.jpg"
2503,"E_M_nicolas_cage.jpg","P_M_boris_johnson.jpg","FALSE","pictures/stimuli/E","pictures/stimuli/P","M","M","6","57df427c722df500017f43ae","11/02/2022, 16:13:27",0.226553218679853,"33","Female","right",1,1,2,2,FALSE,"E_M_nicolas_cage.jpg P_M_boris_johnson.jpg"
3316,"P_F_hillary_clinton.jpg","P_M_donald_trump.jpg","TRUE","pictures/stimuli/P","pictures/stimuli/P","F","M","6","57df427c722df500017f43ae","11/02/2022, 16:13:27",0.226553218679853,"33","Female","right",1,1,2,2,FALSE,"P_F_hillary_clinton.jpg P_M_donald_trump.jpg"
2275,"E_M_robert_de_niro.jpg","P_F_hillary_clinton.jpg","FALSE","pictures/stimuli/E","pictures/stimuli/P","M","F","6","57df427c722df500017f43ae","11/02/2022, 16:13:27",0.226553218679853,"33","Female","right",1,1,2,2,FALSE,"E_M_robert_de_niro.jpg P_F_hillary_clinton.jpg"
2316,"E_M_michael_caine.jpg","E_M_tom_hankes.jpg","TRUE","pictures/stimuli/E","pictures/stimuli/E","M","M","6","57df427c722df500017f43ae","11/02/2022, 16:13:27",0.226553218679853,"33","Female","right",1,1,2,2,FALSE,"E_M_michael_caine.jpg E_M_tom_hankes.jpg"
2154,"E_F_Judi_Dench.jpg","P_F_nicola_sturgeon.jpg","FALSE","pictures/stimuli/E","pictures/stimuli/P","F","F","6","57df427c722df500017f43ae","11/02/2022, 16:13:27",0.226553218679853,"33","Female","right",1,1,3,2,FALSE,"E_F_Judi_Dench.jpg P_F_nicola_sturgeon.jpg"
2539,"P_F_nicola_sturgeon.jpg","P_M_Tony_Blair.jpg","TRUE","pictures/stimuli/P","pictures/stimuli/P","F","M","6","57df427c722df500017f43ae","11/02/2022, 16:13:27",0.226553218679853,"33","Female","right",1,1,2,4,FALSE,"P_F_nicola_sturgeon.jpg P_M_Tony_Blair.jpg"
2232,"E_M_robert_de_niro.jpg","P_M_Tony_Blair.jpg","FALSE","pictures/stimuli/E","pictures/stimuli/P","M","M","6","57df427c722df500017f43ae","11/02/2022, 16:13:27",0.226553218679853,"33","Female","right",1,1,2,4,FALSE,"E_M_robert_de_niro.jpg P_M_Tony_Blair.jpg"
1932,"P_F_tehresy_may.jpg","P_M_george_Wbush.jpg","TRUE","pictures/stimuli/P","pictures/stimuli/P","F","M","6","57df427c722df500017f43ae","11/02/2022, 16:13:27",0.226553218679853,"33","Female","right",1,1,2,2,FALSE,"P_F_tehresy_may.jpg P_M_george_Wbush.jpg"
2503,"P_M_george_Wbush.jpg","P_M_Tony_Blair.jpg","TRUE","pictures/stimuli/P","pictures/stimuli/P","M","M","6","57df427c722df500017f43ae","11/02/2022, 16:13:27",0.226553218679853,"33","Female","right",1,1,2,4,FALSE,"P_M_george_Wbush.jpg P_M_Tony_Blair.jpg"
1967,"E_F_angelina_jolie.jpg","P_M_donald_trump.jpg","FALSE","pictures/stimuli/E","pictures/stimuli/P","F","M","6","57df427c722df500017f43ae","11/02/2022, 16:13:27",0.226553218679853,"33","Female","right",1,1,2,2,FALSE,"E_F_angelina_jolie.jpg P_M_donald_trump.jpg"
4144,"E_M_robert_de_niro.jpg","P_M_boris_johnson.jpg","FALSE","pictures/stimuli/E","pictures/stimuli/P","M","M","6","57df427c722df500017f43ae","11/02/2022, 16:13:27",0.226553218679853,"33","Female","right",1,1,2,2,FALSE,"E_M_robert_de_niro.jpg P_M_boris_johnson.jpg"
5904,"P_F_tehresy_may.jpg","P_M_Tony_Blair.jpg","TRUE","pictures/stimuli/P","pictures/stimuli/P","F","M","6","57df427c722df500017f43ae","11/02/2022, 16:13:27",0.226553218679853,"33","Female","right",1,1,2,4,FALSE,"P_F_tehresy_may.jpg P_M_Tony_Blair.jpg"
7066,"P_M_bill_clinton.jpg","P_M_david_cameron.jpg","TRUE","pictures/stimuli/P","pictures/stimuli/P","M","M","4","57df427c722df500017f43ae","11/02/2022, 16:13:27",-4.83757755181098,"33","Female","right",1,1,2,3,FALSE,"P_M_bill_clinton.jpg P_M_david_cameron.jpg"
2077,"E_F_Kate_Winslet.jpg","P_M_bill_clinton.jpg","FALSE","pictures/stimuli/E","pictures/stimuli/P","F","M","6","57df427c722df500017f43ae","11/02/2022, 16:13:27",0.226553218679853,"33","Female","right",1,1,3,2,FALSE,"E_F_Kate_Winslet.jpg P_M_bill_clinton.jpg"
2425,"E_F_keira_knightley.jpg","P_M_Tony_Blair.jpg","FALSE","pictures/stimuli/E","pictures/stimuli/P","F","M","6","57df427c722df500017f43ae","11/02/2022, 16:13:27",0.226553218679853,"33","Female","right",1,1,2,4,FALSE,"E_F_keira_knightley.jpg P_M_Tony_Blair.jpg"
2191,"E_F_Kate_Winslet.jpg","P_M_george_Wbush.jpg","FALSE","pictures/stimuli/E","pictures/stimuli/P","F","M","6","57df427c722df500017f43ae","11/02/2022, 16:13:27",0.226553218679853,"33","Female","right",1,1,3,2,FALSE,"E_F_Kate_Winslet.jpg P_M_george_Wbush.jpg"
2061,"P_F_hillary_clinton.jpg","P_F_nicola_sturgeon.jpg","TRUE","pictures/stimuli/P","pictures/stimuli/P","F","F","6","57df427c722df500017f43ae","11/02/2022, 16:13:27",0.226553218679853,"33","Female","right",1,1,2,2,FALSE,"P_F_hillary_clinton.jpg P_F_nicola_sturgeon.jpg"
12688,"E_F_keira_knightley.jpg","P_F_nicola_sturgeon.jpg","FALSE","pictures/stimuli/E","pictures/stimuli/P","F","F","6","57df427c722df500017f43ae","11/02/2022, 16:13:27",0.226553218679853,"33","Female","right",1,1,2,2,FALSE,"E_F_keira_knightley.jpg P_F_nicola_sturgeon.jpg"
2533,"E_F_Kate_Winslet.jpg","E_F_sandra_bullock.jpg","TRUE","pictures/stimuli/E","pictures/stimuli/E","F","F","6","57df427c722df500017f43ae","11/02/2022, 16:13:27",0.226553218679853,"33","Female","right",1,1,3,2,FALSE,"E_F_Kate_Winslet.jpg E_F_sandra_bullock.jpg"
1902,"E_F_Judi_Dench.jpg","E_M_michael_caine.jpg","TRUE","pictures/stimuli/E","pictures/stimuli/E","F","M","6","57df427c722df500017f43ae","11/02/2022, 16:13:27",0.226553218679853,"33","Female","right",1,1,3,2,FALSE,"E_F_Judi_Dench.jpg E_M_michael_caine.jpg"
1796,"E_F_sandra_bullock.jpg","E_M_tom_hankes.jpg","TRUE","pictures/stimuli/E","pictures/stimuli/E","F","M","6","57df427c722df500017f43ae","11/02/2022, 16:13:27",0.226553218679853,"33","Female","right",1,1,2,2,FALSE,"E_F_sandra_bullock.jpg E_M_tom_hankes.jpg"
4278,"E_F_keira_knightley.jpg","P_F_tehresy_may.jpg","FALSE","pictures/stimuli/E","pictures/stimuli/P","F","F","6","57df427c722df500017f43ae","11/02/2022, 16:13:27",0.226553218679853,"33","Female","right",1,1,2,2,FALSE,"E_F_keira_knightley.jpg P_F_tehresy_may.jpg"
1814,"E_F_angelina_jolie.jpg","E_F_Judi_Dench.jpg","TRUE","pictures/stimuli/E","pictures/stimuli/E","F","F","6","57df427c722df500017f43ae","11/02/2022, 16:13:27",0.226553218679853,"33","Female","right",1,1,2,3,FALSE,"E_F_angelina_jolie.jpg E_F_Judi_Dench.jpg"
7957,"E_M_tom_hankes.jpg","P_M_donald_trump.jpg","FALSE","pictures/stimuli/E","pictures/stimuli/P","M","M","6","57df427c722df500017f43ae","11/02/2022, 16:13:27",0.226553218679853,"33","Female","right",1,1,2,2,FALSE,"E_M_tom_hankes.jpg P_M_donald_trump.jpg"
1996,"E_F_angelina_jolie.jpg","E_F_Kate_Winslet.jpg","TRUE","pictures/stimuli/E","pictures/stimuli/E","F","F","6","57df427c722df500017f43ae","11/02/2022, 16:13:27",0.226553218679853,"33","Female","right",1,1,2,3,FALSE,"E_F_angelina_jolie.jpg E_F_Kate_Winslet.jpg"
2576,"E_F_keira_knightley.jpg","E_M_michael_caine.jpg","TRUE","pictures/stimuli/E","pictures/stimuli/E","F","M","6","57df427c722df500017f43ae","11/02/2022, 16:13:27",0.226553218679853,"33","Female","right",1,1,2,2,FALSE,"E_F_keira_knightley.jpg E_M_michael_caine.jpg"
2545,"E_F_angelina_jolie.jpg","P_F_tehresy_may.jpg","FALSE","pictures/stimuli/E","pictures/stimuli/P","F","F","6","57df427c722df500017f43ae","11/02/2022, 16:13:27",0.226553218679853,"33","Female","right",1,1,2,2,FALSE,"E_F_angelina_jolie.jpg P_F_tehresy_may.jpg"
1887,"P_F_nicola_sturgeon.jpg","P_M_donald_trump.jpg","TRUE","pictures/stimuli/P","pictures/stimuli/P","F","M","6","57df427c722df500017f43ae","11/02/2022, 16:13:27",0.226553218679853,"33","Female","right",1,1,2,2,FALSE,"P_F_nicola_sturgeon.jpg P_M_donald_trump.jpg"
5862,"E_M_robert_de_niro.jpg","E_M_tom_hankes.jpg","TRUE","pictures/stimuli/E","pictures/stimuli/E","M","M","6","57df427c722df500017f43ae","11/02/2022, 16:13:27",0.226553218679853,"33","Female","right",1,1,2,2,FALSE,"E_M_robert_de_niro.jpg E_M_tom_hankes.jpg"
10043,"E_M_robert_de_niro.jpg","P_M_david_cameron.jpg","FALSE","pictures/stimuli/E","pictures/stimuli/P","M","M","6","57df427c722df500017f43ae","11/02/2022, 16:13:27",0.226553218679853,"33","Female","right",1,1,2,3,FALSE,"E_M_robert_de_niro.jpg P_M_david_cameron.jpg"
4487,"E_F_jennifer_aniston.jpg","P_M_Tony_Blair.jpg","FALSE","pictures/stimuli/E","pictures/stimuli/P","F","M","6","57df427c722df500017f43ae","11/02/2022, 16:13:27",0.226553218679853,"33","Female","right",1,1,2,4,FALSE,"E_F_jennifer_aniston.jpg P_M_Tony_Blair.jpg"
2357,"E_F_angelina_jolie.jpg","P_M_david_cameron.jpg","FALSE","pictures/stimuli/E","pictures/stimuli/P","F","M","6","57df427c722df500017f43ae","11/02/2022, 16:13:27",0.226553218679853,"33","Female","right",1,1,2,3,FALSE,"E_F_angelina_jolie.jpg P_M_david_cameron.jpg"
3999,"E_F_Judi_Dench.jpg","P_M_donald_trump.jpg","FALSE","pictures/stimuli/E","pictures/stimuli/P","F","M","6","57df427c722df500017f43ae","11/02/2022, 16:13:27",0.226553218679853,"33","Female","right",1,1,3,2,FALSE,"E_F_Judi_Dench.jpg P_M_donald_trump.jpg"
1671,"E_F_angelina_jolie.jpg","E_M_tom_hankes.jpg","TRUE","pictures/stimuli/E","pictures/stimuli/E","F","M","6","57df427c722df500017f43ae","11/02/2022, 16:13:27",0.226553218679853,"33","Female","right",1,1,2,2,FALSE,"E_F_angelina_jolie.jpg E_M_tom_hankes.jpg"
2243,"E_F_Kate_Winslet.jpg","E_M_tom_hankes.jpg","TRUE","pictures/stimuli/E","pictures/stimuli/E","F","M","6","57df427c722df500017f43ae","11/02/2022, 16:13:27",0.226553218679853,"33","Female","right",1,1,3,2,FALSE,"E_F_Kate_Winslet.jpg E_M_tom_hankes.jpg"
1674,"E_F_angelina_jolie.jpg","P_M_george_Wbush.jpg","FALSE","pictures/stimuli/E","pictures/stimuli/P","F","M","6","57df427c722df500017f43ae","11/02/2022, 16:13:27",0.226553218679853,"33","Female","right",1,1,2,2,FALSE,"E_F_angelina_jolie.jpg P_M_george_Wbush.jpg"
1794,"E_F_jennifer_aniston.jpg","E_M_tom_hankes.jpg","TRUE","pictures/stimuli/E","pictures/stimuli/E","F","M","6","57df427c722df500017f43ae","11/02/2022, 16:13:27",0.226553218679853,"33","Female","right",1,1,2,2,FALSE,"E_F_jennifer_aniston.jpg E_M_tom_hankes.jpg"
2519,"P_F_tehresy_may.jpg","P_M_bill_clinton.jpg","TRUE","pictures/stimuli/P","pictures/stimuli/P","F","M","6","57df427c722df500017f43ae","11/02/2022, 16:13:27",0.226553218679853,"33","Female","right",1,1,2,2,FALSE,"P_F_tehresy_may.jpg P_M_bill_clinton.jpg"
1877,"E_M_michael_caine.jpg","P_M_Tony_Blair.jpg","FALSE","pictures/stimuli/E","pictures/stimuli/P","M","M","6","57df427c722df500017f43ae","11/02/2022, 16:13:27",0.226553218679853,"33","Female","right",1,1,2,4,FALSE,"E_M_michael_caine.jpg P_M_Tony_Blair.jpg"
3450,"E_M_michael_caine.jpg","P_M_david_cameron.jpg","FALSE","pictures/stimuli/E","pictures/stimuli/P","M","M","6","57df427c722df500017f43ae","11/02/2022, 16:13:27",0.226553218679853,"33","Female","right",1,1,2,3,FALSE,"E_M_michael_caine.jpg P_M_david_cameron.jpg"
2724,"E_M_nicolas_cage.jpg","E_M_tom_hankes.jpg","TRUE","pictures/stimuli/E","pictures/stimuli/E","M","M","6","57df427c722df500017f43ae","11/02/2022, 16:13:27",0.226553218679853,"33","Female","right",1,1,2,2,FALSE,"E_M_nicolas_cage.jpg E_M_tom_hankes.jpg"
2227,"E_F_sandra_bullock.jpg","E_M_nicolas_cage.jpg","TRUE","pictures/stimuli/E","pictures/stimuli/E","F","M","6","57df427c722df500017f43ae","11/02/2022, 16:13:27",0.226553218679853,"33","Female","right",1,1,2,2,FALSE,"E_F_sandra_bullock.jpg E_M_nicolas_cage.jpg"
2316,"E_F_angelina_jolie.jpg","P_M_bill_clinton.jpg","FALSE","pictures/stimuli/E","pictures/stimuli/P","F","M","6","57df427c722df500017f43ae","11/02/2022, 16:13:27",0.226553218679853,"33","Female","right",1,1,2,2,FALSE,"E_F_angelina_jolie.jpg P_M_bill_clinton.jpg"
2597,"E_M_tom_hankes.jpg","P_M_david_cameron.jpg","FALSE","pictures/stimuli/E","pictures/stimuli/P","M","M","6","57df427c722df500017f43ae","11/02/2022, 16:13:27",0.226553218679853,"33","Female","right",1,1,2,3,FALSE,"E_M_tom_hankes.jpg P_M_david_cameron.jpg"
1905,"E_F_jennifer_aniston.jpg","E_M_robert_de_niro.jpg","TRUE","pictures/stimuli/E","pictures/stimuli/E","F","M","6","57df427c722df500017f43ae","11/02/2022, 16:13:27",0.226553218679853,"33","Female","right",1,1,2,2,FALSE,"E_F_jennifer_aniston.jpg E_M_robert_de_niro.jpg"
4753,"E_F_jennifer_aniston.jpg","E_M_michael_caine.jpg","TRUE","pictures/stimuli/E","pictures/stimuli/E","F","M","6","57df427c722df500017f43ae","11/02/2022, 16:13:27",0.226553218679853,"33","Female","right",1,1,2,2,FALSE,"E_F_jennifer_aniston.jpg E_M_michael_caine.jpg"
2219,"E_F_angelina_jolie.jpg","P_F_nicola_sturgeon.jpg","FALSE","pictures/stimuli/E","pictures/stimuli/P","F","F","6","57df427c722df500017f43ae","11/02/2022, 16:13:27",0.226553218679853,"33","Female","right",1,1,2,2,FALSE,"E_F_angelina_jolie.jpg P_F_nicola_sturgeon.jpg"
6604,"E_F_jennifer_aniston.jpg","E_F_sandra_bullock.jpg","TRUE","pictures/stimuli/E","pictures/stimuli/E","F","F","6","57df427c722df500017f43ae","11/02/2022, 16:13:27",0.226553218679853,"33","Female","right",1,1,2,2,FALSE,"E_F_jennifer_aniston.jpg E_F_sandra_bullock.jpg"
8822,"P_M_bill_clinton.jpg","P_M_boris_johnson.jpg","TRUE","pictures/stimuli/P","pictures/stimuli/P","M","M","6","57df427c722df500017f43ae","11/02/2022, 16:13:27",0.226553218679853,"33","Female","right",1,1,2,2,FALSE,"P_M_bill_clinton.jpg P_M_boris_johnson.jpg"
1956,"E_F_Kate_Winslet.jpg","P_M_donald_trump.jpg","FALSE","pictures/stimuli/E","pictures/stimuli/P","F","M","6","57df427c722df500017f43ae","11/02/2022, 16:13:27",0.226553218679853,"33","Female","right",1,1,3,2,FALSE,"E_F_Kate_Winslet.jpg P_M_donald_trump.jpg"
8003,"E_F_jennifer_aniston.jpg","E_M_nicolas_cage.jpg","TRUE","pictures/stimuli/E","pictures/stimuli/E","F","M","5","57df427c722df500017f43ae","11/02/2022, 16:13:27",-2.30551216656556,"33","Female","right",1,1,2,2,FALSE,"E_F_jennifer_aniston.jpg E_M_nicolas_cage.jpg"
2161,"E_M_tom_hankes.jpg","P_M_Tony_Blair.jpg","FALSE","pictures/stimuli/E","pictures/stimuli/P","M","M","6","57df427c722df500017f43ae","11/02/2022, 16:13:27",0.226553218679853,"33","Female","right",1,1,2,4,FALSE,"E_M_tom_hankes.jpg P_M_Tony_Blair.jpg"
2775,"E_M_Hugh_Grant.jpg","P_M_david_cameron.jpg","FALSE","pictures/stimuli/E","pictures/stimuli/P","M","M","6","57df427c722df500017f43ae","11/02/2022, 16:13:27",0.226553218679853,"33","Female","right",1,1,2,3,FALSE,"E_M_Hugh_Grant.jpg P_M_david_cameron.jpg"
3523,"E_F_sandra_bullock.jpg","P_F_nicola_sturgeon.jpg","FALSE","pictures/stimuli/E","pictures/stimuli/P","F","F","6","57df427c722df500017f43ae","11/02/2022, 16:13:27",0.226553218679853,"33","Female","right",1,1,2,2,FALSE,"E_F_sandra_bullock.jpg P_F_nicola_sturgeon.jpg"
3822,"E_F_keira_knightley.jpg","E_M_robert_de_niro.jpg","TRUE","pictures/stimuli/E","pictures/stimuli/E","F","M","6","57df427c722df500017f43ae","11/02/2022, 16:13:27",0.226553218679853,"33","Female","right",1,1,2,2,FALSE,"E_F_keira_knightley.jpg E_M_robert_de_niro.jpg"
2827,"E_F_angelina_jolie.jpg","P_F_hillary_clinton.jpg","FALSE","pictures/stimuli/E","pictures/stimuli/P","F","F","6","57df427c722df500017f43ae","11/02/2022, 16:13:27",0.226553218679853,"33","Female","right",1,1,2,2,FALSE,"E_F_angelina_jolie.jpg P_F_hillary_clinton.jpg"
2805,"E_M_michael_caine.jpg","E_M_nicolas_cage.jpg","TRUE","pictures/stimuli/E","pictures/stimuli/E","M","M","6","57df427c722df500017f43ae","11/02/2022, 16:13:27",0.226553218679853,"33","Female","right",1,1,2,2,FALSE,"E_M_michael_caine.jpg E_M_nicolas_cage.jpg"
3224,"E_F_keira_knightley.jpg","E_F_sandra_bullock.jpg","TRUE","pictures/stimuli/E","pictures/stimuli/E","F","F","6","57df427c722df500017f43ae","11/02/2022, 16:13:27",0.226553218679853,"33","Female","right",1,1,2,2,FALSE,"E_F_keira_knightley.jpg E_F_sandra_bullock.jpg"
1745,"P_M_boris_johnson.jpg","P_M_george_Wbush.jpg","TRUE","pictures/stimuli/P","pictures/stimuli/P","M","M","6","57df427c722df500017f43ae","11/02/2022, 16:13:27",0.226553218679853,"33","Female","right",1,1,2,2,FALSE,"P_M_boris_johnson.jpg P_M_george_Wbush.jpg"
5270,"E_M_robert_de_niro.jpg","P_M_bill_clinton.jpg","FALSE","pictures/stimuli/E","pictures/stimuli/P","M","M","6","57df427c722df500017f43ae","11/02/2022, 16:13:27",0.226553218679853,"33","Female","right",1,1,2,2,FALSE,"E_M_robert_de_niro.jpg P_M_bill_clinton.jpg"
1567,"P_M_bill_clinton.jpg","P_M_donald_trump.jpg","TRUE","pictures/stimuli/P","pictures/stimuli/P","M","M","6","57df427c722df500017f43ae","11/02/2022, 16:13:27",0.226553218679853,"33","Female","right",1,1,2,2,FALSE,"P_M_bill_clinton.jpg P_M_donald_trump.jpg"
2253,"E_M_Hugh_Grant.jpg","E_M_robert_de_niro.jpg","TRUE","pictures/stimuli/E","pictures/stimuli/E","M","M","6","57df427c722df500017f43ae","11/02/2022, 16:13:27",0.226553218679853,"33","Female","right",1,1,2,2,FALSE,"E_M_Hugh_Grant.jpg E_M_robert_de_niro.jpg"
1709,"E_F_Kate_Winslet.jpg","P_M_boris_johnson.jpg","FALSE","pictures/stimuli/E","pictures/stimuli/P","F","M","6","57df427c722df500017f43ae","11/02/2022, 16:13:27",0.226553218679853,"33","Female","right",1,1,3,2,FALSE,"E_F_Kate_Winslet.jpg P_M_boris_johnson.jpg"
1723,"E_F_sandra_bullock.jpg","P_M_david_cameron.jpg","FALSE","pictures/stimuli/E","pictures/stimuli/P","F","M","6","57df427c722df500017f43ae","11/02/2022, 16:13:27",0.226553218679853,"33","Female","right",1,1,2,3,FALSE,"E_F_sandra_bullock.jpg P_M_david_cameron.jpg"
1645,"E_M_Hugh_Grant.jpg","P_M_boris_johnson.jpg","FALSE","pictures/stimuli/E","pictures/stimuli/P","M","M","6","57df427c722df500017f43ae","11/02/2022, 16:13:27",0.226553218679853,"33","Female","right",1,1,2,2,FALSE,"E_M_Hugh_Grant.jpg P_M_boris_johnson.jpg"
1556,"E_F_sandra_bullock.jpg","P_M_bill_clinton.jpg","FALSE","pictures/stimuli/E","pictures/stimuli/P","F","M","6","57df427c722df500017f43ae","11/02/2022, 16:13:27",0.226553218679853,"33","Female","right",1,1,2,2,FALSE,"E_F_sandra_bullock.jpg P_M_bill_clinton.jpg"
1596,"E_M_tom_hankes.jpg","P_M_bill_clinton.jpg","FALSE","pictures/stimuli/E","pictures/stimuli/P","M","M","6","57df427c722df500017f43ae","11/02/2022, 16:13:27",0.226553218679853,"33","Female","right",1,1,2,2,FALSE,"E_M_tom_hankes.jpg P_M_bill_clinton.jpg"
2097,"E_F_Judi_Dench.jpg","P_M_bill_clinton.jpg","FALSE","pictures/stimuli/E","pictures/stimuli/P","F","M","6","57df427c722df500017f43ae","11/02/2022, 16:13:27",0.226553218679853,"33","Female","right",1,1,3,2,FALSE,"E_F_Judi_Dench.jpg P_M_bill_clinton.jpg"
1764,"E_M_michael_caine.jpg","P_F_tehresy_may.jpg","FALSE","pictures/stimuli/E","pictures/stimuli/P","M","F","6","57df427c722df500017f43ae","11/02/2022, 16:13:27",0.226553218679853,"33","Female","right",1,1,2,2,FALSE,"E_M_michael_caine.jpg P_F_tehresy_may.jpg"
1680,"E_F_Judi_Dench.jpg","E_F_sandra_bullock.jpg","TRUE","pictures/stimuli/E","pictures/stimuli/E","F","F","6","57df427c722df500017f43ae","11/02/2022, 16:13:27",0.226553218679853,"33","Female","right",1,1,3,2,FALSE,"E_F_Judi_Dench.jpg E_F_sandra_bullock.jpg"
2269,"E_M_nicolas_cage.jpg","E_M_robert_de_niro.jpg","TRUE","pictures/stimuli/E","pictures/stimuli/E","M","M","6","57df427c722df500017f43ae","11/02/2022, 16:13:27",0.226553218679853,"33","Female","right",1,1,2,2,FALSE,"E_M_nicolas_cage.jpg E_M_robert_de_niro.jpg"
2265,"E_F_Kate_Winslet.jpg","P_M_david_cameron.jpg","FALSE","pictures/stimuli/E","pictures/stimuli/P","F","M","6","57df427c722df500017f43ae","11/02/2022, 16:13:27",0.226553218679853,"33","Female","right",1,1,3,3,FALSE,"E_F_Kate_Winslet.jpg P_M_david_cameron.jpg"
2222,"E_M_Hugh_Grant.jpg","P_F_hillary_clinton.jpg","FALSE","pictures/stimuli/E","pictures/stimuli/P","M","F","6","57df427c722df500017f43ae","11/02/2022, 16:13:27",0.226553218679853,"33","Female","right",1,1,2,2,FALSE,"E_M_Hugh_Grant.jpg P_F_hillary_clinton.jpg"
2112,"E_F_sandra_bullock.jpg","E_M_Hugh_Grant.jpg","TRUE","pictures/stimuli/E","pictures/stimuli/E","F","M","6","57df427c722df500017f43ae","11/02/2022, 16:13:27",0.226553218679853,"33","Female","right",1,1,2,2,FALSE,"E_F_sandra_bullock.jpg E_M_Hugh_Grant.jpg"
4200,"E_M_michael_caine.jpg","P_M_bill_clinton.jpg","FALSE","pictures/stimuli/E","pictures/stimuli/P","M","M","6","57df427c722df500017f43ae","11/02/2022, 16:13:27",0.226553218679853,"33","Female","right",1,1,2,2,FALSE,"E_M_michael_caine.jpg P_M_bill_clinton.jpg"
2421,"P_M_donald_trump.jpg","P_M_george_Wbush.jpg","TRUE","pictures/stimuli/P","pictures/stimuli/P","M","M","6","57df427c722df500017f43ae","11/02/2022, 16:13:27",0.226553218679853,"33","Female","right",1,1,2,2,FALSE,"P_M_donald_trump.jpg P_M_george_Wbush.jpg"
3745,"E_M_Hugh_Grant.jpg","P_M_bill_clinton.jpg","FALSE","pictures/stimuli/E","pictures/stimuli/P","M","M","5","57df427c722df500017f43ae","11/02/2022, 16:13:27",-2.30551216656556,"33","Female","right",1,1,2,2,FALSE,"E_M_Hugh_Grant.jpg P_M_bill_clinton.jpg"
2042,"E_M_michael_caine.jpg","E_M_robert_de_niro.jpg","TRUE","pictures/stimuli/E","pictures/stimuli/E","M","M","6","57df427c722df500017f43ae","11/02/2022, 16:13:27",0.226553218679853,"33","Female","right",1,1,2,2,FALSE,"E_M_michael_caine.jpg E_M_robert_de_niro.jpg"
3232,"E_F_Kate_Winslet.jpg","E_M_michael_caine.jpg","TRUE","pictures/stimuli/E","pictures/stimuli/E","F","M","6","57df427c722df500017f43ae","11/02/2022, 16:13:27",0.226553218679853,"33","Female","right",1,1,3,2,FALSE,"E_F_Kate_Winslet.jpg E_M_michael_caine.jpg"
5373,"E_F_jennifer_aniston.jpg","E_M_Hugh_Grant.jpg","TRUE","pictures/stimuli/E","pictures/stimuli/E","F","M","3","57df427c722df500017f43ae","11/02/2022, 16:13:27",-7.36964293705639,"33","Female","right",1,1,2,2,FALSE,"E_F_jennifer_aniston.jpg E_M_Hugh_Grant.jpg"
2284,"E_M_michael_caine.jpg","P_F_hillary_clinton.jpg","FALSE","pictures/stimuli/E","pictures/stimuli/P","M","F","6","57df427c722df500017f43ae","11/02/2022, 16:13:27",0.226553218679853,"33","Female","right",1,1,2,2,FALSE,"E_M_michael_caine.jpg P_F_hillary_clinton.jpg"
1670,"E_F_angelina_jolie.jpg","P_M_Tony_Blair.jpg","FALSE","pictures/stimuli/E","pictures/stimuli/P","F","M","6","57df427c722df500017f43ae","11/02/2022, 16:13:27",0.226553218679853,"33","Female","right",1,1,2,4,FALSE,"E_F_angelina_jolie.jpg P_M_Tony_Blair.jpg"
1654,"E_F_keira_knightley.jpg","P_M_george_Wbush.jpg","FALSE","pictures/stimuli/E","pictures/stimuli/P","F","M","6","57df427c722df500017f43ae","11/02/2022, 16:13:27",0.226553218679853,"33","Female","right",1,1,2,2,FALSE,"E_F_keira_knightley.jpg P_M_george_Wbush.jpg"
1811,"E_F_angelina_jolie.jpg","E_F_sandra_bullock.jpg","TRUE","pictures/stimuli/E","pictures/stimuli/E","F","F","6","57df427c722df500017f43ae","11/02/2022, 16:13:27",0.226553218679853,"33","Female","right",1,1,2,2,FALSE,"E_F_angelina_jolie.jpg E_F_sandra_bullock.jpg"
1916,"E_M_robert_de_niro.jpg","P_M_donald_trump.jpg","FALSE","pictures/stimuli/E","pictures/stimuli/P","M","M","6","57df427c722df500017f43ae","11/02/2022, 16:13:27",0.226553218679853,"33","Female","right",1,1,2,2,FALSE,"E_M_robert_de_niro.jpg P_M_donald_trump.jpg"
3867,"P_M_boris_johnson.jpg","P_M_donald_trump.jpg","TRUE","pictures/stimuli/P","pictures/stimuli/P","M","M","6","57df427c722df500017f43ae","11/02/2022, 16:13:27",0.226553218679853,"33","Female","right",1,1,2,2,FALSE,"P_M_boris_johnson.jpg P_M_donald_trump.jpg"
1661,"E_F_Judi_Dench.jpg","E_M_Hugh_Grant.jpg","TRUE","pictures/stimuli/E","pictures/stimuli/E","F","M","6","57df427c722df500017f43ae","11/02/2022, 16:13:27",0.226553218679853,"33","Female","right",1,1,3,2,FALSE,"E_F_Judi_Dench.jpg E_M_Hugh_Grant.jpg"
1500,"P_F_hillary_clinton.jpg","P_F_tehresy_may.jpg","TRUE","pictures/stimuli/P","pictures/stimuli/P","F","F","6","57df427c722df500017f43ae","11/02/2022, 16:13:27",0.226553218679853,"33","Female","right",1,1,2,2,FALSE,"P_F_hillary_clinton.jpg P_F_tehresy_may.jpg"
1974,"E_F_jennifer_aniston.jpg","E_F_Judi_Dench.jpg","TRUE","pictures/stimuli/E","pictures/stimuli/E","F","F","6","57df427c722df500017f43ae","11/02/2022, 16:13:27",0.226553218679853,"33","Female","right",1,1,2,3,FALSE,"E_F_jennifer_aniston.jpg E_F_Judi_Dench.jpg"
1620,"P_F_nicola_sturgeon.jpg","P_M_boris_johnson.jpg","TRUE","pictures/stimuli/P","pictures/stimuli/P","F","M","6","57df427c722df500017f43ae","11/02/2022, 16:13:27",0.226553218679853,"33","Female","right",1,1,2,2,FALSE,"P_F_nicola_sturgeon.jpg P_M_boris_johnson.jpg"
1673,"P_F_hillary_clinton.jpg","P_M_Tony_Blair.jpg","TRUE","pictures/stimuli/P","pictures/stimuli/P","F","M","6","57df427c722df500017f43ae","11/02/2022, 16:13:27",0.226553218679853,"33","Female","right",1,1,2,4,FALSE,"P_F_hillary_clinton.jpg P_M_Tony_Blair.jpg"
2024,"E_F_Judi_Dench.jpg","P_M_david_cameron.jpg","FALSE","pictures/stimuli/E","pictures/stimuli/P","F","M","6","57df427c722df500017f43ae","11/02/2022, 16:13:27",0.226553218679853,"33","Female","right",1,1,3,3,FALSE,"E_F_Judi_Dench.jpg P_M_david_cameron.jpg"
1879,"P_M_boris_johnson.jpg","P_M_Tony_Blair.jpg","TRUE","pictures/stimuli/P","pictures/stimuli/P","M","M","6","57df427c722df500017f43ae","11/02/2022, 16:13:27",0.226553218679853,"33","Female","right",1,1,2,4,FALSE,"P_M_boris_johnson.jpg P_M_Tony_Blair.jpg"
1705,"E_F_sandra_bullock.jpg","P_M_donald_trump.jpg","FALSE","pictures/stimuli/E","pictures/stimuli/P","F","M","6","57df427c722df500017f43ae","11/02/2022, 16:13:27",0.226553218679853,"33","Female","right",1,1,2,2,FALSE,"E_F_sandra_bullock.jpg P_M_donald_trump.jpg"
2062,"E_F_jennifer_aniston.jpg","P_M_boris_johnson.jpg","FALSE","pictures/stimuli/E","pictures/stimuli/P","F","M","6","57df427c722df500017f43ae","11/02/2022, 16:13:27",0.226553218679853,"33","Female","right",1,1,2,2,FALSE,"E_F_jennifer_aniston.jpg P_M_boris_johnson.jpg"
1841,"E_F_Kate_Winslet.jpg","E_M_Hugh_Grant.jpg","TRUE","pictures/stimuli/E","pictures/stimuli/E","F","M","6","57df427c722df500017f43ae","11/02/2022, 16:13:27",0.226553218679853,"33","Female","right",1,1,3,2,FALSE,"E_F_Kate_Winslet.jpg E_M_Hugh_Grant.jpg"
1693,"P_F_hillary_clinton.jpg","P_M_david_cameron.jpg","TRUE","pictures/stimuli/P","pictures/stimuli/P","F","M","6","57df427c722df500017f43ae","11/02/2022, 16:13:27",0.226553218679853,"33","Female","right",1,1,2,3,FALSE,"P_F_hillary_clinton.jpg P_M_david_cameron.jpg"
2015,"P_F_tehresy_may.jpg","P_M_david_cameron.jpg","TRUE","pictures/stimuli/P","pictures/stimuli/P","F","M","6","57df427c722df500017f43ae","11/02/2022, 16:13:27",0.226553218679853,"33","Female","right",1,1,2,3,FALSE,"P_F_tehresy_may.jpg P_M_david_cameron.jpg"
1639,"E_F_jennifer_aniston.jpg","P_M_donald_trump.jpg","FALSE","pictures/stimuli/E","pictures/stimuli/P","F","M","6","57df427c722df500017f43ae","11/02/2022, 16:13:27",0.226553218679853,"33","Female","right",1,1,2,2,FALSE,"E_F_jennifer_aniston.jpg P_M_donald_trump.jpg"
2905,"E_M_nicolas_cage.jpg","P_F_nicola_sturgeon.jpg","FALSE","pictures/stimuli/E","pictures/stimuli/P","M","F","6","57df427c722df500017f43ae","11/02/2022, 16:13:27",0.226553218679853,"33","Female","right",1,1,2,2,FALSE,"E_M_nicolas_cage.jpg P_F_nicola_sturgeon.jpg"
2061,"E_F_Kate_Winslet.jpg","P_F_nicola_sturgeon.jpg","FALSE","pictures/stimuli/E","pictures/stimuli/P","F","F","6","57df427c722df500017f43ae","11/02/2022, 16:13:27",0.226553218679853,"33","Female","right",1,1,3,2,FALSE,"E_F_Kate_Winslet.jpg P_F_nicola_sturgeon.jpg"
2245,"E_M_Hugh_Grant.jpg","P_M_Tony_Blair.jpg","FALSE","pictures/stimuli/E","pictures/stimuli/P","M","M","6","57df427c722df500017f43ae","11/02/2022, 16:13:27",0.226553218679853,"33","Female","right",1,1,2,4,FALSE,"E_M_Hugh_Grant.jpg P_M_Tony_Blair.jpg"
2199,"E_F_Kate_Winslet.jpg","E_F_keira_knightley.jpg","TRUE","pictures/stimuli/E","pictures/stimuli/E","F","F","6","57df427c722df500017f43ae","11/02/2022, 16:13:27",0.226553218679853,"33","Female","right",1,1,3,2,FALSE,"E_F_Kate_Winslet.jpg E_F_keira_knightley.jpg"
2185,"E_M_michael_caine.jpg","P_M_boris_johnson.jpg","FALSE","pictures/stimuli/E","pictures/stimuli/P","M","M","6","57df427c722df500017f43ae","11/02/2022, 16:13:27",0.226553218679853,"33","Female","right",1,1,2,2,FALSE,"E_M_michael_caine.jpg P_M_boris_johnson.jpg"
2161,"E_F_sandra_bullock.jpg","E_M_robert_de_niro.jpg","TRUE","pictures/stimuli/E","pictures/stimuli/E","F","M","6","57df427c722df500017f43ae","11/02/2022, 16:13:27",0.226553218679853,"33","Female","right",1,1,2,2,FALSE,"E_F_sandra_bullock.jpg E_M_robert_de_niro.jpg"
1652,"E_F_sandra_bullock.jpg","P_M_boris_johnson.jpg","FALSE","pictures/stimuli/E","pictures/stimuli/P","F","M","6","57df427c722df500017f43ae","11/02/2022, 16:13:27",0.226553218679853,"33","Female","right",1,1,2,2,FALSE,"E_F_sandra_bullock.jpg P_M_boris_johnson.jpg"
1607,"E_M_Hugh_Grant.jpg","P_F_nicola_sturgeon.jpg","FALSE","pictures/stimuli/E","pictures/stimuli/P","M","F","6","57df427c722df500017f43ae","11/02/2022, 16:13:27",0.226553218679853,"33","Female","right",1,1,2,2,FALSE,"E_M_Hugh_Grant.jpg P_F_nicola_sturgeon.jpg"
