"RT","img_1","img_2","isSameProffesion","img1proffesion","img2proffesion","img1Gender","img2Gender","keyPressed","participant","time","normlised_keyPress","age","gender","handedness","isFamiliar_img1","isFamiliar_img2","vividness_img1","vividness_img2","reject_trial","pair"
22503,"E_M_tom_hankes.jpg","P_M_george_Wbush.jpg","FALSE","pictures/stimuli/E","pictures/stimuli/P","M","M","5","580886502e30a90001da9441","04/26/2022, 13:51:54",0,"34","Female","left",1,0,0,0,TRUE,"E_M_tom_hankes.jpg P_M_george_Wbush.jpg"
4300,"E_F_keira_knightley.jpg","P_M_bill_clinton.jpg","FALSE","pictures/stimuli/E","pictures/stimuli/P","F","M","5","580886502e30a90001da9441","04/26/2022, 13:51:54",0,"34","Female","left",1,0,0,0,TRUE,"E_F_keira_knightley.jpg P_M_bill_clinton.jpg"
4639,"E_M_robert_de_niro.jpg","P_F_nicola_sturgeon.jpg","FALSE","pictures/stimuli/E","pictures/stimuli/P","M","F","5","580886502e30a90001da9441","04/26/2022, 13:51:54",0,"34","Female","left",1,0,0,0,TRUE,"E_M_robert_de_niro.jpg P_F_nicola_sturgeon.jpg"
4798,"E_F_angelina_jolie.jpg","E_M_tom_hankes.jpg","TRUE","pictures/stimuli/E","pictures/stimuli/E","F","M","3","580886502e30a90001da9441","04/26/2022, 13:51:54",-1.27644441509514,"34","Female","left",1,1,0,0,FALSE,"E_F_angelina_jolie.jpg E_M_tom_hankes.jpg"
4866,"E_F_angelina_jolie.jpg","P_M_david_cameron.jpg","FALSE","pictures/stimuli/E","pictures/stimuli/P","F","M","6","580886502e30a90001da9441","04/26/2022, 13:51:54",0.638222207547572,"34","Female","left",1,1,0,0,FALSE,"E_F_angelina_jolie.jpg P_M_david_cameron.jpg"
4022,"E_F_Judi_Dench.jpg","E_M_michael_caine.jpg","TRUE","pictures/stimuli/E","pictures/stimuli/E","F","M","1","580886502e30a90001da9441","04/26/2022, 13:51:54",-2.55288883019029,"34","Female","left",1,1,0,0,FALSE,"E_F_Judi_Dench.jpg E_M_michael_caine.jpg"
3537,"E_F_keira_knightley.jpg","P_M_donald_trump.jpg","FALSE","pictures/stimuli/E","pictures/stimuli/P","F","M","6","580886502e30a90001da9441","04/26/2022, 13:51:54",0.638222207547572,"34","Female","left",1,1,0,0,FALSE,"E_F_keira_knightley.jpg P_M_donald_trump.jpg"
2913,"E_M_Hugh_Grant.jpg","E_M_tom_hankes.jpg","TRUE","pictures/stimuli/E","pictures/stimuli/E","M","M","2","580886502e30a90001da9441","04/26/2022, 13:51:54",-1.91466662264272,"34","Female","left",1,1,0,0,FALSE,"E_M_Hugh_Grant.jpg E_M_tom_hankes.jpg"
3431,"P_F_hillary_clinton.jpg","P_M_Tony_Blair.jpg","TRUE","pictures/stimuli/P","pictures/stimuli/P","F","M","2","580886502e30a90001da9441","04/26/2022, 13:51:54",-1.91466662264272,"34","Female","left",0,1,0,0,TRUE,"P_F_hillary_clinton.jpg P_M_Tony_Blair.jpg"
3006,"E_F_Kate_Winslet.jpg","E_M_Hugh_Grant.jpg","TRUE","pictures/stimuli/E","pictures/stimuli/E","F","M","2","580886502e30a90001da9441","04/26/2022, 13:51:54",-1.91466662264272,"34","Female","left",1,1,0,0,FALSE,"E_F_Kate_Winslet.jpg E_M_Hugh_Grant.jpg"
3306,"E_F_Kate_Winslet.jpg","E_F_keira_knightley.jpg","TRUE","pictures/stimuli/E","pictures/stimuli/E","F","F","2","580886502e30a90001da9441","04/26/2022, 13:51:54",-1.91466662264272,"34","Female","left",1,1,0,0,FALSE,"E_F_Kate_Winslet.jpg E_F_keira_knightley.jpg"
4957,"E_M_tom_hankes.jpg","P_M_bill_clinton.jpg","FALSE","pictures/stimuli/E","pictures/stimuli/P","M","M","6","580886502e30a90001da9441","04/26/2022, 13:51:54",0.638222207547572,"34","Female","left",1,0,0,0,TRUE,"E_M_tom_hankes.jpg P_M_bill_clinton.jpg"
3549,"E_F_jennifer_aniston.jpg","P_M_david_cameron.jpg","FALSE","pictures/stimuli/E","pictures/stimuli/P","F","M","6","580886502e30a90001da9441","04/26/2022, 13:51:54",0.638222207547572,"34","Female","left",1,1,0,0,FALSE,"E_F_jennifer_aniston.jpg P_M_david_cameron.jpg"
2618,"E_M_robert_de_niro.jpg","P_M_david_cameron.jpg","FALSE","pictures/stimuli/E","pictures/stimuli/P","M","M","6","580886502e30a90001da9441","04/26/2022, 13:51:54",0.638222207547572,"34","Female","left",1,1,0,0,FALSE,"E_M_robert_de_niro.jpg P_M_david_cameron.jpg"
2859,"P_F_hillary_clinton.jpg","P_M_george_Wbush.jpg","TRUE","pictures/stimuli/P","pictures/stimuli/P","F","M","2","580886502e30a90001da9441","04/26/2022, 13:51:54",-1.91466662264272,"34","Female","left",0,0,0,0,TRUE,"P_F_hillary_clinton.jpg P_M_george_Wbush.jpg"
2820,"E_M_nicolas_cage.jpg","P_M_Tony_Blair.jpg","FALSE","pictures/stimuli/E","pictures/stimuli/P","M","M","6","580886502e30a90001da9441","04/26/2022, 13:51:54",0.638222207547572,"34","Female","left",1,1,0,0,FALSE,"E_M_nicolas_cage.jpg P_M_Tony_Blair.jpg"
4451,"P_M_bill_clinton.jpg","P_M_Tony_Blair.jpg","TRUE","pictures/stimuli/P","pictures/stimuli/P","M","M","1","580886502e30a90001da9441","04/26/2022, 13:51:54",-2.55288883019029,"34","Female","left",0,1,0,0,TRUE,"P_M_bill_clinton.jpg P_M_Tony_Blair.jpg"
2527,"E_F_keira_knightley.jpg","P_M_boris_johnson.jpg","FALSE","pictures/stimuli/E","pictures/stimuli/P","F","M","6","580886502e30a90001da9441","04/26/2022, 13:51:54",0.638222207547572,"34","Female","left",1,1,0,0,FALSE,"E_F_keira_knightley.jpg P_M_boris_johnson.jpg"
3680,"P_M_bill_clinton.jpg","P_M_boris_johnson.jpg","TRUE","pictures/stimuli/P","pictures/stimuli/P","M","M","2","580886502e30a90001da9441","04/26/2022, 13:51:54",-1.91466662264272,"34","Female","left",0,1,0,0,TRUE,"P_M_bill_clinton.jpg P_M_boris_johnson.jpg"
2440,"E_M_nicolas_cage.jpg","P_F_hillary_clinton.jpg","FALSE","pictures/stimuli/E","pictures/stimuli/P","M","F","6","580886502e30a90001da9441","04/26/2022, 13:51:54",0.638222207547572,"34","Female","left",1,0,0,0,TRUE,"E_M_nicolas_cage.jpg P_F_hillary_clinton.jpg"
3245,"E_F_sandra_bullock.jpg","P_M_donald_trump.jpg","FALSE","pictures/stimuli/E","pictures/stimuli/P","F","M","6","580886502e30a90001da9441","04/26/2022, 13:51:54",0.638222207547572,"34","Female","left",1,1,0,0,FALSE,"E_F_sandra_bullock.jpg P_M_donald_trump.jpg"
3680,"E_F_sandra_bullock.jpg","E_M_nicolas_cage.jpg","TRUE","pictures/stimuli/E","pictures/stimuli/E","F","M","1","580886502e30a90001da9441","04/26/2022, 13:51:54",-2.55288883019029,"34","Female","left",1,1,0,0,FALSE,"E_F_sandra_bullock.jpg E_M_nicolas_cage.jpg"
4932,"P_M_bill_clinton.jpg","P_M_donald_trump.jpg","TRUE","pictures/stimuli/P","pictures/stimuli/P","M","M","1","580886502e30a90001da9441","04/26/2022, 13:51:54",-2.55288883019029,"34","Female","left",0,1,0,0,TRUE,"P_M_bill_clinton.jpg P_M_donald_trump.jpg"
2900,"P_M_donald_trump.jpg","P_M_george_Wbush.jpg","TRUE","pictures/stimuli/P","pictures/stimuli/P","M","M","2","580886502e30a90001da9441","04/26/2022, 13:51:54",-1.91466662264272,"34","Female","left",1,0,0,0,TRUE,"P_M_donald_trump.jpg P_M_george_Wbush.jpg"
2338,"E_M_nicolas_cage.jpg","P_M_boris_johnson.jpg","FALSE","pictures/stimuli/E","pictures/stimuli/P","M","M","6","580886502e30a90001da9441","04/26/2022, 13:51:54",0.638222207547572,"34","Female","left",1,1,0,0,FALSE,"E_M_nicolas_cage.jpg P_M_boris_johnson.jpg"
3454,"P_M_george_Wbush.jpg","P_M_Tony_Blair.jpg","TRUE","pictures/stimuli/P","pictures/stimuli/P","M","M","2","580886502e30a90001da9441","04/26/2022, 13:51:54",-1.91466662264272,"34","Female","left",0,1,0,0,TRUE,"P_M_george_Wbush.jpg P_M_Tony_Blair.jpg"
4205,"E_F_sandra_bullock.jpg","E_M_tom_hankes.jpg","TRUE","pictures/stimuli/E","pictures/stimuli/E","F","M","2","580886502e30a90001da9441","04/26/2022, 13:51:54",-1.91466662264272,"34","Female","left",1,1,0,0,FALSE,"E_F_sandra_bullock.jpg E_M_tom_hankes.jpg"
2628,"E_M_robert_de_niro.jpg","P_M_Tony_Blair.jpg","FALSE","pictures/stimuli/E","pictures/stimuli/P","M","M","6","580886502e30a90001da9441","04/26/2022, 13:51:54",0.638222207547572,"34","Female","left",1,1,0,0,FALSE,"E_M_robert_de_niro.jpg P_M_Tony_Blair.jpg"
3855,"E_F_keira_knightley.jpg","E_M_robert_de_niro.jpg","TRUE","pictures/stimuli/E","pictures/stimuli/E","F","M","2","580886502e30a90001da9441","04/26/2022, 13:51:54",-1.91466662264272,"34","Female","left",1,1,0,0,FALSE,"E_F_keira_knightley.jpg E_M_robert_de_niro.jpg"
2533,"P_M_donald_trump.jpg","P_M_Tony_Blair.jpg","TRUE","pictures/stimuli/P","pictures/stimuli/P","M","M","2","580886502e30a90001da9441","04/26/2022, 13:51:54",-1.91466662264272,"34","Female","left",1,1,0,0,FALSE,"P_M_donald_trump.jpg P_M_Tony_Blair.jpg"
2787,"E_F_angelina_jolie.jpg","E_M_robert_de_niro.jpg","TRUE","pictures/stimuli/E","pictures/stimuli/E","F","M","2","580886502e30a90001da9441","04/26/2022, 13:51:54",-1.91466662264272,"34","Female","left",1,1,0,0,FALSE,"E_F_angelina_jolie.jpg E_M_robert_de_niro.jpg"
2504,"E_F_angelina_jolie.jpg","P_M_bill_clinton.jpg","FALSE","pictures/stimuli/E","pictures/stimuli/P","F","M","6","580886502e30a90001da9441","04/26/2022, 13:51:54",0.638222207547572,"34","Female","left",1,0,0,0,TRUE,"E_F_angelina_jolie.jpg P_M_bill_clinton.jpg"
3638,"P_F_hillary_clinton.jpg","P_F_nicola_sturgeon.jpg","TRUE","pictures/stimuli/P","pictures/stimuli/P","F","F","2","580886502e30a90001da9441","04/26/2022, 13:51:54",-1.91466662264272,"34","Female","left",0,0,0,0,TRUE,"P_F_hillary_clinton.jpg P_F_nicola_sturgeon.jpg"
2902,"P_F_hillary_clinton.jpg","P_M_boris_johnson.jpg","TRUE","pictures/stimuli/P","pictures/stimuli/P","F","M","2","580886502e30a90001da9441","04/26/2022, 13:51:54",-1.91466662264272,"34","Female","left",0,1,0,0,TRUE,"P_F_hillary_clinton.jpg P_M_boris_johnson.jpg"
2630,"E_F_keira_knightley.jpg","E_M_Hugh_Grant.jpg","TRUE","pictures/stimuli/E","pictures/stimuli/E","F","M","2","580886502e30a90001da9441","04/26/2022, 13:51:54",-1.91466662264272,"34","Female","left",1,1,0,0,FALSE,"E_F_keira_knightley.jpg E_M_Hugh_Grant.jpg"
2861,"E_F_keira_knightley.jpg","P_F_tehresy_may.jpg","FALSE","pictures/stimuli/E","pictures/stimuli/P","F","F","6","580886502e30a90001da9441","04/26/2022, 13:51:54",0.638222207547572,"34","Female","left",1,1,0,0,FALSE,"E_F_keira_knightley.jpg P_F_tehresy_may.jpg"
4045,"E_F_Kate_Winslet.jpg","P_M_boris_johnson.jpg","FALSE","pictures/stimuli/E","pictures/stimuli/P","F","M","6","580886502e30a90001da9441","04/26/2022, 13:51:54",0.638222207547572,"34","Female","left",1,1,0,0,FALSE,"E_F_Kate_Winslet.jpg P_M_boris_johnson.jpg"
3924,"E_F_Kate_Winslet.jpg","P_M_george_Wbush.jpg","FALSE","pictures/stimuli/E","pictures/stimuli/P","F","M","6","580886502e30a90001da9441","04/26/2022, 13:51:54",0.638222207547572,"34","Female","left",1,0,0,0,TRUE,"E_F_Kate_Winslet.jpg P_M_george_Wbush.jpg"
2334,"E_F_Judi_Dench.jpg","E_M_tom_hankes.jpg","TRUE","pictures/stimuli/E","pictures/stimuli/E","F","M","2","580886502e30a90001da9441","04/26/2022, 13:51:54",-1.91466662264272,"34","Female","left",1,1,0,0,FALSE,"E_F_Judi_Dench.jpg E_M_tom_hankes.jpg"
2920,"E_M_Hugh_Grant.jpg","P_F_hillary_clinton.jpg","FALSE","pictures/stimuli/E","pictures/stimuli/P","M","F","6","580886502e30a90001da9441","04/26/2022, 13:51:54",0.638222207547572,"34","Female","left",1,0,0,0,TRUE,"E_M_Hugh_Grant.jpg P_F_hillary_clinton.jpg"
3140,"E_F_Judi_Dench.jpg","P_M_bill_clinton.jpg","FALSE","pictures/stimuli/E","pictures/stimuli/P","F","M","6","580886502e30a90001da9441","04/26/2022, 13:51:54",0.638222207547572,"34","Female","left",1,0,0,0,TRUE,"E_F_Judi_Dench.jpg P_M_bill_clinton.jpg"
6173,"E_F_jennifer_aniston.jpg","E_M_robert_de_niro.jpg","TRUE","pictures/stimuli/E","pictures/stimuli/E","F","M","2","580886502e30a90001da9441","04/26/2022, 13:51:54",-1.91466662264272,"34","Female","left",1,1,0,0,FALSE,"E_F_jennifer_aniston.jpg E_M_robert_de_niro.jpg"
3495,"E_F_keira_knightley.jpg","E_F_sandra_bullock.jpg","TRUE","pictures/stimuli/E","pictures/stimuli/E","F","F","2","580886502e30a90001da9441","04/26/2022, 13:51:54",-1.91466662264272,"34","Female","left",1,1,0,0,FALSE,"E_F_keira_knightley.jpg E_F_sandra_bullock.jpg"
2577,"E_M_robert_de_niro.jpg","P_F_tehresy_may.jpg","FALSE","pictures/stimuli/E","pictures/stimuli/P","M","F","6","580886502e30a90001da9441","04/26/2022, 13:51:54",0.638222207547572,"34","Female","left",1,1,0,0,FALSE,"E_M_robert_de_niro.jpg P_F_tehresy_may.jpg"
4291,"P_F_nicola_sturgeon.jpg","P_F_tehresy_may.jpg","TRUE","pictures/stimuli/P","pictures/stimuli/P","F","F","2","580886502e30a90001da9441","04/26/2022, 13:51:54",-1.91466662264272,"34","Female","left",0,1,0,0,TRUE,"P_F_nicola_sturgeon.jpg P_F_tehresy_may.jpg"
4425,"E_F_Kate_Winslet.jpg","E_M_tom_hankes.jpg","TRUE","pictures/stimuli/E","pictures/stimuli/E","F","M","1","580886502e30a90001da9441","04/26/2022, 13:51:54",-2.55288883019029,"34","Female","left",1,1,0,0,FALSE,"E_F_Kate_Winslet.jpg E_M_tom_hankes.jpg"
2435,"E_F_Kate_Winslet.jpg","E_F_sandra_bullock.jpg","TRUE","pictures/stimuli/E","pictures/stimuli/E","F","F","1","580886502e30a90001da9441","04/26/2022, 13:51:54",-2.55288883019029,"34","Female","left",1,1,0,0,FALSE,"E_F_Kate_Winslet.jpg E_F_sandra_bullock.jpg"
2153,"E_M_Hugh_Grant.jpg","P_F_tehresy_may.jpg","FALSE","pictures/stimuli/E","pictures/stimuli/P","M","F","6","580886502e30a90001da9441","04/26/2022, 13:51:54",0.638222207547572,"34","Female","left",1,1,0,0,FALSE,"E_M_Hugh_Grant.jpg P_F_tehresy_may.jpg"
3475,"E_F_Judi_Dench.jpg","E_F_sandra_bullock.jpg","TRUE","pictures/stimuli/E","pictures/stimuli/E","F","F","2","580886502e30a90001da9441","04/26/2022, 13:51:54",-1.91466662264272,"34","Female","left",1,1,0,0,FALSE,"E_F_Judi_Dench.jpg E_F_sandra_bullock.jpg"
2664,"P_F_tehresy_may.jpg","P_M_Tony_Blair.jpg","TRUE","pictures/stimuli/P","pictures/stimuli/P","F","M","2","580886502e30a90001da9441","04/26/2022, 13:51:54",-1.91466662264272,"34","Female","left",1,1,0,0,FALSE,"P_F_tehresy_may.jpg P_M_Tony_Blair.jpg"
2533,"P_F_tehresy_may.jpg","P_M_donald_trump.jpg","TRUE","pictures/stimuli/P","pictures/stimuli/P","F","M","2","580886502e30a90001da9441","04/26/2022, 13:51:54",-1.91466662264272,"34","Female","left",1,1,0,0,FALSE,"P_F_tehresy_may.jpg P_M_donald_trump.jpg"
2278,"E_F_sandra_bullock.jpg","P_M_Tony_Blair.jpg","FALSE","pictures/stimuli/E","pictures/stimuli/P","F","M","6","580886502e30a90001da9441","04/26/2022, 13:51:54",0.638222207547572,"34","Female","left",1,1,0,0,FALSE,"E_F_sandra_bullock.jpg P_M_Tony_Blair.jpg"
2489,"E_M_tom_hankes.jpg","P_F_nicola_sturgeon.jpg","FALSE","pictures/stimuli/E","pictures/stimuli/P","M","F","6","580886502e30a90001da9441","04/26/2022, 13:51:54",0.638222207547572,"34","Female","left",1,0,0,0,TRUE,"E_M_tom_hankes.jpg P_F_nicola_sturgeon.jpg"
3643,"E_F_Kate_Winslet.jpg","P_M_david_cameron.jpg","FALSE","pictures/stimuli/E","pictures/stimuli/P","F","M","6","580886502e30a90001da9441","04/26/2022, 13:51:54",0.638222207547572,"34","Female","left",1,1,0,0,FALSE,"E_F_Kate_Winslet.jpg P_M_david_cameron.jpg"
2527,"E_M_michael_caine.jpg","P_F_tehresy_may.jpg","FALSE","pictures/stimuli/E","pictures/stimuli/P","M","F","6","580886502e30a90001da9441","04/26/2022, 13:51:54",0.638222207547572,"34","Female","left",1,1,0,0,FALSE,"E_M_michael_caine.jpg P_F_tehresy_may.jpg"
3828,"E_M_michael_caine.jpg","E_M_tom_hankes.jpg","TRUE","pictures/stimuli/E","pictures/stimuli/E","M","M","1","580886502e30a90001da9441","04/26/2022, 13:51:54",-2.55288883019029,"34","Female","left",1,1,0,0,FALSE,"E_M_michael_caine.jpg E_M_tom_hankes.jpg"
2405,"E_F_sandra_bullock.jpg","P_M_bill_clinton.jpg","FALSE","pictures/stimuli/E","pictures/stimuli/P","F","M","6","580886502e30a90001da9441","04/26/2022, 13:51:54",0.638222207547572,"34","Female","left",1,0,0,0,TRUE,"E_F_sandra_bullock.jpg P_M_bill_clinton.jpg"
3152,"E_M_michael_caine.jpg","P_F_nicola_sturgeon.jpg","FALSE","pictures/stimuli/E","pictures/stimuli/P","M","F","6","580886502e30a90001da9441","04/26/2022, 13:51:54",0.638222207547572,"34","Female","left",1,0,0,0,TRUE,"E_M_michael_caine.jpg P_F_nicola_sturgeon.jpg"
2689,"E_F_Judi_Dench.jpg","E_F_keira_knightley.jpg","TRUE","pictures/stimuli/E","pictures/stimuli/E","F","F","2","580886502e30a90001da9441","04/26/2022, 13:51:54",-1.91466662264272,"34","Female","left",1,1,0,0,FALSE,"E_F_Judi_Dench.jpg E_F_keira_knightley.jpg"
2298,"E_M_robert_de_niro.jpg","P_M_george_Wbush.jpg","FALSE","pictures/stimuli/E","pictures/stimuli/P","M","M","6","580886502e30a90001da9441","04/26/2022, 13:51:54",0.638222207547572,"34","Female","left",1,0,0,0,TRUE,"E_M_robert_de_niro.jpg P_M_george_Wbush.jpg"
2275,"E_M_robert_de_niro.jpg","P_M_boris_johnson.jpg","FALSE","pictures/stimuli/E","pictures/stimuli/P","M","M","6","580886502e30a90001da9441","04/26/2022, 13:51:54",0.638222207547572,"34","Female","left",1,1,0,0,FALSE,"E_M_robert_de_niro.jpg P_M_boris_johnson.jpg"
9686,"E_M_Hugh_Grant.jpg","P_M_boris_johnson.jpg","FALSE","pictures/stimuli/E","pictures/stimuli/P","M","M","6","580886502e30a90001da9441","04/26/2022, 13:51:54",0.638222207547572,"34","Female","left",1,1,0,0,FALSE,"E_M_Hugh_Grant.jpg P_M_boris_johnson.jpg"
18569,"E_F_Judi_Dench.jpg","P_M_david_cameron.jpg","FALSE","pictures/stimuli/E","pictures/stimuli/P","F","M","6","580886502e30a90001da9441","04/26/2022, 13:51:54",0.638222207547572,"34","Female","left",1,1,0,0,FALSE,"E_F_Judi_Dench.jpg P_M_david_cameron.jpg"
18327,"E_F_keira_knightley.jpg","P_M_david_cameron.jpg","FALSE","pictures/stimuli/E","pictures/stimuli/P","F","M","6","580886502e30a90001da9441","04/26/2022, 13:51:54",0.638222207547572,"34","Female","left",1,1,0,0,FALSE,"E_F_keira_knightley.jpg P_M_david_cameron.jpg"
5900,"P_F_nicola_sturgeon.jpg","P_M_donald_trump.jpg","TRUE","pictures/stimuli/P","pictures/stimuli/P","F","M","6","580886502e30a90001da9441","04/26/2022, 13:51:54",0.638222207547572,"34","Female","left",0,1,0,0,TRUE,"P_F_nicola_sturgeon.jpg P_M_donald_trump.jpg"
7007,"P_M_bill_clinton.jpg","P_M_david_cameron.jpg","TRUE","pictures/stimuli/P","pictures/stimuli/P","M","M","5","580886502e30a90001da9441","04/26/2022, 13:51:54",0,"34","Female","left",0,1,0,0,TRUE,"P_M_bill_clinton.jpg P_M_david_cameron.jpg"
6525,"E_M_michael_caine.jpg","E_M_robert_de_niro.jpg","TRUE","pictures/stimuli/E","pictures/stimuli/E","M","M","4","580886502e30a90001da9441","04/26/2022, 13:51:54",-0.638222207547572,"34","Female","left",1,1,0,0,FALSE,"E_M_michael_caine.jpg E_M_robert_de_niro.jpg"
5281,"E_M_Hugh_Grant.jpg","E_M_michael_caine.jpg","TRUE","pictures/stimuli/E","pictures/stimuli/E","M","M","5","580886502e30a90001da9441","04/26/2022, 13:51:54",0,"34","Female","left",1,1,0,0,FALSE,"E_M_Hugh_Grant.jpg E_M_michael_caine.jpg"
7294,"E_F_Judi_Dench.jpg","P_M_boris_johnson.jpg","FALSE","pictures/stimuli/E","pictures/stimuli/P","F","M","6","580886502e30a90001da9441","04/26/2022, 13:51:54",0.638222207547572,"34","Female","left",1,1,0,0,FALSE,"E_F_Judi_Dench.jpg P_M_boris_johnson.jpg"
4074,"E_M_robert_de_niro.jpg","P_F_hillary_clinton.jpg","FALSE","pictures/stimuli/E","pictures/stimuli/P","M","F","6","580886502e30a90001da9441","04/26/2022, 13:51:54",0.638222207547572,"34","Female","left",1,0,0,0,TRUE,"E_M_robert_de_niro.jpg P_F_hillary_clinton.jpg"
3549,"E_F_Kate_Winslet.jpg","P_F_hillary_clinton.jpg","FALSE","pictures/stimuli/E","pictures/stimuli/P","F","F","5","580886502e30a90001da9441","04/26/2022, 13:51:54",0,"34","Female","left",1,0,0,0,TRUE,"E_F_Kate_Winslet.jpg P_F_hillary_clinton.jpg"
3036,"E_F_keira_knightley.jpg","P_F_hillary_clinton.jpg","FALSE","pictures/stimuli/E","pictures/stimuli/P","F","F","5","580886502e30a90001da9441","04/26/2022, 13:51:54",0,"34","Female","left",1,0,0,0,TRUE,"E_F_keira_knightley.jpg P_F_hillary_clinton.jpg"
4124,"E_F_angelina_jolie.jpg","E_F_jennifer_aniston.jpg","TRUE","pictures/stimuli/E","pictures/stimuli/E","F","F","4","580886502e30a90001da9441","04/26/2022, 13:51:54",-0.638222207547572,"34","Female","left",1,1,0,0,FALSE,"E_F_angelina_jolie.jpg E_F_jennifer_aniston.jpg"
2699,"E_F_jennifer_aniston.jpg","E_M_tom_hankes.jpg","TRUE","pictures/stimuli/E","pictures/stimuli/E","F","M","5","580886502e30a90001da9441","04/26/2022, 13:51:54",0,"34","Female","left",1,1,0,0,FALSE,"E_F_jennifer_aniston.jpg E_M_tom_hankes.jpg"
2532,"E_F_sandra_bullock.jpg","E_M_Hugh_Grant.jpg","TRUE","pictures/stimuli/E","pictures/stimuli/E","F","M","5","580886502e30a90001da9441","04/26/2022, 13:51:54",0,"34","Female","left",1,1,0,0,FALSE,"E_F_sandra_bullock.jpg E_M_Hugh_Grant.jpg"
2880,"E_F_sandra_bullock.jpg","P_F_hillary_clinton.jpg","FALSE","pictures/stimuli/E","pictures/stimuli/P","F","F","5","580886502e30a90001da9441","04/26/2022, 13:51:54",0,"34","Female","left",1,0,0,0,TRUE,"E_F_sandra_bullock.jpg P_F_hillary_clinton.jpg"
2909,"E_M_robert_de_niro.jpg","P_M_bill_clinton.jpg","FALSE","pictures/stimuli/E","pictures/stimuli/P","M","M","5","580886502e30a90001da9441","04/26/2022, 13:51:54",0,"34","Female","left",1,0,0,0,TRUE,"E_M_robert_de_niro.jpg P_M_bill_clinton.jpg"
4349,"P_F_nicola_sturgeon.jpg","P_M_george_Wbush.jpg","TRUE","pictures/stimuli/P","pictures/stimuli/P","F","M","6","580886502e30a90001da9441","04/26/2022, 13:51:54",0.638222207547572,"34","Female","left",0,0,0,0,TRUE,"P_F_nicola_sturgeon.jpg P_M_george_Wbush.jpg"
2623,"P_F_tehresy_may.jpg","P_M_boris_johnson.jpg","TRUE","pictures/stimuli/P","pictures/stimuli/P","F","M","6","580886502e30a90001da9441","04/26/2022, 13:51:54",0.638222207547572,"34","Female","left",1,1,0,0,FALSE,"P_F_tehresy_may.jpg P_M_boris_johnson.jpg"
2690,"E_F_angelina_jolie.jpg","P_M_george_Wbush.jpg","FALSE","pictures/stimuli/E","pictures/stimuli/P","F","M","6","580886502e30a90001da9441","04/26/2022, 13:51:54",0.638222207547572,"34","Female","left",1,0,0,0,TRUE,"E_F_angelina_jolie.jpg P_M_george_Wbush.jpg"
6222,"E_F_keira_knightley.jpg","E_M_tom_hankes.jpg","TRUE","pictures/stimuli/E","pictures/stimuli/E","F","M","5","580886502e30a90001da9441","04/26/2022, 13:51:54",0,"34","Female","left",1,1,0,0,FALSE,"E_F_keira_knightley.jpg E_M_tom_hankes.jpg"
6228,"E_F_sandra_bullock.jpg","P_F_nicola_sturgeon.jpg","FALSE","pictures/stimuli/E","pictures/stimuli/P","F","F","6","580886502e30a90001da9441","04/26/2022, 13:51:54",0.638222207547572,"34","Female","left",1,0,0,0,TRUE,"E_F_sandra_bullock.jpg P_F_nicola_sturgeon.jpg"
6346,"E_F_Judi_Dench.jpg","P_M_george_Wbush.jpg","FALSE","pictures/stimuli/E","pictures/stimuli/P","F","M","5","580886502e30a90001da9441","04/26/2022, 13:51:54",0,"34","Female","left",1,0,0,0,TRUE,"E_F_Judi_Dench.jpg P_M_george_Wbush.jpg"
4456,"E_F_Kate_Winslet.jpg","E_M_robert_de_niro.jpg","TRUE","pictures/stimuli/E","pictures/stimuli/E","F","M","6","580886502e30a90001da9441","04/26/2022, 13:51:54",0.638222207547572,"34","Female","left",1,1,0,0,FALSE,"E_F_Kate_Winslet.jpg E_M_robert_de_niro.jpg"
3019,"E_F_Judi_Dench.jpg","E_M_Hugh_Grant.jpg","TRUE","pictures/stimuli/E","pictures/stimuli/E","F","M","5","580886502e30a90001da9441","04/26/2022, 13:51:54",0,"34","Female","left",1,1,0,0,FALSE,"E_F_Judi_Dench.jpg E_M_Hugh_Grant.jpg"
3546,"E_M_nicolas_cage.jpg","P_M_bill_clinton.jpg","FALSE","pictures/stimuli/E","pictures/stimuli/P","M","M","5","580886502e30a90001da9441","04/26/2022, 13:51:54",0,"34","Female","left",1,0,0,0,TRUE,"E_M_nicolas_cage.jpg P_M_bill_clinton.jpg"
3720,"E_M_Hugh_Grant.jpg","P_M_david_cameron.jpg","FALSE","pictures/stimuli/E","pictures/stimuli/P","M","M","6","580886502e30a90001da9441","04/26/2022, 13:51:54",0.638222207547572,"34","Female","left",1,1,0,0,FALSE,"E_M_Hugh_Grant.jpg P_M_david_cameron.jpg"
3803,"E_M_Hugh_Grant.jpg","P_M_bill_clinton.jpg","FALSE","pictures/stimuli/E","pictures/stimuli/P","M","M","6","580886502e30a90001da9441","04/26/2022, 13:51:54",0.638222207547572,"34","Female","left",1,0,0,0,TRUE,"E_M_Hugh_Grant.jpg P_M_bill_clinton.jpg"
9990,"P_F_nicola_sturgeon.jpg","P_M_boris_johnson.jpg","TRUE","pictures/stimuli/P","pictures/stimuli/P","F","M","4","580886502e30a90001da9441","04/26/2022, 13:51:54",-0.638222207547572,"34","Female","left",0,1,0,0,TRUE,"P_F_nicola_sturgeon.jpg P_M_boris_johnson.jpg"
32654,"E_F_keira_knightley.jpg","P_F_nicola_sturgeon.jpg","FALSE","pictures/stimuli/E","pictures/stimuli/P","F","F","5","580886502e30a90001da9441","04/26/2022, 13:51:54",0,"34","Female","left",1,0,0,0,TRUE,"E_F_keira_knightley.jpg P_F_nicola_sturgeon.jpg"
2067,"E_F_jennifer_aniston.jpg","P_M_bill_clinton.jpg","FALSE","pictures/stimuli/E","pictures/stimuli/P","F","M","6","580886502e30a90001da9441","04/26/2022, 13:51:54",0.638222207547572,"34","Female","left",1,0,0,0,TRUE,"E_F_jennifer_aniston.jpg P_M_bill_clinton.jpg"
3333,"E_M_michael_caine.jpg","P_M_boris_johnson.jpg","FALSE","pictures/stimuli/E","pictures/stimuli/P","M","M","6","580886502e30a90001da9441","04/26/2022, 13:51:54",0.638222207547572,"34","Female","left",1,1,0,0,FALSE,"E_M_michael_caine.jpg P_M_boris_johnson.jpg"
3179,"E_F_Judi_Dench.jpg","E_M_nicolas_cage.jpg","TRUE","pictures/stimuli/E","pictures/stimuli/E","F","M","6","580886502e30a90001da9441","04/26/2022, 13:51:54",0.638222207547572,"34","Female","left",1,1,0,0,FALSE,"E_F_Judi_Dench.jpg E_M_nicolas_cage.jpg"
10842,"E_M_nicolas_cage.jpg","E_M_robert_de_niro.jpg","TRUE","pictures/stimuli/E","pictures/stimuli/E","M","M","6","580886502e30a90001da9441","04/26/2022, 13:51:54",0.638222207547572,"34","Female","left",1,1,0,0,FALSE,"E_M_nicolas_cage.jpg E_M_robert_de_niro.jpg"
1802,"P_F_nicola_sturgeon.jpg","P_M_david_cameron.jpg","TRUE","pictures/stimuli/P","pictures/stimuli/P","F","M","6","580886502e30a90001da9441","04/26/2022, 13:51:54",0.638222207547572,"34","Female","left",0,1,0,0,TRUE,"P_F_nicola_sturgeon.jpg P_M_david_cameron.jpg"
1942,"E_M_tom_hankes.jpg","P_M_Tony_Blair.jpg","FALSE","pictures/stimuli/E","pictures/stimuli/P","M","M","6","580886502e30a90001da9441","04/26/2022, 13:51:54",0.638222207547572,"34","Female","left",1,1,0,0,FALSE,"E_M_tom_hankes.jpg P_M_Tony_Blair.jpg"
1686,"P_M_david_cameron.jpg","P_M_Tony_Blair.jpg","TRUE","pictures/stimuli/P","pictures/stimuli/P","M","M","6","580886502e30a90001da9441","04/26/2022, 13:51:54",0.638222207547572,"34","Female","left",1,1,0,0,FALSE,"P_M_david_cameron.jpg P_M_Tony_Blair.jpg"
6269,"P_M_david_cameron.jpg","P_M_george_Wbush.jpg","TRUE","pictures/stimuli/P","pictures/stimuli/P","M","M","5","580886502e30a90001da9441","04/26/2022, 13:51:54",0,"34","Female","left",1,0,0,0,TRUE,"P_M_david_cameron.jpg P_M_george_Wbush.jpg"
2970,"E_M_michael_caine.jpg","P_M_Tony_Blair.jpg","FALSE","pictures/stimuli/E","pictures/stimuli/P","M","M","6","580886502e30a90001da9441","04/26/2022, 13:51:54",0.638222207547572,"34","Female","left",1,1,0,0,FALSE,"E_M_michael_caine.jpg P_M_Tony_Blair.jpg"
2447,"E_F_angelina_jolie.jpg","E_M_Hugh_Grant.jpg","TRUE","pictures/stimuli/E","pictures/stimuli/E","F","M","6","580886502e30a90001da9441","04/26/2022, 13:51:54",0.638222207547572,"34","Female","left",1,1,0,0,FALSE,"E_F_angelina_jolie.jpg E_M_Hugh_Grant.jpg"
1614,"E_F_jennifer_aniston.jpg","E_M_michael_caine.jpg","TRUE","pictures/stimuli/E","pictures/stimuli/E","F","M","6","580886502e30a90001da9441","04/26/2022, 13:51:54",0.638222207547572,"34","Female","left",1,1,0,0,FALSE,"E_F_jennifer_aniston.jpg E_M_michael_caine.jpg"
2027,"E_M_michael_caine.jpg","P_M_bill_clinton.jpg","FALSE","pictures/stimuli/E","pictures/stimuli/P","M","M","6","580886502e30a90001da9441","04/26/2022, 13:51:54",0.638222207547572,"34","Female","left",1,0,0,0,TRUE,"E_M_michael_caine.jpg P_M_bill_clinton.jpg"
1724,"E_M_tom_hankes.jpg","P_M_donald_trump.jpg","FALSE","pictures/stimuli/E","pictures/stimuli/P","M","M","6","580886502e30a90001da9441","04/26/2022, 13:51:54",0.638222207547572,"34","Female","left",1,1,0,0,FALSE,"E_M_tom_hankes.jpg P_M_donald_trump.jpg"
2945,"E_F_angelina_jolie.jpg","P_F_hillary_clinton.jpg","FALSE","pictures/stimuli/E","pictures/stimuli/P","F","F","5","580886502e30a90001da9441","04/26/2022, 13:51:54",0,"34","Female","left",1,0,0,0,TRUE,"E_F_angelina_jolie.jpg P_F_hillary_clinton.jpg"
1896,"E_F_keira_knightley.jpg","P_M_Tony_Blair.jpg","FALSE","pictures/stimuli/E","pictures/stimuli/P","F","M","6","580886502e30a90001da9441","04/26/2022, 13:51:54",0.638222207547572,"34","Female","left",1,1,0,0,FALSE,"E_F_keira_knightley.jpg P_M_Tony_Blair.jpg"
2528,"E_F_keira_knightley.jpg","P_M_george_Wbush.jpg","FALSE","pictures/stimuli/E","pictures/stimuli/P","F","M","6","580886502e30a90001da9441","04/26/2022, 13:51:54",0.638222207547572,"34","Female","left",1,0,0,0,TRUE,"E_F_keira_knightley.jpg P_M_george_Wbush.jpg"
1932,"E_M_Hugh_Grant.jpg","P_F_nicola_sturgeon.jpg","FALSE","pictures/stimuli/E","pictures/stimuli/P","M","F","6","580886502e30a90001da9441","04/26/2022, 13:51:54",0.638222207547572,"34","Female","left",1,0,0,0,TRUE,"E_M_Hugh_Grant.jpg P_F_nicola_sturgeon.jpg"
7639,"E_F_Judi_Dench.jpg","P_F_tehresy_may.jpg","FALSE","pictures/stimuli/E","pictures/stimuli/P","F","F","4","580886502e30a90001da9441","04/26/2022, 13:51:54",-0.638222207547572,"34","Female","left",1,1,0,0,FALSE,"E_F_Judi_Dench.jpg P_F_tehresy_may.jpg"
2188,"E_M_nicolas_cage.jpg","P_F_nicola_sturgeon.jpg","FALSE","pictures/stimuli/E","pictures/stimuli/P","M","F","6","580886502e30a90001da9441","04/26/2022, 13:51:54",0.638222207547572,"34","Female","left",1,0,0,0,TRUE,"E_M_nicolas_cage.jpg P_F_nicola_sturgeon.jpg"
2311,"E_M_nicolas_cage.jpg","P_F_tehresy_may.jpg","FALSE","pictures/stimuli/E","pictures/stimuli/P","M","F","6","580886502e30a90001da9441","04/26/2022, 13:51:54",0.638222207547572,"34","Female","left",1,1,0,0,FALSE,"E_M_nicolas_cage.jpg P_F_tehresy_may.jpg"
2334,"P_M_david_cameron.jpg","P_M_donald_trump.jpg","TRUE","pictures/stimuli/P","pictures/stimuli/P","M","M","6","580886502e30a90001da9441","04/26/2022, 13:51:54",0.638222207547572,"34","Female","left",1,1,0,0,FALSE,"P_M_david_cameron.jpg P_M_donald_trump.jpg"
2357,"E_M_tom_hankes.jpg","P_F_tehresy_may.jpg","FALSE","pictures/stimuli/E","pictures/stimuli/P","M","F","6","580886502e30a90001da9441","04/26/2022, 13:51:54",0.638222207547572,"34","Female","left",1,1,0,0,FALSE,"E_M_tom_hankes.jpg P_F_tehresy_may.jpg"
2872,"E_F_angelina_jolie.jpg","E_F_Judi_Dench.jpg","TRUE","pictures/stimuli/E","pictures/stimuli/E","F","F","4","580886502e30a90001da9441","04/26/2022, 13:51:54",-0.638222207547572,"34","Female","left",1,1,0,0,FALSE,"E_F_angelina_jolie.jpg E_F_Judi_Dench.jpg"
2907,"E_F_jennifer_aniston.jpg","P_F_nicola_sturgeon.jpg","FALSE","pictures/stimuli/E","pictures/stimuli/P","F","F","5","580886502e30a90001da9441","04/26/2022, 13:51:54",0,"34","Female","left",1,0,0,0,TRUE,"E_F_jennifer_aniston.jpg P_F_nicola_sturgeon.jpg"
2178,"E_M_nicolas_cage.jpg","P_M_donald_trump.jpg","FALSE","pictures/stimuli/E","pictures/stimuli/P","M","M","6","580886502e30a90001da9441","04/26/2022, 13:51:54",0.638222207547572,"34","Female","left",1,1,0,0,FALSE,"E_M_nicolas_cage.jpg P_M_donald_trump.jpg"
3363,"E_M_Hugh_Grant.jpg","P_M_Tony_Blair.jpg","FALSE","pictures/stimuli/E","pictures/stimuli/P","M","M","5","580886502e30a90001da9441","04/26/2022, 13:51:54",0,"34","Female","left",1,1,0,0,FALSE,"E_M_Hugh_Grant.jpg P_M_Tony_Blair.jpg"
3192,"E_M_michael_caine.jpg","P_F_hillary_clinton.jpg","FALSE","pictures/stimuli/E","pictures/stimuli/P","M","F","6","580886502e30a90001da9441","04/26/2022, 13:51:54",0.638222207547572,"34","Female","left",1,0,0,0,TRUE,"E_M_michael_caine.jpg P_F_hillary_clinton.jpg"
2581,"P_F_hillary_clinton.jpg","P_F_tehresy_may.jpg","TRUE","pictures/stimuli/P","pictures/stimuli/P","F","F","5","580886502e30a90001da9441","04/26/2022, 13:51:54",0,"34","Female","left",0,1,0,0,TRUE,"P_F_hillary_clinton.jpg P_F_tehresy_may.jpg"
4113,"E_F_angelina_jolie.jpg","E_M_nicolas_cage.jpg","TRUE","pictures/stimuli/E","pictures/stimuli/E","F","M","5","580886502e30a90001da9441","04/26/2022, 13:51:54",0,"34","Female","left",1,1,0,0,FALSE,"E_F_angelina_jolie.jpg E_M_nicolas_cage.jpg"
2922,"E_F_angelina_jolie.jpg","E_F_Kate_Winslet.jpg","TRUE","pictures/stimuli/E","pictures/stimuli/E","F","F","4","580886502e30a90001da9441","04/26/2022, 13:51:54",-0.638222207547572,"34","Female","left",1,1,0,0,FALSE,"E_F_angelina_jolie.jpg E_F_Kate_Winslet.jpg"
2522,"E_F_sandra_bullock.jpg","E_M_robert_de_niro.jpg","TRUE","pictures/stimuli/E","pictures/stimuli/E","F","M","6","580886502e30a90001da9441","04/26/2022, 13:51:54",0.638222207547572,"34","Female","left",1,1,0,0,FALSE,"E_F_sandra_bullock.jpg E_M_robert_de_niro.jpg"
2270,"E_M_michael_caine.jpg","P_M_donald_trump.jpg","FALSE","pictures/stimuli/E","pictures/stimuli/P","M","M","6","580886502e30a90001da9441","04/26/2022, 13:51:54",0.638222207547572,"34","Female","left",1,1,0,0,FALSE,"E_M_michael_caine.jpg P_M_donald_trump.jpg"
3539,"E_F_Judi_Dench.jpg","E_F_Kate_Winslet.jpg","TRUE","pictures/stimuli/E","pictures/stimuli/E","F","F","4","580886502e30a90001da9441","04/26/2022, 13:51:54",-0.638222207547572,"34","Female","left",1,1,0,0,FALSE,"E_F_Judi_Dench.jpg E_F_Kate_Winslet.jpg"
1831,"P_F_tehresy_may.jpg","P_M_george_Wbush.jpg","TRUE","pictures/stimuli/P","pictures/stimuli/P","F","M","6","580886502e30a90001da9441","04/26/2022, 13:51:54",0.638222207547572,"34","Female","left",1,0,0,0,TRUE,"P_F_tehresy_may.jpg P_M_george_Wbush.jpg"
2360,"E_F_Kate_Winslet.jpg","P_M_Tony_Blair.jpg","FALSE","pictures/stimuli/E","pictures/stimuli/P","F","M","6","580886502e30a90001da9441","04/26/2022, 13:51:54",0.638222207547572,"34","Female","left",1,1,0,0,FALSE,"E_F_Kate_Winslet.jpg P_M_Tony_Blair.jpg"
1719,"E_F_jennifer_aniston.jpg","P_M_donald_trump.jpg","FALSE","pictures/stimuli/E","pictures/stimuli/P","F","M","6","580886502e30a90001da9441","04/26/2022, 13:51:54",0.638222207547572,"34","Female","left",1,1,0,0,FALSE,"E_F_jennifer_aniston.jpg P_M_donald_trump.jpg"
2438,"E_F_Judi_Dench.jpg","P_M_Tony_Blair.jpg","FALSE","pictures/stimuli/E","pictures/stimuli/P","F","M","6","580886502e30a90001da9441","04/26/2022, 13:51:54",0.638222207547572,"34","Female","left",1,1,0,0,FALSE,"E_F_Judi_Dench.jpg P_M_Tony_Blair.jpg"
3236,"E_F_angelina_jolie.jpg","E_F_sandra_bullock.jpg","TRUE","pictures/stimuli/E","pictures/stimuli/E","F","F","4","580886502e30a90001da9441","04/26/2022, 13:51:54",-0.638222207547572,"34","Female","left",1,1,0,0,FALSE,"E_F_angelina_jolie.jpg E_F_sandra_bullock.jpg"
4128,"P_M_boris_johnson.jpg","P_M_george_Wbush.jpg","TRUE","pictures/stimuli/P","pictures/stimuli/P","M","M","6","580886502e30a90001da9441","04/26/2022, 13:51:54",0.638222207547572,"34","Female","left",1,0,0,0,TRUE,"P_M_boris_johnson.jpg P_M_george_Wbush.jpg"
2908,"P_F_hillary_clinton.jpg","P_M_donald_trump.jpg","TRUE","pictures/stimuli/P","pictures/stimuli/P","F","M","6","580886502e30a90001da9441","04/26/2022, 13:51:54",0.638222207547572,"34","Female","left",0,1,0,0,TRUE,"P_F_hillary_clinton.jpg P_M_donald_trump.jpg"
3205,"E_M_Hugh_Grant.jpg","E_M_robert_de_niro.jpg","TRUE","pictures/stimuli/E","pictures/stimuli/E","M","M","5","580886502e30a90001da9441","04/26/2022, 13:51:54",0,"34","Female","left",1,1,0,0,FALSE,"E_M_Hugh_Grant.jpg E_M_robert_de_niro.jpg"
3303,"E_M_nicolas_cage.jpg","P_M_george_Wbush.jpg","FALSE","pictures/stimuli/E","pictures/stimuli/P","M","M","5","580886502e30a90001da9441","04/26/2022, 13:51:54",0,"34","Female","left",1,0,0,0,TRUE,"E_M_nicolas_cage.jpg P_M_george_Wbush.jpg"
2956,"P_F_nicola_sturgeon.jpg","P_M_Tony_Blair.jpg","TRUE","pictures/stimuli/P","pictures/stimuli/P","F","M","6","580886502e30a90001da9441","04/26/2022, 13:51:54",0.638222207547572,"34","Female","left",0,1,0,0,TRUE,"P_F_nicola_sturgeon.jpg P_M_Tony_Blair.jpg"
4435,"E_F_Judi_Dench.jpg","P_F_hillary_clinton.jpg","FALSE","pictures/stimuli/E","pictures/stimuli/P","F","F","5","580886502e30a90001da9441","04/26/2022, 13:51:54",0,"34","Female","left",1,0,0,0,TRUE,"E_F_Judi_Dench.jpg P_F_hillary_clinton.jpg"
3198,"E_F_keira_knightley.jpg","E_M_michael_caine.jpg","TRUE","pictures/stimuli/E","pictures/stimuli/E","F","M","6","580886502e30a90001da9441","04/26/2022, 13:51:54",0.638222207547572,"34","Female","left",1,1,0,0,FALSE,"E_F_keira_knightley.jpg E_M_michael_caine.jpg"
3051,"E_F_Kate_Winslet.jpg","P_M_donald_trump.jpg","FALSE","pictures/stimuli/E","pictures/stimuli/P","F","M","6","580886502e30a90001da9441","04/26/2022, 13:51:54",0.638222207547572,"34","Female","left",1,1,0,0,FALSE,"E_F_Kate_Winslet.jpg P_M_donald_trump.jpg"
11946,"E_M_robert_de_niro.jpg","E_M_tom_hankes.jpg","TRUE","pictures/stimuli/E","pictures/stimuli/E","M","M","5","580886502e30a90001da9441","04/26/2022, 13:51:54",0,"34","Female","left",1,1,0,0,FALSE,"E_M_robert_de_niro.jpg E_M_tom_hankes.jpg"
2453,"E_F_Kate_Winslet.jpg","E_M_nicolas_cage.jpg","TRUE","pictures/stimuli/E","pictures/stimuli/E","F","M","6","580886502e30a90001da9441","04/26/2022, 13:51:54",0.638222207547572,"34","Female","left",1,1,0,0,FALSE,"E_F_Kate_Winslet.jpg E_M_nicolas_cage.jpg"
3268,"P_M_bill_clinton.jpg","P_M_george_Wbush.jpg","TRUE","pictures/stimuli/P","pictures/stimuli/P","M","M","5","580886502e30a90001da9441","04/26/2022, 13:51:54",0,"34","Female","left",0,0,0,0,TRUE,"P_M_bill_clinton.jpg P_M_george_Wbush.jpg"
3278,"E_M_michael_caine.jpg","P_M_george_Wbush.jpg","FALSE","pictures/stimuli/E","pictures/stimuli/P","M","M","6","580886502e30a90001da9441","04/26/2022, 13:51:54",0.638222207547572,"34","Female","left",1,0,0,0,TRUE,"E_M_michael_caine.jpg P_M_george_Wbush.jpg"
3431,"E_F_jennifer_aniston.jpg","E_M_nicolas_cage.jpg","TRUE","pictures/stimuli/E","pictures/stimuli/E","F","M","6","580886502e30a90001da9441","04/26/2022, 13:51:54",0.638222207547572,"34","Female","left",1,1,0,0,FALSE,"E_F_jennifer_aniston.jpg E_M_nicolas_cage.jpg"
6004,"E_F_angelina_jolie.jpg","E_F_keira_knightley.jpg","TRUE","pictures/stimuli/E","pictures/stimuli/E","F","F","3","580886502e30a90001da9441","04/26/2022, 13:51:54",-1.27644441509514,"34","Female","left",1,1,0,0,FALSE,"E_F_angelina_jolie.jpg E_F_keira_knightley.jpg"
2914,"E_F_angelina_jolie.jpg","E_M_michael_caine.jpg","TRUE","pictures/stimuli/E","pictures/stimuli/E","F","M","6","580886502e30a90001da9441","04/26/2022, 13:51:54",0.638222207547572,"34","Female","left",1,1,0,0,FALSE,"E_F_angelina_jolie.jpg E_M_michael_caine.jpg"
2589,"E_F_jennifer_aniston.jpg","E_F_Judi_Dench.jpg","TRUE","pictures/stimuli/E","pictures/stimuli/E","F","F","4","580886502e30a90001da9441","04/26/2022, 13:51:54",-0.638222207547572,"34","Female","left",1,1,0,0,FALSE,"E_F_jennifer_aniston.jpg E_F_Judi_Dench.jpg"
2514,"E_F_Judi_Dench.jpg","P_F_nicola_sturgeon.jpg","FALSE","pictures/stimuli/E","pictures/stimuli/P","F","F","5","580886502e30a90001da9441","04/26/2022, 13:51:54",0,"34","Female","left",1,0,0,0,TRUE,"E_F_Judi_Dench.jpg P_F_nicola_sturgeon.jpg"
4046,"E_F_jennifer_aniston.jpg","P_F_tehresy_may.jpg","FALSE","pictures/stimuli/E","pictures/stimuli/P","F","F","6","580886502e30a90001da9441","04/26/2022, 13:51:54",0.638222207547572,"34","Female","left",1,1,0,0,FALSE,"E_F_jennifer_aniston.jpg P_F_tehresy_may.jpg"
2653,"E_M_michael_caine.jpg","E_M_nicolas_cage.jpg","TRUE","pictures/stimuli/E","pictures/stimuli/E","M","M","6","580886502e30a90001da9441","04/26/2022, 13:51:54",0.638222207547572,"34","Female","left",1,1,0,0,FALSE,"E_M_michael_caine.jpg E_M_nicolas_cage.jpg"
9494,"E_M_tom_hankes.jpg","P_F_hillary_clinton.jpg","FALSE","pictures/stimuli/E","pictures/stimuli/P","M","F","6","580886502e30a90001da9441","04/26/2022, 13:51:54",0.638222207547572,"34","Female","left",1,0,0,0,TRUE,"E_M_tom_hankes.jpg P_F_hillary_clinton.jpg"
3412,"E_F_keira_knightley.jpg","E_M_nicolas_cage.jpg","TRUE","pictures/stimuli/E","pictures/stimuli/E","F","M","6","580886502e30a90001da9441","04/26/2022, 13:51:54",0.638222207547572,"34","Female","left",1,1,0,0,FALSE,"E_F_keira_knightley.jpg E_M_nicolas_cage.jpg"
2575,"E_F_jennifer_aniston.jpg","P_F_hillary_clinton.jpg","FALSE","pictures/stimuli/E","pictures/stimuli/P","F","F","6","580886502e30a90001da9441","04/26/2022, 13:51:54",0.638222207547572,"34","Female","left",1,0,0,0,TRUE,"E_F_jennifer_aniston.jpg P_F_hillary_clinton.jpg"
2163,"P_F_tehresy_may.jpg","P_M_david_cameron.jpg","TRUE","pictures/stimuli/P","pictures/stimuli/P","F","M","6","580886502e30a90001da9441","04/26/2022, 13:51:54",0.638222207547572,"34","Female","left",1,1,0,0,FALSE,"P_F_tehresy_may.jpg P_M_david_cameron.jpg"
3276,"E_F_Kate_Winslet.jpg","P_F_nicola_sturgeon.jpg","FALSE","pictures/stimuli/E","pictures/stimuli/P","F","F","6","580886502e30a90001da9441","04/26/2022, 13:51:54",0.638222207547572,"34","Female","left",1,0,0,0,TRUE,"E_F_Kate_Winslet.jpg P_F_nicola_sturgeon.jpg"
4193,"E_M_michael_caine.jpg","P_M_david_cameron.jpg","FALSE","pictures/stimuli/E","pictures/stimuli/P","M","M","6","580886502e30a90001da9441","04/26/2022, 13:51:54",0.638222207547572,"34","Female","left",1,1,0,0,FALSE,"E_M_michael_caine.jpg P_M_david_cameron.jpg"
4214,"P_F_hillary_clinton.jpg","P_M_david_cameron.jpg","TRUE","pictures/stimuli/P","pictures/stimuli/P","F","M","6","580886502e30a90001da9441","04/26/2022, 13:51:54",0.638222207547572,"34","Female","left",0,1,0,0,TRUE,"P_F_hillary_clinton.jpg P_M_david_cameron.jpg"
3970,"P_M_boris_johnson.jpg","P_M_david_cameron.jpg","TRUE","pictures/stimuli/P","pictures/stimuli/P","M","M","6","580886502e30a90001da9441","04/26/2022, 13:51:54",0.638222207547572,"34","Female","left",1,1,0,0,FALSE,"P_M_boris_johnson.jpg P_M_david_cameron.jpg"
2772,"E_F_jennifer_aniston.jpg","P_M_boris_johnson.jpg","FALSE","pictures/stimuli/E","pictures/stimuli/P","F","M","6","580886502e30a90001da9441","04/26/2022, 13:51:54",0.638222207547572,"34","Female","left",1,1,0,0,FALSE,"E_F_jennifer_aniston.jpg P_M_boris_johnson.jpg"
8565,"E_F_sandra_bullock.jpg","P_M_david_cameron.jpg","FALSE","pictures/stimuli/E","pictures/stimuli/P","F","M","6","580886502e30a90001da9441","04/26/2022, 13:51:54",0.638222207547572,"34","Female","left",1,1,0,0,FALSE,"E_F_sandra_bullock.jpg P_M_david_cameron.jpg"
2031,"E_F_sandra_bullock.jpg","E_M_michael_caine.jpg","TRUE","pictures/stimuli/E","pictures/stimuli/E","F","M","6","580886502e30a90001da9441","04/26/2022, 13:51:54",0.638222207547572,"34","Female","left",1,1,0,0,FALSE,"E_F_sandra_bullock.jpg E_M_michael_caine.jpg"
5925,"P_M_boris_johnson.jpg","P_M_donald_trump.jpg","TRUE","pictures/stimuli/P","pictures/stimuli/P","M","M","2","580886502e30a90001da9441","04/26/2022, 13:51:54",-1.91466662264272,"34","Female","left",1,1,0,0,FALSE,"P_M_boris_johnson.jpg P_M_donald_trump.jpg"
2959,"E_F_angelina_jolie.jpg","P_M_Tony_Blair.jpg","FALSE","pictures/stimuli/E","pictures/stimuli/P","F","M","6","580886502e30a90001da9441","04/26/2022, 13:51:54",0.638222207547572,"34","Female","left",1,1,0,0,FALSE,"E_F_angelina_jolie.jpg P_M_Tony_Blair.jpg"
12574,"E_F_sandra_bullock.jpg","P_F_tehresy_may.jpg","FALSE","pictures/stimuli/E","pictures/stimuli/P","F","F","6","580886502e30a90001da9441","04/26/2022, 13:51:54",0.638222207547572,"34","Female","left",1,1,0,0,FALSE,"E_F_sandra_bullock.jpg P_F_tehresy_may.jpg"
2555,"E_M_Hugh_Grant.jpg","P_M_george_Wbush.jpg","FALSE","pictures/stimuli/E","pictures/stimuli/P","M","M","6","580886502e30a90001da9441","04/26/2022, 13:51:54",0.638222207547572,"34","Female","left",1,0,0,0,TRUE,"E_M_Hugh_Grant.jpg P_M_george_Wbush.jpg"
3635,"E_F_sandra_bullock.jpg","P_M_boris_johnson.jpg","FALSE","pictures/stimuli/E","pictures/stimuli/P","F","M","6","580886502e30a90001da9441","04/26/2022, 13:51:54",0.638222207547572,"34","Female","left",1,1,0,0,FALSE,"E_F_sandra_bullock.jpg P_M_boris_johnson.jpg"
5240,"P_F_hillary_clinton.jpg","P_M_bill_clinton.jpg","TRUE","pictures/stimuli/P","pictures/stimuli/P","F","M","6","580886502e30a90001da9441","04/26/2022, 13:51:54",0.638222207547572,"34","Female","left",0,0,0,0,TRUE,"P_F_hillary_clinton.jpg P_M_bill_clinton.jpg"
2893,"E_F_Kate_Winslet.jpg","E_M_michael_caine.jpg","TRUE","pictures/stimuli/E","pictures/stimuli/E","F","M","6","580886502e30a90001da9441","04/26/2022, 13:51:54",0.638222207547572,"34","Female","left",1,1,0,0,FALSE,"E_F_Kate_Winslet.jpg E_M_michael_caine.jpg"
1864,"E_M_tom_hankes.jpg","P_M_boris_johnson.jpg","FALSE","pictures/stimuli/E","pictures/stimuli/P","M","M","6","580886502e30a90001da9441","04/26/2022, 13:51:54",0.638222207547572,"34","Female","left",1,1,0,0,FALSE,"E_M_tom_hankes.jpg P_M_boris_johnson.jpg"
3416,"E_M_Hugh_Grant.jpg","E_M_nicolas_cage.jpg","TRUE","pictures/stimuli/E","pictures/stimuli/E","M","M","6","580886502e30a90001da9441","04/26/2022, 13:51:54",0.638222207547572,"34","Female","left",1,1,0,0,FALSE,"E_M_Hugh_Grant.jpg E_M_nicolas_cage.jpg"
2151,"E_F_jennifer_aniston.jpg","E_M_Hugh_Grant.jpg","TRUE","pictures/stimuli/E","pictures/stimuli/E","F","M","6","580886502e30a90001da9441","04/26/2022, 13:51:54",0.638222207547572,"34","Female","left",1,1,0,0,FALSE,"E_F_jennifer_aniston.jpg E_M_Hugh_Grant.jpg"
2844,"E_F_angelina_jolie.jpg","P_M_donald_trump.jpg","FALSE","pictures/stimuli/E","pictures/stimuli/P","F","M","6","580886502e30a90001da9441","04/26/2022, 13:51:54",0.638222207547572,"34","Female","left",1,1,0,0,FALSE,"E_F_angelina_jolie.jpg P_M_donald_trump.jpg"
2347,"E_M_nicolas_cage.jpg","P_M_david_cameron.jpg","FALSE","pictures/stimuli/E","pictures/stimuli/P","M","M","6","580886502e30a90001da9441","04/26/2022, 13:51:54",0.638222207547572,"34","Female","left",1,1,0,0,FALSE,"E_M_nicolas_cage.jpg P_M_david_cameron.jpg"
2083,"E_M_Hugh_Grant.jpg","P_M_donald_trump.jpg","FALSE","pictures/stimuli/E","pictures/stimuli/P","M","M","6","580886502e30a90001da9441","04/26/2022, 13:51:54",0.638222207547572,"34","Female","left",1,1,0,0,FALSE,"E_M_Hugh_Grant.jpg P_M_donald_trump.jpg"
1955,"E_M_tom_hankes.jpg","P_M_david_cameron.jpg","FALSE","pictures/stimuli/E","pictures/stimuli/P","M","M","6","580886502e30a90001da9441","04/26/2022, 13:51:54",0.638222207547572,"34","Female","left",1,1,0,0,FALSE,"E_M_tom_hankes.jpg P_M_david_cameron.jpg"
2066,"E_F_angelina_jolie.jpg","P_M_boris_johnson.jpg","FALSE","pictures/stimuli/E","pictures/stimuli/P","F","M","6","580886502e30a90001da9441","04/26/2022, 13:51:54",0.638222207547572,"34","Female","left",1,1,0,0,FALSE,"E_F_angelina_jolie.jpg P_M_boris_johnson.jpg"
2277,"E_F_jennifer_aniston.jpg","P_M_george_Wbush.jpg","FALSE","pictures/stimuli/E","pictures/stimuli/P","F","M","6","580886502e30a90001da9441","04/26/2022, 13:51:54",0.638222207547572,"34","Female","left",1,0,0,0,TRUE,"E_F_jennifer_aniston.jpg P_M_george_Wbush.jpg"
5651,"E_F_Kate_Winslet.jpg","P_M_bill_clinton.jpg","FALSE","pictures/stimuli/E","pictures/stimuli/P","F","M","6","580886502e30a90001da9441","04/26/2022, 13:51:54",0.638222207547572,"34","Female","left",1,0,0,0,TRUE,"E_F_Kate_Winslet.jpg P_M_bill_clinton.jpg"
3382,"E_F_sandra_bullock.jpg","P_M_george_Wbush.jpg","FALSE","pictures/stimuli/E","pictures/stimuli/P","F","M","6","580886502e30a90001da9441","04/26/2022, 13:51:54",0.638222207547572,"34","Female","left",1,0,0,0,TRUE,"E_F_sandra_bullock.jpg P_M_george_Wbush.jpg"
6448,"E_F_Judi_Dench.jpg","E_M_robert_de_niro.jpg","TRUE","pictures/stimuli/E","pictures/stimuli/E","F","M","5","580886502e30a90001da9441","04/26/2022, 13:51:54",0,"34","Female","left",1,1,0,0,FALSE,"E_F_Judi_Dench.jpg E_M_robert_de_niro.jpg"
2102,"P_F_nicola_sturgeon.jpg","P_M_bill_clinton.jpg","TRUE","pictures/stimuli/P","pictures/stimuli/P","F","M","6","580886502e30a90001da9441","04/26/2022, 13:51:54",0.638222207547572,"34","Female","left",0,0,0,0,TRUE,"P_F_nicola_sturgeon.jpg P_M_bill_clinton.jpg"
2700,"E_M_nicolas_cage.jpg","E_M_tom_hankes.jpg","TRUE","pictures/stimuli/E","pictures/stimuli/E","M","M","6","580886502e30a90001da9441","04/26/2022, 13:51:54",0.638222207547572,"34","Female","left",1,1,0,0,FALSE,"E_M_nicolas_cage.jpg E_M_tom_hankes.jpg"
2089,"E_F_angelina_jolie.jpg","P_F_nicola_sturgeon.jpg","FALSE","pictures/stimuli/E","pictures/stimuli/P","F","F","6","580886502e30a90001da9441","04/26/2022, 13:51:54",0.638222207547572,"34","Female","left",1,0,0,0,TRUE,"E_F_angelina_jolie.jpg P_F_nicola_sturgeon.jpg"
3138,"E_F_jennifer_aniston.jpg","E_F_keira_knightley.jpg","TRUE","pictures/stimuli/E","pictures/stimuli/E","F","F","4","580886502e30a90001da9441","04/26/2022, 13:51:54",-0.638222207547572,"34","Female","left",1,1,0,0,FALSE,"E_F_jennifer_aniston.jpg E_F_keira_knightley.jpg"
2486,"E_F_Kate_Winslet.jpg","P_F_tehresy_may.jpg","FALSE","pictures/stimuli/E","pictures/stimuli/P","F","F","6","580886502e30a90001da9441","04/26/2022, 13:51:54",0.638222207547572,"34","Female","left",1,1,0,0,FALSE,"E_F_Kate_Winslet.jpg P_F_tehresy_may.jpg"
2002,"E_F_jennifer_aniston.jpg","P_M_Tony_Blair.jpg","FALSE","pictures/stimuli/E","pictures/stimuli/P","F","M","6","580886502e30a90001da9441","04/26/2022, 13:51:54",0.638222207547572,"34","Female","left",1,1,0,0,FALSE,"E_F_jennifer_aniston.jpg P_M_Tony_Blair.jpg"
2948,"E_F_Judi_Dench.jpg","P_M_donald_trump.jpg","FALSE","pictures/stimuli/E","pictures/stimuli/P","F","M","6","580886502e30a90001da9441","04/26/2022, 13:51:54",0.638222207547572,"34","Female","left",1,1,0,0,FALSE,"E_F_Judi_Dench.jpg P_M_donald_trump.jpg"
5250,"E_F_jennifer_aniston.jpg","E_F_Kate_Winslet.jpg","TRUE","pictures/stimuli/E","pictures/stimuli/E","F","F","4","580886502e30a90001da9441","04/26/2022, 13:51:54",-0.638222207547572,"34","Female","left",1,1,0,0,FALSE,"E_F_jennifer_aniston.jpg E_F_Kate_Winslet.jpg"
2747,"E_F_jennifer_aniston.jpg","E_F_sandra_bullock.jpg","TRUE","pictures/stimuli/E","pictures/stimuli/E","F","F","4","580886502e30a90001da9441","04/26/2022, 13:51:54",-0.638222207547572,"34","Female","left",1,1,0,0,FALSE,"E_F_jennifer_aniston.jpg E_F_sandra_bullock.jpg"
3300,"P_F_tehresy_may.jpg","P_M_bill_clinton.jpg","TRUE","pictures/stimuli/P","pictures/stimuli/P","F","M","6","580886502e30a90001da9441","04/26/2022, 13:51:54",0.638222207547572,"34","Female","left",1,0,0,0,TRUE,"P_F_tehresy_may.jpg P_M_bill_clinton.jpg"
2542,"E_F_angelina_jolie.jpg","P_F_tehresy_may.jpg","FALSE","pictures/stimuli/E","pictures/stimuli/P","F","F","6","580886502e30a90001da9441","04/26/2022, 13:51:54",0.638222207547572,"34","Female","left",1,1,0,0,FALSE,"E_F_angelina_jolie.jpg P_F_tehresy_may.jpg"
2847,"E_M_robert_de_niro.jpg","P_M_donald_trump.jpg","FALSE","pictures/stimuli/E","pictures/stimuli/P","M","M","6","580886502e30a90001da9441","04/26/2022, 13:51:54",0.638222207547572,"34","Female","left",1,1,0,0,FALSE,"E_M_robert_de_niro.jpg P_M_donald_trump.jpg"
2116,"P_M_boris_johnson.jpg","P_M_Tony_Blair.jpg","TRUE","pictures/stimuli/P","pictures/stimuli/P","M","M","6","580886502e30a90001da9441","04/26/2022, 13:51:54",0.638222207547572,"34","Female","left",1,1,0,0,FALSE,"P_M_boris_johnson.jpg P_M_Tony_Blair.jpg"
12070,"E_F_jennifer_aniston.jpg","E_F_Judi_Dench.jpg","TRUE","pictures/stimuli/E","pictures/stimuli/E","F","F","5","59bd1b8b3a9ab60001119adb","04/26/2022, 14:06:12",0.539504524867914,"29","Female","right",1,1,0,0,FALSE,"E_F_jennifer_aniston.jpg E_F_Judi_Dench.jpg"
6688,"E_F_Judi_Dench.jpg","E_M_Hugh_Grant.jpg","TRUE","pictures/stimuli/E","pictures/stimuli/E","F","M","6","59bd1b8b3a9ab60001119adb","04/26/2022, 14:06:12",1.32199200368397,"29","Female","right",1,1,0,0,FALSE,"E_F_Judi_Dench.jpg E_M_Hugh_Grant.jpg"
6720,"E_M_tom_hankes.jpg","P_F_nicola_sturgeon.jpg","FALSE","pictures/stimuli/E","pictures/stimuli/P","M","F","6","59bd1b8b3a9ab60001119adb","04/26/2022, 14:06:12",1.32199200368397,"29","Female","right",1,1,0,0,FALSE,"E_M_tom_hankes.jpg P_F_nicola_sturgeon.jpg"
6801,"E_F_jennifer_aniston.jpg","E_M_nicolas_cage.jpg","TRUE","pictures/stimuli/E","pictures/stimuli/E","F","M","5","59bd1b8b3a9ab60001119adb","04/26/2022, 14:06:12",0.539504524867914,"29","Female","right",1,1,0,0,FALSE,"E_F_jennifer_aniston.jpg E_M_nicolas_cage.jpg"
11778,"E_M_robert_de_niro.jpg","E_M_tom_hankes.jpg","TRUE","pictures/stimuli/E","pictures/stimuli/E","M","M","3","59bd1b8b3a9ab60001119adb","04/26/2022, 14:06:12",-1.0254704327642,"29","Female","right",1,1,0,0,FALSE,"E_M_robert_de_niro.jpg E_M_tom_hankes.jpg"
8240,"E_M_Hugh_Grant.jpg","E_M_robert_de_niro.jpg","TRUE","pictures/stimuli/E","pictures/stimuli/E","M","M","4","59bd1b8b3a9ab60001119adb","04/26/2022, 14:06:12",-0.242982953948145,"29","Female","right",1,1,0,0,FALSE,"E_M_Hugh_Grant.jpg E_M_robert_de_niro.jpg"
7649,"E_F_Judi_Dench.jpg","P_M_david_cameron.jpg","FALSE","pictures/stimuli/E","pictures/stimuli/P","F","M","5","59bd1b8b3a9ab60001119adb","04/26/2022, 14:06:12",0.539504524867914,"29","Female","right",1,1,0,0,FALSE,"E_F_Judi_Dench.jpg P_M_david_cameron.jpg"
7345,"P_M_donald_trump.jpg","P_M_george_Wbush.jpg","TRUE","pictures/stimuli/P","pictures/stimuli/P","M","M","3","59bd1b8b3a9ab60001119adb","04/26/2022, 14:06:12",-1.0254704327642,"29","Female","right",1,1,0,0,FALSE,"P_M_donald_trump.jpg P_M_george_Wbush.jpg"
8776,"E_F_Judi_Dench.jpg","P_M_donald_trump.jpg","FALSE","pictures/stimuli/E","pictures/stimuli/P","F","M","4","59bd1b8b3a9ab60001119adb","04/26/2022, 14:06:12",-0.242982953948145,"29","Female","right",1,1,0,0,FALSE,"E_F_Judi_Dench.jpg P_M_donald_trump.jpg"
6258,"E_M_nicolas_cage.jpg","P_M_donald_trump.jpg","FALSE","pictures/stimuli/E","pictures/stimuli/P","M","M","3","59bd1b8b3a9ab60001119adb","04/26/2022, 14:06:12",-1.0254704327642,"29","Female","right",1,1,0,0,FALSE,"E_M_nicolas_cage.jpg P_M_donald_trump.jpg"
6256,"E_M_Hugh_Grant.jpg","P_F_hillary_clinton.jpg","FALSE","pictures/stimuli/E","pictures/stimuli/P","M","F","5","59bd1b8b3a9ab60001119adb","04/26/2022, 14:06:12",0.539504524867914,"29","Female","right",1,1,0,0,FALSE,"E_M_Hugh_Grant.jpg P_F_hillary_clinton.jpg"
7891,"E_F_angelina_jolie.jpg","E_M_tom_hankes.jpg","TRUE","pictures/stimuli/E","pictures/stimuli/E","F","M","5","59bd1b8b3a9ab60001119adb","04/26/2022, 14:06:12",0.539504524867914,"29","Female","right",1,1,0,0,FALSE,"E_F_angelina_jolie.jpg E_M_tom_hankes.jpg"
5644,"E_F_sandra_bullock.jpg","P_F_nicola_sturgeon.jpg","FALSE","pictures/stimuli/E","pictures/stimuli/P","F","F","5","59bd1b8b3a9ab60001119adb","04/26/2022, 14:06:12",0.539504524867914,"29","Female","right",1,1,0,0,FALSE,"E_F_sandra_bullock.jpg P_F_nicola_sturgeon.jpg"
8979,"E_M_michael_caine.jpg","P_M_bill_clinton.jpg","FALSE","pictures/stimuli/E","pictures/stimuli/P","M","M","2","59bd1b8b3a9ab60001119adb","04/26/2022, 14:06:12",-1.80795791158026,"29","Female","right",1,1,0,0,FALSE,"E_M_michael_caine.jpg P_M_bill_clinton.jpg"
6259,"E_F_angelina_jolie.jpg","P_F_hillary_clinton.jpg","FALSE","pictures/stimuli/E","pictures/stimuli/P","F","F","3","59bd1b8b3a9ab60001119adb","04/26/2022, 14:06:12",-1.0254704327642,"29","Female","right",1,1,0,0,FALSE,"E_F_angelina_jolie.jpg P_F_hillary_clinton.jpg"
9046,"E_M_tom_hankes.jpg","P_M_david_cameron.jpg","FALSE","pictures/stimuli/E","pictures/stimuli/P","M","M","2","59bd1b8b3a9ab60001119adb","04/26/2022, 14:06:12",-1.80795791158026,"29","Female","right",1,1,0,0,FALSE,"E_M_tom_hankes.jpg P_M_david_cameron.jpg"
10127,"P_F_hillary_clinton.jpg","P_M_donald_trump.jpg","TRUE","pictures/stimuli/P","pictures/stimuli/P","F","M","5","59bd1b8b3a9ab60001119adb","04/26/2022, 14:06:12",0.539504524867914,"29","Female","right",1,1,0,0,FALSE,"P_F_hillary_clinton.jpg P_M_donald_trump.jpg"
7009,"P_M_david_cameron.jpg","P_M_donald_trump.jpg","TRUE","pictures/stimuli/P","pictures/stimuli/P","M","M","3","59bd1b8b3a9ab60001119adb","04/26/2022, 14:06:12",-1.0254704327642,"29","Female","right",1,1,0,0,FALSE,"P_M_david_cameron.jpg P_M_donald_trump.jpg"
9057,"P_F_tehresy_may.jpg","P_M_boris_johnson.jpg","TRUE","pictures/stimuli/P","pictures/stimuli/P","F","M","6","59bd1b8b3a9ab60001119adb","04/26/2022, 14:06:12",1.32199200368397,"29","Female","right",1,1,0,0,FALSE,"P_F_tehresy_may.jpg P_M_boris_johnson.jpg"
10907,"E_M_robert_de_niro.jpg","P_M_bill_clinton.jpg","FALSE","pictures/stimuli/E","pictures/stimuli/P","M","M","2","59bd1b8b3a9ab60001119adb","04/26/2022, 14:06:12",-1.80795791158026,"29","Female","right",1,1,0,0,FALSE,"E_M_robert_de_niro.jpg P_M_bill_clinton.jpg"
6163,"E_M_nicolas_cage.jpg","P_M_boris_johnson.jpg","FALSE","pictures/stimuli/E","pictures/stimuli/P","M","M","4","59bd1b8b3a9ab60001119adb","04/26/2022, 14:06:12",-0.242982953948145,"29","Female","right",1,1,0,0,FALSE,"E_M_nicolas_cage.jpg P_M_boris_johnson.jpg"
6760,"P_M_boris_johnson.jpg","P_M_george_Wbush.jpg","TRUE","pictures/stimuli/P","pictures/stimuli/P","M","M","4","59bd1b8b3a9ab60001119adb","04/26/2022, 14:06:12",-0.242982953948145,"29","Female","right",1,1,0,0,FALSE,"P_M_boris_johnson.jpg P_M_george_Wbush.jpg"
9487,"E_M_nicolas_cage.jpg","P_M_george_Wbush.jpg","FALSE","pictures/stimuli/E","pictures/stimuli/P","M","M","2","59bd1b8b3a9ab60001119adb","04/26/2022, 14:06:12",-1.80795791158026,"29","Female","right",1,1,0,0,FALSE,"E_M_nicolas_cage.jpg P_M_george_Wbush.jpg"
6296,"E_M_Hugh_Grant.jpg","E_M_michael_caine.jpg","TRUE","pictures/stimuli/E","pictures/stimuli/E","M","M","3","59bd1b8b3a9ab60001119adb","04/26/2022, 14:06:12",-1.0254704327642,"29","Female","right",1,1,0,0,FALSE,"E_M_Hugh_Grant.jpg E_M_michael_caine.jpg"
10984,"E_F_Judi_Dench.jpg","E_F_sandra_bullock.jpg","TRUE","pictures/stimuli/E","pictures/stimuli/E","F","F","4","59bd1b8b3a9ab60001119adb","04/26/2022, 14:06:12",-0.242982953948145,"29","Female","right",1,1,0,0,FALSE,"E_F_Judi_Dench.jpg E_F_sandra_bullock.jpg"
6402,"E_F_keira_knightley.jpg","P_F_nicola_sturgeon.jpg","FALSE","pictures/stimuli/E","pictures/stimuli/P","F","F","5","59bd1b8b3a9ab60001119adb","04/26/2022, 14:06:12",0.539504524867914,"29","Female","right",1,1,0,0,FALSE,"E_F_keira_knightley.jpg P_F_nicola_sturgeon.jpg"
15185,"E_F_Kate_Winslet.jpg","E_M_robert_de_niro.jpg","TRUE","pictures/stimuli/E","pictures/stimuli/E","F","M","6","59bd1b8b3a9ab60001119adb","04/26/2022, 14:06:12",1.32199200368397,"29","Female","right",1,1,0,0,FALSE,"E_F_Kate_Winslet.jpg E_M_robert_de_niro.jpg"
6560,"E_F_Kate_Winslet.jpg","P_M_george_Wbush.jpg","FALSE","pictures/stimuli/E","pictures/stimuli/P","F","M","6","59bd1b8b3a9ab60001119adb","04/26/2022, 14:06:12",1.32199200368397,"29","Female","right",1,1,0,0,FALSE,"E_F_Kate_Winslet.jpg P_M_george_Wbush.jpg"
14015,"E_M_Hugh_Grant.jpg","E_M_tom_hankes.jpg","TRUE","pictures/stimuli/E","pictures/stimuli/E","M","M","2","59bd1b8b3a9ab60001119adb","04/26/2022, 14:06:12",-1.80795791158026,"29","Female","right",1,1,0,0,FALSE,"E_M_Hugh_Grant.jpg E_M_tom_hankes.jpg"
7367,"E_M_nicolas_cage.jpg","E_M_tom_hankes.jpg","TRUE","pictures/stimuli/E","pictures/stimuli/E","M","M","3","59bd1b8b3a9ab60001119adb","04/26/2022, 14:06:12",-1.0254704327642,"29","Female","right",1,1,0,0,FALSE,"E_M_nicolas_cage.jpg E_M_tom_hankes.jpg"
9334,"E_F_Kate_Winslet.jpg","P_M_Tony_Blair.jpg","FALSE","pictures/stimuli/E","pictures/stimuli/P","F","M","5","59bd1b8b3a9ab60001119adb","04/26/2022, 14:06:12",0.539504524867914,"29","Female","right",1,1,0,0,FALSE,"E_F_Kate_Winslet.jpg P_M_Tony_Blair.jpg"
5965,"E_F_keira_knightley.jpg","E_M_nicolas_cage.jpg","TRUE","pictures/stimuli/E","pictures/stimuli/E","F","M","6","59bd1b8b3a9ab60001119adb","04/26/2022, 14:06:12",1.32199200368397,"29","Female","right",1,1,0,0,FALSE,"E_F_keira_knightley.jpg E_M_nicolas_cage.jpg"
11699,"P_M_david_cameron.jpg","P_M_Tony_Blair.jpg","TRUE","pictures/stimuli/P","pictures/stimuli/P","M","M","2","59bd1b8b3a9ab60001119adb","04/26/2022, 14:06:12",-1.80795791158026,"29","Female","right",1,1,0,0,FALSE,"P_M_david_cameron.jpg P_M_Tony_Blair.jpg"
6276,"E_M_robert_de_niro.jpg","P_F_tehresy_may.jpg","FALSE","pictures/stimuli/E","pictures/stimuli/P","M","F","5","59bd1b8b3a9ab60001119adb","04/26/2022, 14:06:12",0.539504524867914,"29","Female","right",1,1,0,0,FALSE,"E_M_robert_de_niro.jpg P_F_tehresy_may.jpg"
6445,"E_F_angelina_jolie.jpg","P_M_boris_johnson.jpg","FALSE","pictures/stimuli/E","pictures/stimuli/P","F","M","5","59bd1b8b3a9ab60001119adb","04/26/2022, 14:06:12",0.539504524867914,"29","Female","right",1,1,0,0,FALSE,"E_F_angelina_jolie.jpg P_M_boris_johnson.jpg"
7262,"P_F_nicola_sturgeon.jpg","P_M_george_Wbush.jpg","TRUE","pictures/stimuli/P","pictures/stimuli/P","F","M","6","59bd1b8b3a9ab60001119adb","04/26/2022, 14:06:12",1.32199200368397,"29","Female","right",1,1,0,0,FALSE,"P_F_nicola_sturgeon.jpg P_M_george_Wbush.jpg"
7706,"E_M_Hugh_Grant.jpg","P_M_george_Wbush.jpg","FALSE","pictures/stimuli/E","pictures/stimuli/P","M","M","3","59bd1b8b3a9ab60001119adb","04/26/2022, 14:06:12",-1.0254704327642,"29","Female","right",1,1,0,0,FALSE,"E_M_Hugh_Grant.jpg P_M_george_Wbush.jpg"
10278,"E_F_Judi_Dench.jpg","E_M_robert_de_niro.jpg","TRUE","pictures/stimuli/E","pictures/stimuli/E","F","M","5","59bd1b8b3a9ab60001119adb","04/26/2022, 14:06:12",0.539504524867914,"29","Female","right",1,1,0,0,FALSE,"E_F_Judi_Dench.jpg E_M_robert_de_niro.jpg"
7013,"E_F_Judi_Dench.jpg","P_M_bill_clinton.jpg","FALSE","pictures/stimuli/E","pictures/stimuli/P","F","M","4","59bd1b8b3a9ab60001119adb","04/26/2022, 14:06:12",-0.242982953948145,"29","Female","right",1,1,0,0,FALSE,"E_F_Judi_Dench.jpg P_M_bill_clinton.jpg"
15924,"E_F_angelina_jolie.jpg","E_M_Hugh_Grant.jpg","TRUE","pictures/stimuli/E","pictures/stimuli/E","F","M","4","59bd1b8b3a9ab60001119adb","04/26/2022, 14:06:12",-0.242982953948145,"29","Female","right",1,1,0,0,FALSE,"E_F_angelina_jolie.jpg E_M_Hugh_Grant.jpg"
9345,"E_M_michael_caine.jpg","E_M_tom_hankes.jpg","TRUE","pictures/stimuli/E","pictures/stimuli/E","M","M","2","59bd1b8b3a9ab60001119adb","04/26/2022, 14:06:12",-1.80795791158026,"29","Female","right",1,1,0,0,FALSE,"E_M_michael_caine.jpg E_M_tom_hankes.jpg"
6407,"E_F_sandra_bullock.jpg","E_M_robert_de_niro.jpg","TRUE","pictures/stimuli/E","pictures/stimuli/E","F","M","6","59bd1b8b3a9ab60001119adb","04/26/2022, 14:06:12",1.32199200368397,"29","Female","right",1,1,0,0,FALSE,"E_F_sandra_bullock.jpg E_M_robert_de_niro.jpg"
9438,"E_F_Judi_Dench.jpg","E_M_tom_hankes.jpg","TRUE","pictures/stimuli/E","pictures/stimuli/E","F","M","5","59bd1b8b3a9ab60001119adb","04/26/2022, 14:06:12",0.539504524867914,"29","Female","right",1,1,0,0,FALSE,"E_F_Judi_Dench.jpg E_M_tom_hankes.jpg"
7856,"E_M_michael_caine.jpg","P_M_boris_johnson.jpg","FALSE","pictures/stimuli/E","pictures/stimuli/P","M","M","2","59bd1b8b3a9ab60001119adb","04/26/2022, 14:06:12",-1.80795791158026,"29","Female","right",1,1,0,0,FALSE,"E_M_michael_caine.jpg P_M_boris_johnson.jpg"
9944,"E_F_jennifer_aniston.jpg","E_F_Kate_Winslet.jpg","TRUE","pictures/stimuli/E","pictures/stimuli/E","F","F","2","59bd1b8b3a9ab60001119adb","04/26/2022, 14:06:12",-1.80795791158026,"29","Female","right",1,1,0,0,FALSE,"E_F_jennifer_aniston.jpg E_F_Kate_Winslet.jpg"
5788,"E_F_keira_knightley.jpg","E_M_robert_de_niro.jpg","TRUE","pictures/stimuli/E","pictures/stimuli/E","F","M","6","59bd1b8b3a9ab60001119adb","04/26/2022, 14:06:12",1.32199200368397,"29","Female","right",1,1,0,0,FALSE,"E_F_keira_knightley.jpg E_M_robert_de_niro.jpg"
7697,"E_F_jennifer_aniston.jpg","P_M_Tony_Blair.jpg","FALSE","pictures/stimuli/E","pictures/stimuli/P","F","M","5","59bd1b8b3a9ab60001119adb","04/26/2022, 14:06:12",0.539504524867914,"29","Female","right",1,1,0,0,FALSE,"E_F_jennifer_aniston.jpg P_M_Tony_Blair.jpg"
10743,"E_F_sandra_bullock.jpg","P_M_boris_johnson.jpg","FALSE","pictures/stimuli/E","pictures/stimuli/P","F","M","6","59bd1b8b3a9ab60001119adb","04/26/2022, 14:06:12",1.32199200368397,"29","Female","right",1,1,0,0,FALSE,"E_F_sandra_bullock.jpg P_M_boris_johnson.jpg"
11268,"E_F_jennifer_aniston.jpg","E_M_Hugh_Grant.jpg","TRUE","pictures/stimuli/E","pictures/stimuli/E","F","M","3","59bd1b8b3a9ab60001119adb","04/26/2022, 14:06:12",-1.0254704327642,"29","Female","right",1,1,0,0,FALSE,"E_F_jennifer_aniston.jpg E_M_Hugh_Grant.jpg"
4764,"P_F_tehresy_may.jpg","P_M_george_Wbush.jpg","TRUE","pictures/stimuli/P","pictures/stimuli/P","F","M","4","59bd1b8b3a9ab60001119adb","04/26/2022, 14:06:12",-0.242982953948145,"29","Female","right",1,1,0,0,FALSE,"P_F_tehresy_may.jpg P_M_george_Wbush.jpg"
9841,"P_M_bill_clinton.jpg","P_M_george_Wbush.jpg","TRUE","pictures/stimuli/P","pictures/stimuli/P","M","M","3","59bd1b8b3a9ab60001119adb","04/26/2022, 14:06:12",-1.0254704327642,"29","Female","right",1,1,0,0,FALSE,"P_M_bill_clinton.jpg P_M_george_Wbush.jpg"
6180,"P_F_nicola_sturgeon.jpg","P_M_donald_trump.jpg","TRUE","pictures/stimuli/P","pictures/stimuli/P","F","M","5","59bd1b8b3a9ab60001119adb","04/26/2022, 14:06:12",0.539504524867914,"29","Female","right",1,1,0,0,FALSE,"P_F_nicola_sturgeon.jpg P_M_donald_trump.jpg"
11903,"E_F_keira_knightley.jpg","E_M_tom_hankes.jpg","TRUE","pictures/stimuli/E","pictures/stimuli/E","F","M","6","59bd1b8b3a9ab60001119adb","04/26/2022, 14:06:12",1.32199200368397,"29","Female","right",1,1,0,0,FALSE,"E_F_keira_knightley.jpg E_M_tom_hankes.jpg"
7362,"P_M_boris_johnson.jpg","P_M_donald_trump.jpg","TRUE","pictures/stimuli/P","pictures/stimuli/P","M","M","2","59bd1b8b3a9ab60001119adb","04/26/2022, 14:06:12",-1.80795791158026,"29","Female","right",1,1,0,0,FALSE,"P_M_boris_johnson.jpg P_M_donald_trump.jpg"
5387,"E_M_robert_de_niro.jpg","P_M_Tony_Blair.jpg","FALSE","pictures/stimuli/E","pictures/stimuli/P","M","M","3","59bd1b8b3a9ab60001119adb","04/26/2022, 14:06:12",-1.0254704327642,"29","Female","right",1,1,0,0,FALSE,"E_M_robert_de_niro.jpg P_M_Tony_Blair.jpg"
6225,"E_F_Judi_Dench.jpg","P_F_nicola_sturgeon.jpg","FALSE","pictures/stimuli/E","pictures/stimuli/P","F","F","2","59bd1b8b3a9ab60001119adb","04/26/2022, 14:06:12",-1.80795791158026,"29","Female","right",1,1,0,0,FALSE,"E_F_Judi_Dench.jpg P_F_nicola_sturgeon.jpg"
8470,"E_F_sandra_bullock.jpg","E_M_nicolas_cage.jpg","TRUE","pictures/stimuli/E","pictures/stimuli/E","F","M","5","59bd1b8b3a9ab60001119adb","04/26/2022, 14:06:12",0.539504524867914,"29","Female","right",1,1,0,0,FALSE,"E_F_sandra_bullock.jpg E_M_nicolas_cage.jpg"
5122,"E_F_Kate_Winslet.jpg","P_M_boris_johnson.jpg","FALSE","pictures/stimuli/E","pictures/stimuli/P","F","M","5","59bd1b8b3a9ab60001119adb","04/26/2022, 14:06:12",0.539504524867914,"29","Female","right",1,1,0,0,FALSE,"E_F_Kate_Winslet.jpg P_M_boris_johnson.jpg"
6328,"P_F_hillary_clinton.jpg","P_M_david_cameron.jpg","TRUE","pictures/stimuli/P","pictures/stimuli/P","F","M","5","59bd1b8b3a9ab60001119adb","04/26/2022, 14:06:12",0.539504524867914,"29","Female","right",1,1,0,0,FALSE,"P_F_hillary_clinton.jpg P_M_david_cameron.jpg"
11294,"E_M_tom_hankes.jpg","P_M_bill_clinton.jpg","FALSE","pictures/stimuli/E","pictures/stimuli/P","M","M","4","59bd1b8b3a9ab60001119adb","04/26/2022, 14:06:12",-0.242982953948145,"29","Female","right",1,1,0,0,FALSE,"E_M_tom_hankes.jpg P_M_bill_clinton.jpg"
6963,"E_M_Hugh_Grant.jpg","P_M_david_cameron.jpg","FALSE","pictures/stimuli/E","pictures/stimuli/P","M","M","2","59bd1b8b3a9ab60001119adb","04/26/2022, 14:06:12",-1.80795791158026,"29","Female","right",1,1,0,0,FALSE,"E_M_Hugh_Grant.jpg P_M_david_cameron.jpg"
10013,"E_M_nicolas_cage.jpg","E_M_robert_de_niro.jpg","TRUE","pictures/stimuli/E","pictures/stimuli/E","M","M","2","59bd1b8b3a9ab60001119adb","04/26/2022, 14:06:12",-1.80795791158026,"29","Female","right",1,1,0,0,FALSE,"E_M_nicolas_cage.jpg E_M_robert_de_niro.jpg"
7800,"E_F_angelina_jolie.jpg","E_M_nicolas_cage.jpg","TRUE","pictures/stimuli/E","pictures/stimuli/E","F","M","4","59bd1b8b3a9ab60001119adb","04/26/2022, 14:06:12",-0.242982953948145,"29","Female","right",1,1,0,0,FALSE,"E_F_angelina_jolie.jpg E_M_nicolas_cage.jpg"
8311,"E_M_nicolas_cage.jpg","P_M_bill_clinton.jpg","FALSE","pictures/stimuli/E","pictures/stimuli/P","M","M","5","59bd1b8b3a9ab60001119adb","04/26/2022, 14:06:12",0.539504524867914,"29","Female","right",1,1,0,0,FALSE,"E_M_nicolas_cage.jpg P_M_bill_clinton.jpg"
6350,"E_F_keira_knightley.jpg","E_M_Hugh_Grant.jpg","TRUE","pictures/stimuli/E","pictures/stimuli/E","F","M","4","59bd1b8b3a9ab60001119adb","04/26/2022, 14:06:12",-0.242982953948145,"29","Female","right",1,1,0,0,FALSE,"E_F_keira_knightley.jpg E_M_Hugh_Grant.jpg"
8461,"P_M_david_cameron.jpg","P_M_george_Wbush.jpg","TRUE","pictures/stimuli/P","pictures/stimuli/P","M","M","4","59bd1b8b3a9ab60001119adb","04/26/2022, 14:06:12",-0.242982953948145,"29","Female","right",1,1,0,0,FALSE,"P_M_david_cameron.jpg P_M_george_Wbush.jpg"
7342,"E_M_robert_de_niro.jpg","P_F_hillary_clinton.jpg","FALSE","pictures/stimuli/E","pictures/stimuli/P","M","F","6","59bd1b8b3a9ab60001119adb","04/26/2022, 14:06:12",1.32199200368397,"29","Female","right",1,1,0,0,FALSE,"E_M_robert_de_niro.jpg P_F_hillary_clinton.jpg"
4796,"E_M_Hugh_Grant.jpg","P_F_tehresy_may.jpg","FALSE","pictures/stimuli/E","pictures/stimuli/P","M","F","6","59bd1b8b3a9ab60001119adb","04/26/2022, 14:06:12",1.32199200368397,"29","Female","right",1,1,0,0,FALSE,"E_M_Hugh_Grant.jpg P_F_tehresy_may.jpg"
6374,"E_F_Kate_Winslet.jpg","E_F_keira_knightley.jpg","TRUE","pictures/stimuli/E","pictures/stimuli/E","F","F","2","59bd1b8b3a9ab60001119adb","04/26/2022, 14:06:12",-1.80795791158026,"29","Female","right",1,1,0,0,FALSE,"E_F_Kate_Winslet.jpg E_F_keira_knightley.jpg"
12083,"E_M_tom_hankes.jpg","P_F_hillary_clinton.jpg","FALSE","pictures/stimuli/E","pictures/stimuli/P","M","F","5","59bd1b8b3a9ab60001119adb","04/26/2022, 14:06:12",0.539504524867914,"29","Female","right",1,1,0,0,FALSE,"E_M_tom_hankes.jpg P_F_hillary_clinton.jpg"
6716,"E_F_keira_knightley.jpg","P_M_Tony_Blair.jpg","FALSE","pictures/stimuli/E","pictures/stimuli/P","F","M","5","59bd1b8b3a9ab60001119adb","04/26/2022, 14:06:12",0.539504524867914,"29","Female","right",1,1,0,0,FALSE,"E_F_keira_knightley.jpg P_M_Tony_Blair.jpg"
12170,"E_F_jennifer_aniston.jpg","E_F_sandra_bullock.jpg","TRUE","pictures/stimuli/E","pictures/stimuli/E","F","F","3","59bd1b8b3a9ab60001119adb","04/26/2022, 14:06:12",-1.0254704327642,"29","Female","right",1,1,0,0,FALSE,"E_F_jennifer_aniston.jpg E_F_sandra_bullock.jpg"
7527,"E_F_sandra_bullock.jpg","P_M_george_Wbush.jpg","FALSE","pictures/stimuli/E","pictures/stimuli/P","F","M","6","59bd1b8b3a9ab60001119adb","04/26/2022, 14:06:12",1.32199200368397,"29","Female","right",1,1,0,0,FALSE,"E_F_sandra_bullock.jpg P_M_george_Wbush.jpg"
6342,"E_F_keira_knightley.jpg","P_M_bill_clinton.jpg","FALSE","pictures/stimuli/E","pictures/stimuli/P","F","M","6","59bd1b8b3a9ab60001119adb","04/26/2022, 14:06:12",1.32199200368397,"29","Female","right",1,1,0,0,FALSE,"E_F_keira_knightley.jpg P_M_bill_clinton.jpg"
6079,"E_F_Kate_Winslet.jpg","P_M_donald_trump.jpg","FALSE","pictures/stimuli/E","pictures/stimuli/P","F","M","5","59bd1b8b3a9ab60001119adb","04/26/2022, 14:06:12",0.539504524867914,"29","Female","right",1,1,0,0,FALSE,"E_F_Kate_Winslet.jpg P_M_donald_trump.jpg"
11091,"E_M_robert_de_niro.jpg","P_M_donald_trump.jpg","FALSE","pictures/stimuli/E","pictures/stimuli/P","M","M","4","59bd1b8b3a9ab60001119adb","04/26/2022, 14:06:12",-0.242982953948145,"29","Female","right",1,1,0,0,FALSE,"E_M_robert_de_niro.jpg P_M_donald_trump.jpg"
7491,"P_F_nicola_sturgeon.jpg","P_F_tehresy_may.jpg","TRUE","pictures/stimuli/P","pictures/stimuli/P","F","F","5","59bd1b8b3a9ab60001119adb","04/26/2022, 14:06:12",0.539504524867914,"29","Female","right",1,1,0,0,FALSE,"P_F_nicola_sturgeon.jpg P_F_tehresy_may.jpg"
6663,"E_F_Kate_Winslet.jpg","P_F_nicola_sturgeon.jpg","FALSE","pictures/stimuli/E","pictures/stimuli/P","F","F","4","59bd1b8b3a9ab60001119adb","04/26/2022, 14:06:12",-0.242982953948145,"29","Female","right",1,1,0,0,FALSE,"E_F_Kate_Winslet.jpg P_F_nicola_sturgeon.jpg"
7962,"E_M_michael_caine.jpg","P_M_david_cameron.jpg","FALSE","pictures/stimuli/E","pictures/stimuli/P","M","M","3","59bd1b8b3a9ab60001119adb","04/26/2022, 14:06:12",-1.0254704327642,"29","Female","right",1,1,0,0,FALSE,"E_M_michael_caine.jpg P_M_david_cameron.jpg"
6693,"P_F_nicola_sturgeon.jpg","P_M_boris_johnson.jpg","TRUE","pictures/stimuli/P","pictures/stimuli/P","F","M","6","59bd1b8b3a9ab60001119adb","04/26/2022, 14:06:12",1.32199200368397,"29","Female","right",1,1,0,0,FALSE,"P_F_nicola_sturgeon.jpg P_M_boris_johnson.jpg"
9081,"E_F_angelina_jolie.jpg","P_F_tehresy_may.jpg","FALSE","pictures/stimuli/E","pictures/stimuli/P","F","F","5","59bd1b8b3a9ab60001119adb","04/26/2022, 14:06:12",0.539504524867914,"29","Female","right",1,1,0,0,FALSE,"E_F_angelina_jolie.jpg P_F_tehresy_may.jpg"
13573,"E_M_Hugh_Grant.jpg","P_M_donald_trump.jpg","FALSE","pictures/stimuli/E","pictures/stimuli/P","M","M","5","59bd1b8b3a9ab60001119adb","04/26/2022, 14:06:12",0.539504524867914,"29","Female","right",1,1,0,0,FALSE,"E_M_Hugh_Grant.jpg P_M_donald_trump.jpg"
12437,"E_F_Judi_Dench.jpg","E_F_Kate_Winslet.jpg","TRUE","pictures/stimuli/E","pictures/stimuli/E","F","F","2","59bd1b8b3a9ab60001119adb","04/26/2022, 14:06:12",-1.80795791158026,"29","Female","right",1,1,0,0,FALSE,"E_F_Judi_Dench.jpg E_F_Kate_Winslet.jpg"
9288,"E_F_Kate_Winslet.jpg","E_M_michael_caine.jpg","TRUE","pictures/stimuli/E","pictures/stimuli/E","F","M","5","59bd1b8b3a9ab60001119adb","04/26/2022, 14:06:12",0.539504524867914,"29","Female","right",1,1,0,0,FALSE,"E_F_Kate_Winslet.jpg E_M_michael_caine.jpg"
8705,"E_F_Judi_Dench.jpg","E_M_michael_caine.jpg","TRUE","pictures/stimuli/E","pictures/stimuli/E","F","M","5","59bd1b8b3a9ab60001119adb","04/26/2022, 14:06:12",0.539504524867914,"29","Female","right",1,1,0,0,FALSE,"E_F_Judi_Dench.jpg E_M_michael_caine.jpg"
8949,"P_M_george_Wbush.jpg","P_M_Tony_Blair.jpg","TRUE","pictures/stimuli/P","pictures/stimuli/P","M","M","3","59bd1b8b3a9ab60001119adb","04/26/2022, 14:06:12",-1.0254704327642,"29","Female","right",1,1,0,0,FALSE,"P_M_george_Wbush.jpg P_M_Tony_Blair.jpg"
9846,"E_F_angelina_jolie.jpg","E_F_jennifer_aniston.jpg","TRUE","pictures/stimuli/E","pictures/stimuli/E","F","F","3","59bd1b8b3a9ab60001119adb","04/26/2022, 14:06:12",-1.0254704327642,"29","Female","right",1,1,0,0,FALSE,"E_F_angelina_jolie.jpg E_F_jennifer_aniston.jpg"
9765,"E_M_tom_hankes.jpg","P_F_tehresy_may.jpg","FALSE","pictures/stimuli/E","pictures/stimuli/P","M","F","6","59bd1b8b3a9ab60001119adb","04/26/2022, 14:06:12",1.32199200368397,"29","Female","right",1,1,0,0,FALSE,"E_M_tom_hankes.jpg P_F_tehresy_may.jpg"
9429,"E_M_michael_caine.jpg","E_M_robert_de_niro.jpg","TRUE","pictures/stimuli/E","pictures/stimuli/E","M","M","3","59bd1b8b3a9ab60001119adb","04/26/2022, 14:06:12",-1.0254704327642,"29","Female","right",1,1,0,0,FALSE,"E_M_michael_caine.jpg E_M_robert_de_niro.jpg"
6127,"E_M_tom_hankes.jpg","P_M_george_Wbush.jpg","FALSE","pictures/stimuli/E","pictures/stimuli/P","M","M","2","59bd1b8b3a9ab60001119adb","04/26/2022, 14:06:12",-1.80795791158026,"29","Female","right",1,1,0,0,FALSE,"E_M_tom_hankes.jpg P_M_george_Wbush.jpg"
6021,"E_F_sandra_bullock.jpg","P_F_tehresy_may.jpg","FALSE","pictures/stimuli/E","pictures/stimuli/P","F","F","5","59bd1b8b3a9ab60001119adb","04/26/2022, 14:06:12",0.539504524867914,"29","Female","right",1,1,0,0,FALSE,"E_F_sandra_bullock.jpg P_F_tehresy_may.jpg"
5881,"E_M_nicolas_cage.jpg","P_M_Tony_Blair.jpg","FALSE","pictures/stimuli/E","pictures/stimuli/P","M","M","2","59bd1b8b3a9ab60001119adb","04/26/2022, 14:06:12",-1.80795791158026,"29","Female","right",1,1,0,0,FALSE,"E_M_nicolas_cage.jpg P_M_Tony_Blair.jpg"
9488,"P_F_hillary_clinton.jpg","P_M_Tony_Blair.jpg","TRUE","pictures/stimuli/P","pictures/stimuli/P","F","M","5","59bd1b8b3a9ab60001119adb","04/26/2022, 14:06:12",0.539504524867914,"29","Female","right",1,1,0,0,FALSE,"P_F_hillary_clinton.jpg P_M_Tony_Blair.jpg"
6632,"E_M_Hugh_Grant.jpg","P_M_bill_clinton.jpg","FALSE","pictures/stimuli/E","pictures/stimuli/P","M","M","3","59bd1b8b3a9ab60001119adb","04/26/2022, 14:06:12",-1.0254704327642,"29","Female","right",1,1,0,0,FALSE,"E_M_Hugh_Grant.jpg P_M_bill_clinton.jpg"
5911,"E_F_jennifer_aniston.jpg","P_M_george_Wbush.jpg","FALSE","pictures/stimuli/E","pictures/stimuli/P","F","M","6","59bd1b8b3a9ab60001119adb","04/26/2022, 14:06:12",1.32199200368397,"29","Female","right",1,1,0,0,FALSE,"E_F_jennifer_aniston.jpg P_M_george_Wbush.jpg"
7846,"E_F_angelina_jolie.jpg","P_M_david_cameron.jpg","FALSE","pictures/stimuli/E","pictures/stimuli/P","F","M","5","59bd1b8b3a9ab60001119adb","04/26/2022, 14:06:12",0.539504524867914,"29","Female","right",1,1,0,0,FALSE,"E_F_angelina_jolie.jpg P_M_david_cameron.jpg"
6535,"P_M_bill_clinton.jpg","P_M_donald_trump.jpg","TRUE","pictures/stimuli/P","pictures/stimuli/P","M","M","4","59bd1b8b3a9ab60001119adb","04/26/2022, 14:06:12",-0.242982953948145,"29","Female","right",1,1,0,0,FALSE,"P_M_bill_clinton.jpg P_M_donald_trump.jpg"
5800,"E_F_Judi_Dench.jpg","E_F_keira_knightley.jpg","TRUE","pictures/stimuli/E","pictures/stimuli/E","F","F","3","59bd1b8b3a9ab60001119adb","04/26/2022, 14:06:12",-1.0254704327642,"29","Female","right",1,1,0,0,FALSE,"E_F_Judi_Dench.jpg E_F_keira_knightley.jpg"
10444,"E_M_michael_caine.jpg","P_F_nicola_sturgeon.jpg","FALSE","pictures/stimuli/E","pictures/stimuli/P","M","F","5","59bd1b8b3a9ab60001119adb","04/26/2022, 14:06:12",0.539504524867914,"29","Female","right",1,1,0,0,FALSE,"E_M_michael_caine.jpg P_F_nicola_sturgeon.jpg"
5368,"E_M_nicolas_cage.jpg","P_M_david_cameron.jpg","FALSE","pictures/stimuli/E","pictures/stimuli/P","M","M","4","59bd1b8b3a9ab60001119adb","04/26/2022, 14:06:12",-0.242982953948145,"29","Female","right",1,1,0,0,FALSE,"E_M_nicolas_cage.jpg P_M_david_cameron.jpg"
5816,"E_F_angelina_jolie.jpg","E_M_michael_caine.jpg","TRUE","pictures/stimuli/E","pictures/stimuli/E","F","M","5","59bd1b8b3a9ab60001119adb","04/26/2022, 14:06:12",0.539504524867914,"29","Female","right",1,1,0,0,FALSE,"E_F_angelina_jolie.jpg E_M_michael_caine.jpg"
6264,"E_F_keira_knightley.jpg","P_F_hillary_clinton.jpg","FALSE","pictures/stimuli/E","pictures/stimuli/P","F","F","3","59bd1b8b3a9ab60001119adb","04/26/2022, 14:06:12",-1.0254704327642,"29","Female","right",1,1,0,0,FALSE,"E_F_keira_knightley.jpg P_F_hillary_clinton.jpg"
7383,"P_M_boris_johnson.jpg","P_M_david_cameron.jpg","TRUE","pictures/stimuli/P","pictures/stimuli/P","M","M","5","59bd1b8b3a9ab60001119adb","04/26/2022, 14:06:12",0.539504524867914,"29","Female","right",1,1,0,0,FALSE,"P_M_boris_johnson.jpg P_M_david_cameron.jpg"
6611,"E_F_Kate_Winslet.jpg","P_M_bill_clinton.jpg","FALSE","pictures/stimuli/E","pictures/stimuli/P","F","M","5","59bd1b8b3a9ab60001119adb","04/26/2022, 14:06:12",0.539504524867914,"29","Female","right",1,1,0,0,FALSE,"E_F_Kate_Winslet.jpg P_M_bill_clinton.jpg"
7411,"P_M_boris_johnson.jpg","P_M_Tony_Blair.jpg","TRUE","pictures/stimuli/P","pictures/stimuli/P","M","M","4","59bd1b8b3a9ab60001119adb","04/26/2022, 14:06:12",-0.242982953948145,"29","Female","right",1,1,0,0,FALSE,"P_M_boris_johnson.jpg P_M_Tony_Blair.jpg"
7247,"E_F_jennifer_aniston.jpg","P_M_boris_johnson.jpg","FALSE","pictures/stimuli/E","pictures/stimuli/P","F","M","5","59bd1b8b3a9ab60001119adb","04/26/2022, 14:06:12",0.539504524867914,"29","Female","right",1,1,0,0,FALSE,"E_F_jennifer_aniston.jpg P_M_boris_johnson.jpg"
4926,"E_F_jennifer_aniston.jpg","P_F_tehresy_may.jpg","FALSE","pictures/stimuli/E","pictures/stimuli/P","F","F","5","59bd1b8b3a9ab60001119adb","04/26/2022, 14:06:12",0.539504524867914,"29","Female","right",1,1,0,0,FALSE,"E_F_jennifer_aniston.jpg P_F_tehresy_may.jpg"
10328,"E_F_keira_knightley.jpg","E_F_sandra_bullock.jpg","TRUE","pictures/stimuli/E","pictures/stimuli/E","F","F","1","59bd1b8b3a9ab60001119adb","04/26/2022, 14:06:12",-2.59044539039632,"29","Female","right",1,1,0,0,FALSE,"E_F_keira_knightley.jpg E_F_sandra_bullock.jpg"
8117,"E_F_sandra_bullock.jpg","P_M_Tony_Blair.jpg","FALSE","pictures/stimuli/E","pictures/stimuli/P","F","M","5","59bd1b8b3a9ab60001119adb","04/26/2022, 14:06:12",0.539504524867914,"29","Female","right",1,1,0,0,FALSE,"E_F_sandra_bullock.jpg P_M_Tony_Blair.jpg"
10960,"E_M_michael_caine.jpg","P_M_donald_trump.jpg","FALSE","pictures/stimuli/E","pictures/stimuli/P","M","M","4","59bd1b8b3a9ab60001119adb","04/26/2022, 14:06:12",-0.242982953948145,"29","Female","right",1,1,0,0,FALSE,"E_M_michael_caine.jpg P_M_donald_trump.jpg"
6191,"E_F_sandra_bullock.jpg","P_M_donald_trump.jpg","FALSE","pictures/stimuli/E","pictures/stimuli/P","F","M","6","59bd1b8b3a9ab60001119adb","04/26/2022, 14:06:12",1.32199200368397,"29","Female","right",1,1,0,0,FALSE,"E_F_sandra_bullock.jpg P_M_donald_trump.jpg"
7594,"E_M_michael_caine.jpg","P_F_tehresy_may.jpg","FALSE","pictures/stimuli/E","pictures/stimuli/P","M","F","5","59bd1b8b3a9ab60001119adb","04/26/2022, 14:06:12",0.539504524867914,"29","Female","right",1,1,0,0,FALSE,"E_M_michael_caine.jpg P_F_tehresy_may.jpg"
5923,"E_F_jennifer_aniston.jpg","P_F_nicola_sturgeon.jpg","FALSE","pictures/stimuli/E","pictures/stimuli/P","F","F","5","59bd1b8b3a9ab60001119adb","04/26/2022, 14:06:12",0.539504524867914,"29","Female","right",1,1,0,0,FALSE,"E_F_jennifer_aniston.jpg P_F_nicola_sturgeon.jpg"
7705,"E_F_angelina_jolie.jpg","E_F_Judi_Dench.jpg","TRUE","pictures/stimuli/E","pictures/stimuli/E","F","F","3","59bd1b8b3a9ab60001119adb","04/26/2022, 14:06:12",-1.0254704327642,"29","Female","right",1,1,0,0,FALSE,"E_F_angelina_jolie.jpg E_F_Judi_Dench.jpg"
7461,"E_M_robert_de_niro.jpg","P_F_nicola_sturgeon.jpg","FALSE","pictures/stimuli/E","pictures/stimuli/P","M","F","4","59bd1b8b3a9ab60001119adb","04/26/2022, 14:06:12",-0.242982953948145,"29","Female","right",1,1,0,0,FALSE,"E_M_robert_de_niro.jpg P_F_nicola_sturgeon.jpg"
6870,"E_M_Hugh_Grant.jpg","P_M_Tony_Blair.jpg","FALSE","pictures/stimuli/E","pictures/stimuli/P","M","M","2","59bd1b8b3a9ab60001119adb","04/26/2022, 14:06:12",-1.80795791158026,"29","Female","right",1,1,0,0,FALSE,"E_M_Hugh_Grant.jpg P_M_Tony_Blair.jpg"
7716,"E_M_michael_caine.jpg","P_F_hillary_clinton.jpg","FALSE","pictures/stimuli/E","pictures/stimuli/P","M","F","4","59bd1b8b3a9ab60001119adb","04/26/2022, 14:06:12",-0.242982953948145,"29","Female","right",1,1,0,0,FALSE,"E_M_michael_caine.jpg P_F_hillary_clinton.jpg"
6447,"P_F_tehresy_may.jpg","P_M_david_cameron.jpg","TRUE","pictures/stimuli/P","pictures/stimuli/P","F","M","6","59bd1b8b3a9ab60001119adb","04/26/2022, 14:06:12",1.32199200368397,"29","Female","right",1,1,0,0,FALSE,"P_F_tehresy_may.jpg P_M_david_cameron.jpg"
8425,"E_F_angelina_jolie.jpg","P_M_Tony_Blair.jpg","FALSE","pictures/stimuli/E","pictures/stimuli/P","F","M","4","59bd1b8b3a9ab60001119adb","04/26/2022, 14:06:12",-0.242982953948145,"29","Female","right",1,1,0,0,FALSE,"E_F_angelina_jolie.jpg P_M_Tony_Blair.jpg"
7236,"P_F_hillary_clinton.jpg","P_F_nicola_sturgeon.jpg","TRUE","pictures/stimuli/P","pictures/stimuli/P","F","F","3","59bd1b8b3a9ab60001119adb","04/26/2022, 14:06:12",-1.0254704327642,"29","Female","right",1,1,0,0,FALSE,"P_F_hillary_clinton.jpg P_F_nicola_sturgeon.jpg"
11767,"E_M_Hugh_Grant.jpg","E_M_nicolas_cage.jpg","TRUE","pictures/stimuli/E","pictures/stimuli/E","M","M","4","59bd1b8b3a9ab60001119adb","04/26/2022, 14:06:12",-0.242982953948145,"29","Female","right",1,1,0,0,FALSE,"E_M_Hugh_Grant.jpg E_M_nicolas_cage.jpg"
7958,"E_F_angelina_jolie.jpg","E_F_Kate_Winslet.jpg","TRUE","pictures/stimuli/E","pictures/stimuli/E","F","F","3","59bd1b8b3a9ab60001119adb","04/26/2022, 14:06:12",-1.0254704327642,"29","Female","right",1,1,0,0,FALSE,"E_F_angelina_jolie.jpg E_F_Kate_Winslet.jpg"
6803,"E_F_angelina_jolie.jpg","E_M_robert_de_niro.jpg","TRUE","pictures/stimuli/E","pictures/stimuli/E","F","M","6","59bd1b8b3a9ab60001119adb","04/26/2022, 14:06:12",1.32199200368397,"29","Female","right",1,1,0,0,FALSE,"E_F_angelina_jolie.jpg E_M_robert_de_niro.jpg"
6865,"E_M_nicolas_cage.jpg","P_F_tehresy_may.jpg","FALSE","pictures/stimuli/E","pictures/stimuli/P","M","F","6","59bd1b8b3a9ab60001119adb","04/26/2022, 14:06:12",1.32199200368397,"29","Female","right",1,1,0,0,FALSE,"E_M_nicolas_cage.jpg P_F_tehresy_may.jpg"
5647,"E_M_tom_hankes.jpg","P_M_Tony_Blair.jpg","FALSE","pictures/stimuli/E","pictures/stimuli/P","M","M","2","59bd1b8b3a9ab60001119adb","04/26/2022, 14:06:12",-1.80795791158026,"29","Female","right",1,1,0,0,FALSE,"E_M_tom_hankes.jpg P_M_Tony_Blair.jpg"
5431,"P_F_tehresy_may.jpg","P_M_donald_trump.jpg","TRUE","pictures/stimuli/P","pictures/stimuli/P","F","M","5","59bd1b8b3a9ab60001119adb","04/26/2022, 14:06:12",0.539504524867914,"29","Female","right",1,1,0,0,FALSE,"P_F_tehresy_may.jpg P_M_donald_trump.jpg"
8427,"E_F_angelina_jolie.jpg","E_F_sandra_bullock.jpg","TRUE","pictures/stimuli/E","pictures/stimuli/E","F","F","2","59bd1b8b3a9ab60001119adb","04/26/2022, 14:06:12",-1.80795791158026,"29","Female","right",1,1,0,0,FALSE,"E_F_angelina_jolie.jpg E_F_sandra_bullock.jpg"
6376,"E_F_angelina_jolie.jpg","P_M_bill_clinton.jpg","FALSE","pictures/stimuli/E","pictures/stimuli/P","F","M","6","59bd1b8b3a9ab60001119adb","04/26/2022, 14:06:12",1.32199200368397,"29","Female","right",1,1,0,0,FALSE,"E_F_angelina_jolie.jpg P_M_bill_clinton.jpg"
6413,"E_F_sandra_bullock.jpg","E_M_michael_caine.jpg","TRUE","pictures/stimuli/E","pictures/stimuli/E","F","M","5","59bd1b8b3a9ab60001119adb","04/26/2022, 14:06:12",0.539504524867914,"29","Female","right",1,1,0,0,FALSE,"E_F_sandra_bullock.jpg E_M_michael_caine.jpg"
6714,"E_F_sandra_bullock.jpg","P_F_hillary_clinton.jpg","FALSE","pictures/stimuli/E","pictures/stimuli/P","F","F","5","59bd1b8b3a9ab60001119adb","04/26/2022, 14:06:12",0.539504524867914,"29","Female","right",1,1,0,0,FALSE,"E_F_sandra_bullock.jpg P_F_hillary_clinton.jpg"
8845,"E_F_Kate_Winslet.jpg","E_M_Hugh_Grant.jpg","TRUE","pictures/stimuli/E","pictures/stimuli/E","F","M","4","59bd1b8b3a9ab60001119adb","04/26/2022, 14:06:12",-0.242982953948145,"29","Female","right",1,1,0,0,FALSE,"E_F_Kate_Winslet.jpg E_M_Hugh_Grant.jpg"
4862,"E_F_Kate_Winslet.jpg","E_M_nicolas_cage.jpg","TRUE","pictures/stimuli/E","pictures/stimuli/E","F","M","5","59bd1b8b3a9ab60001119adb","04/26/2022, 14:06:12",0.539504524867914,"29","Female","right",1,1,0,0,FALSE,"E_F_Kate_Winslet.jpg E_M_nicolas_cage.jpg"
6165,"E_M_nicolas_cage.jpg","P_F_nicola_sturgeon.jpg","FALSE","pictures/stimuli/E","pictures/stimuli/P","M","F","6","59bd1b8b3a9ab60001119adb","04/26/2022, 14:06:12",1.32199200368397,"29","Female","right",1,1,0,0,FALSE,"E_M_nicolas_cage.jpg P_F_nicola_sturgeon.jpg"
13175,"E_F_jennifer_aniston.jpg","E_F_keira_knightley.jpg","TRUE","pictures/stimuli/E","pictures/stimuli/E","F","F","2","59bd1b8b3a9ab60001119adb","04/26/2022, 14:06:12",-1.80795791158026,"29","Female","right",1,1,0,0,FALSE,"E_F_jennifer_aniston.jpg E_F_keira_knightley.jpg"
5577,"E_F_Judi_Dench.jpg","P_F_tehresy_may.jpg","FALSE","pictures/stimuli/E","pictures/stimuli/P","F","F","5","59bd1b8b3a9ab60001119adb","04/26/2022, 14:06:12",0.539504524867914,"29","Female","right",1,1,0,0,FALSE,"E_F_Judi_Dench.jpg P_F_tehresy_may.jpg"
6598,"E_M_michael_caine.jpg","E_M_nicolas_cage.jpg","TRUE","pictures/stimuli/E","pictures/stimuli/E","M","M","4","59bd1b8b3a9ab60001119adb","04/26/2022, 14:06:12",-0.242982953948145,"29","Female","right",1,1,0,0,FALSE,"E_M_michael_caine.jpg E_M_nicolas_cage.jpg"
5661,"E_F_keira_knightley.jpg","P_M_donald_trump.jpg","FALSE","pictures/stimuli/E","pictures/stimuli/P","F","M","6","59bd1b8b3a9ab60001119adb","04/26/2022, 14:06:12",1.32199200368397,"29","Female","right",1,1,0,0,FALSE,"E_F_keira_knightley.jpg P_M_donald_trump.jpg"
6042,"E_F_angelina_jolie.jpg","P_M_george_Wbush.jpg","FALSE","pictures/stimuli/E","pictures/stimuli/P","F","M","6","59bd1b8b3a9ab60001119adb","04/26/2022, 14:06:12",1.32199200368397,"29","Female","right",1,1,0,0,FALSE,"E_F_angelina_jolie.jpg P_M_george_Wbush.jpg"
5442,"E_M_Hugh_Grant.jpg","P_M_boris_johnson.jpg","FALSE","pictures/stimuli/E","pictures/stimuli/P","M","M","5","59bd1b8b3a9ab60001119adb","04/26/2022, 14:06:12",0.539504524867914,"29","Female","right",1,1,0,0,FALSE,"E_M_Hugh_Grant.jpg P_M_boris_johnson.jpg"
7977,"E_F_Kate_Winslet.jpg","E_F_sandra_bullock.jpg","TRUE","pictures/stimuli/E","pictures/stimuli/E","F","F","3","59bd1b8b3a9ab60001119adb","04/26/2022, 14:06:12",-1.0254704327642,"29","Female","right",1,1,0,0,FALSE,"E_F_Kate_Winslet.jpg E_F_sandra_bullock.jpg"
7007,"E_F_jennifer_aniston.jpg","E_M_michael_caine.jpg","TRUE","pictures/stimuli/E","pictures/stimuli/E","F","M","5","59bd1b8b3a9ab60001119adb","04/26/2022, 14:06:12",0.539504524867914,"29","Female","right",1,1,0,0,FALSE,"E_F_jennifer_aniston.jpg E_M_michael_caine.jpg"
6013,"E_F_jennifer_aniston.jpg","P_M_bill_clinton.jpg","FALSE","pictures/stimuli/E","pictures/stimuli/P","F","M","5","59bd1b8b3a9ab60001119adb","04/26/2022, 14:06:12",0.539504524867914,"29","Female","right",1,1,0,0,FALSE,"E_F_jennifer_aniston.jpg P_M_bill_clinton.jpg"
7092,"E_F_Kate_Winslet.jpg","E_M_tom_hankes.jpg","TRUE","pictures/stimuli/E","pictures/stimuli/E","F","M","5","59bd1b8b3a9ab60001119adb","04/26/2022, 14:06:12",0.539504524867914,"29","Female","right",1,1,0,0,FALSE,"E_F_Kate_Winslet.jpg E_M_tom_hankes.jpg"
9813,"P_F_tehresy_may.jpg","P_M_bill_clinton.jpg","TRUE","pictures/stimuli/P","pictures/stimuli/P","F","M","4","59bd1b8b3a9ab60001119adb","04/26/2022, 14:06:12",-0.242982953948145,"29","Female","right",1,1,0,0,FALSE,"P_F_tehresy_may.jpg P_M_bill_clinton.jpg"
5984,"E_F_jennifer_aniston.jpg","E_M_tom_hankes.jpg","TRUE","pictures/stimuli/E","pictures/stimuli/E","F","M","5","59bd1b8b3a9ab60001119adb","04/26/2022, 14:06:12",0.539504524867914,"29","Female","right",1,1,0,0,FALSE,"E_F_jennifer_aniston.jpg E_M_tom_hankes.jpg"
9361,"E_F_sandra_bullock.jpg","E_M_Hugh_Grant.jpg","TRUE","pictures/stimuli/E","pictures/stimuli/E","F","M","4","59bd1b8b3a9ab60001119adb","04/26/2022, 14:06:12",-0.242982953948145,"29","Female","right",1,1,0,0,FALSE,"E_F_sandra_bullock.jpg E_M_Hugh_Grant.jpg"
8485,"E_F_angelina_jolie.jpg","P_M_donald_trump.jpg","FALSE","pictures/stimuli/E","pictures/stimuli/P","F","M","6","59bd1b8b3a9ab60001119adb","04/26/2022, 14:06:12",1.32199200368397,"29","Female","right",1,1,0,0,FALSE,"E_F_angelina_jolie.jpg P_M_donald_trump.jpg"
6115,"P_F_nicola_sturgeon.jpg","P_M_david_cameron.jpg","TRUE","pictures/stimuli/P","pictures/stimuli/P","F","M","5","59bd1b8b3a9ab60001119adb","04/26/2022, 14:06:12",0.539504524867914,"29","Female","right",1,1,0,0,FALSE,"P_F_nicola_sturgeon.jpg P_M_david_cameron.jpg"
6794,"P_F_nicola_sturgeon.jpg","P_M_bill_clinton.jpg","TRUE","pictures/stimuli/P","pictures/stimuli/P","F","M","5","59bd1b8b3a9ab60001119adb","04/26/2022, 14:06:12",0.539504524867914,"29","Female","right",1,1,0,0,FALSE,"P_F_nicola_sturgeon.jpg P_M_bill_clinton.jpg"
6392,"E_F_keira_knightley.jpg","P_M_boris_johnson.jpg","FALSE","pictures/stimuli/E","pictures/stimuli/P","F","M","6","59bd1b8b3a9ab60001119adb","04/26/2022, 14:06:12",1.32199200368397,"29","Female","right",1,1,0,0,FALSE,"E_F_keira_knightley.jpg P_M_boris_johnson.jpg"
5679,"E_F_Kate_Winslet.jpg","P_F_tehresy_may.jpg","FALSE","pictures/stimuli/E","pictures/stimuli/P","F","F","5","59bd1b8b3a9ab60001119adb","04/26/2022, 14:06:12",0.539504524867914,"29","Female","right",1,1,0,0,FALSE,"E_F_Kate_Winslet.jpg P_F_tehresy_may.jpg"
8050,"P_M_bill_clinton.jpg","P_M_Tony_Blair.jpg","TRUE","pictures/stimuli/P","pictures/stimuli/P","M","M","4","59bd1b8b3a9ab60001119adb","04/26/2022, 14:06:12",-0.242982953948145,"29","Female","right",1,1,0,0,FALSE,"P_M_bill_clinton.jpg P_M_Tony_Blair.jpg"
5632,"P_M_donald_trump.jpg","P_M_Tony_Blair.jpg","TRUE","pictures/stimuli/P","pictures/stimuli/P","M","M","5","59bd1b8b3a9ab60001119adb","04/26/2022, 14:06:12",0.539504524867914,"29","Female","right",1,1,0,0,FALSE,"P_M_donald_trump.jpg P_M_Tony_Blair.jpg"
5848,"E_F_jennifer_aniston.jpg","P_M_david_cameron.jpg","FALSE","pictures/stimuli/E","pictures/stimuli/P","F","M","5","59bd1b8b3a9ab60001119adb","04/26/2022, 14:06:12",0.539504524867914,"29","Female","right",1,1,0,0,FALSE,"E_F_jennifer_aniston.jpg P_M_david_cameron.jpg"
10145,"E_F_angelina_jolie.jpg","E_F_keira_knightley.jpg","TRUE","pictures/stimuli/E","pictures/stimuli/E","F","F","2","59bd1b8b3a9ab60001119adb","04/26/2022, 14:06:12",-1.80795791158026,"29","Female","right",1,1,0,0,FALSE,"E_F_angelina_jolie.jpg E_F_keira_knightley.jpg"
6262,"P_F_hillary_clinton.jpg","P_M_boris_johnson.jpg","TRUE","pictures/stimuli/P","pictures/stimuli/P","F","M","4","59bd1b8b3a9ab60001119adb","04/26/2022, 14:06:12",-0.242982953948145,"29","Female","right",1,1,0,0,FALSE,"P_F_hillary_clinton.jpg P_M_boris_johnson.jpg"
6135,"E_F_Judi_Dench.jpg","P_M_Tony_Blair.jpg","FALSE","pictures/stimuli/E","pictures/stimuli/P","F","M","5","59bd1b8b3a9ab60001119adb","04/26/2022, 14:06:12",0.539504524867914,"29","Female","right",1,1,0,0,FALSE,"E_F_Judi_Dench.jpg P_M_Tony_Blair.jpg"
7244,"E_M_robert_de_niro.jpg","P_M_george_Wbush.jpg","FALSE","pictures/stimuli/E","pictures/stimuli/P","M","M","3","59bd1b8b3a9ab60001119adb","04/26/2022, 14:06:12",-1.0254704327642,"29","Female","right",1,1,0,0,FALSE,"E_M_robert_de_niro.jpg P_M_george_Wbush.jpg"
5873,"E_M_Hugh_Grant.jpg","P_F_nicola_sturgeon.jpg","FALSE","pictures/stimuli/E","pictures/stimuli/P","M","F","5","59bd1b8b3a9ab60001119adb","04/26/2022, 14:06:12",0.539504524867914,"29","Female","right",1,1,0,0,FALSE,"E_M_Hugh_Grant.jpg P_F_nicola_sturgeon.jpg"
9613,"E_M_michael_caine.jpg","P_M_Tony_Blair.jpg","FALSE","pictures/stimuli/E","pictures/stimuli/P","M","M","5","59bd1b8b3a9ab60001119adb","04/26/2022, 14:06:12",0.539504524867914,"29","Female","right",1,1,0,0,FALSE,"E_M_michael_caine.jpg P_M_Tony_Blair.jpg"
8478,"E_M_nicolas_cage.jpg","P_F_hillary_clinton.jpg","FALSE","pictures/stimuli/E","pictures/stimuli/P","M","F","6","59bd1b8b3a9ab60001119adb","04/26/2022, 14:06:12",1.32199200368397,"29","Female","right",1,1,0,0,FALSE,"E_M_nicolas_cage.jpg P_F_hillary_clinton.jpg"
6122,"E_F_sandra_bullock.jpg","P_M_david_cameron.jpg","FALSE","pictures/stimuli/E","pictures/stimuli/P","F","M","5","59bd1b8b3a9ab60001119adb","04/26/2022, 14:06:12",0.539504524867914,"29","Female","right",1,1,0,0,FALSE,"E_F_sandra_bullock.jpg P_M_david_cameron.jpg"
9195,"E_F_Judi_Dench.jpg","P_M_boris_johnson.jpg","FALSE","pictures/stimuli/E","pictures/stimuli/P","F","M","5","59bd1b8b3a9ab60001119adb","04/26/2022, 14:06:12",0.539504524867914,"29","Female","right",1,1,0,0,FALSE,"E_F_Judi_Dench.jpg P_M_boris_johnson.jpg"
5883,"P_F_tehresy_may.jpg","P_M_Tony_Blair.jpg","TRUE","pictures/stimuli/P","pictures/stimuli/P","F","M","5","59bd1b8b3a9ab60001119adb","04/26/2022, 14:06:12",0.539504524867914,"29","Female","right",1,1,0,0,FALSE,"P_F_tehresy_may.jpg P_M_Tony_Blair.jpg"
6556,"P_F_nicola_sturgeon.jpg","P_M_Tony_Blair.jpg","TRUE","pictures/stimuli/P","pictures/stimuli/P","F","M","5","59bd1b8b3a9ab60001119adb","04/26/2022, 14:06:12",0.539504524867914,"29","Female","right",1,1,0,0,FALSE,"P_F_nicola_sturgeon.jpg P_M_Tony_Blair.jpg"
7330,"E_F_jennifer_aniston.jpg","P_F_hillary_clinton.jpg","FALSE","pictures/stimuli/E","pictures/stimuli/P","F","F","3","59bd1b8b3a9ab60001119adb","04/26/2022, 14:06:12",-1.0254704327642,"29","Female","right",1,1,0,0,FALSE,"E_F_jennifer_aniston.jpg P_F_hillary_clinton.jpg"
7040,"E_F_keira_knightley.jpg","P_M_david_cameron.jpg","FALSE","pictures/stimuli/E","pictures/stimuli/P","F","M","4","59bd1b8b3a9ab60001119adb","04/26/2022, 14:06:12",-0.242982953948145,"29","Female","right",1,1,0,0,FALSE,"E_F_keira_knightley.jpg P_M_david_cameron.jpg"
5851,"E_F_sandra_bullock.jpg","P_M_bill_clinton.jpg","FALSE","pictures/stimuli/E","pictures/stimuli/P","F","M","5","59bd1b8b3a9ab60001119adb","04/26/2022, 14:06:12",0.539504524867914,"29","Female","right",1,1,0,0,FALSE,"E_F_sandra_bullock.jpg P_M_bill_clinton.jpg"
6806,"E_M_michael_caine.jpg","P_M_george_Wbush.jpg","FALSE","pictures/stimuli/E","pictures/stimuli/P","M","M","3","59bd1b8b3a9ab60001119adb","04/26/2022, 14:06:12",-1.0254704327642,"29","Female","right",1,1,0,0,FALSE,"E_M_michael_caine.jpg P_M_george_Wbush.jpg"
6445,"E_F_keira_knightley.jpg","P_F_tehresy_may.jpg","FALSE","pictures/stimuli/E","pictures/stimuli/P","F","F","6","59bd1b8b3a9ab60001119adb","04/26/2022, 14:06:12",1.32199200368397,"29","Female","right",1,1,0,0,FALSE,"E_F_keira_knightley.jpg P_F_tehresy_may.jpg"
10959,"P_F_hillary_clinton.jpg","P_F_tehresy_may.jpg","TRUE","pictures/stimuli/P","pictures/stimuli/P","F","F","4","59bd1b8b3a9ab60001119adb","04/26/2022, 14:06:12",-0.242982953948145,"29","Female","right",1,1,0,0,FALSE,"P_F_hillary_clinton.jpg P_F_tehresy_may.jpg"
7882,"E_F_Judi_Dench.jpg","P_M_george_Wbush.jpg","FALSE","pictures/stimuli/E","pictures/stimuli/P","F","M","5","59bd1b8b3a9ab60001119adb","04/26/2022, 14:06:12",0.539504524867914,"29","Female","right",1,1,0,0,FALSE,"E_F_Judi_Dench.jpg P_M_george_Wbush.jpg"
5372,"E_M_tom_hankes.jpg","P_M_donald_trump.jpg","FALSE","pictures/stimuli/E","pictures/stimuli/P","M","M","5","59bd1b8b3a9ab60001119adb","04/26/2022, 14:06:12",0.539504524867914,"29","Female","right",1,1,0,0,FALSE,"E_M_tom_hankes.jpg P_M_donald_trump.jpg"
5555,"E_F_Kate_Winslet.jpg","P_M_david_cameron.jpg","FALSE","pictures/stimuli/E","pictures/stimuli/P","F","M","4","59bd1b8b3a9ab60001119adb","04/26/2022, 14:06:12",-0.242982953948145,"29","Female","right",1,1,0,0,FALSE,"E_F_Kate_Winslet.jpg P_M_david_cameron.jpg"
9520,"E_M_robert_de_niro.jpg","P_M_david_cameron.jpg","FALSE","pictures/stimuli/E","pictures/stimuli/P","M","M","5","59bd1b8b3a9ab60001119adb","04/26/2022, 14:06:12",0.539504524867914,"29","Female","right",1,1,0,0,FALSE,"E_M_robert_de_niro.jpg P_M_david_cameron.jpg"
5811,"E_F_jennifer_aniston.jpg","E_M_robert_de_niro.jpg","TRUE","pictures/stimuli/E","pictures/stimuli/E","F","M","6","59bd1b8b3a9ab60001119adb","04/26/2022, 14:06:12",1.32199200368397,"29","Female","right",1,1,0,0,FALSE,"E_F_jennifer_aniston.jpg E_M_robert_de_niro.jpg"
8476,"P_M_bill_clinton.jpg","P_M_david_cameron.jpg","TRUE","pictures/stimuli/P","pictures/stimuli/P","M","M","4","59bd1b8b3a9ab60001119adb","04/26/2022, 14:06:12",-0.242982953948145,"29","Female","right",1,1,0,0,FALSE,"P_M_bill_clinton.jpg P_M_david_cameron.jpg"
5407,"E_F_Judi_Dench.jpg","E_M_nicolas_cage.jpg","TRUE","pictures/stimuli/E","pictures/stimuli/E","F","M","5","59bd1b8b3a9ab60001119adb","04/26/2022, 14:06:12",0.539504524867914,"29","Female","right",1,1,0,0,FALSE,"E_F_Judi_Dench.jpg E_M_nicolas_cage.jpg"
8993,"E_F_Kate_Winslet.jpg","P_F_hillary_clinton.jpg","FALSE","pictures/stimuli/E","pictures/stimuli/P","F","F","2","59bd1b8b3a9ab60001119adb","04/26/2022, 14:06:12",-1.80795791158026,"29","Female","right",1,1,0,0,FALSE,"E_F_Kate_Winslet.jpg P_F_hillary_clinton.jpg"
7070,"E_F_jennifer_aniston.jpg","P_M_donald_trump.jpg","FALSE","pictures/stimuli/E","pictures/stimuli/P","F","M","5","59bd1b8b3a9ab60001119adb","04/26/2022, 14:06:12",0.539504524867914,"29","Female","right",1,1,0,0,FALSE,"E_F_jennifer_aniston.jpg P_M_donald_trump.jpg"
7368,"E_F_keira_knightley.jpg","P_M_george_Wbush.jpg","FALSE","pictures/stimuli/E","pictures/stimuli/P","F","M","6","59bd1b8b3a9ab60001119adb","04/26/2022, 14:06:12",1.32199200368397,"29","Female","right",1,1,0,0,FALSE,"E_F_keira_knightley.jpg P_M_george_Wbush.jpg"
7165,"E_F_sandra_bullock.jpg","E_M_tom_hankes.jpg","TRUE","pictures/stimuli/E","pictures/stimuli/E","F","M","5","59bd1b8b3a9ab60001119adb","04/26/2022, 14:06:12",0.539504524867914,"29","Female","right",1,1,0,0,FALSE,"E_F_sandra_bullock.jpg E_M_tom_hankes.jpg"
7098,"E_F_keira_knightley.jpg","E_M_michael_caine.jpg","TRUE","pictures/stimuli/E","pictures/stimuli/E","F","M","5","59bd1b8b3a9ab60001119adb","04/26/2022, 14:06:12",0.539504524867914,"29","Female","right",1,1,0,0,FALSE,"E_F_keira_knightley.jpg E_M_michael_caine.jpg"
11494,"E_F_angelina_jolie.jpg","P_F_nicola_sturgeon.jpg","FALSE","pictures/stimuli/E","pictures/stimuli/P","F","F","4","59bd1b8b3a9ab60001119adb","04/26/2022, 14:06:12",-0.242982953948145,"29","Female","right",1,1,0,0,FALSE,"E_F_angelina_jolie.jpg P_F_nicola_sturgeon.jpg"
5497,"P_F_hillary_clinton.jpg","P_M_george_Wbush.jpg","TRUE","pictures/stimuli/P","pictures/stimuli/P","F","M","5","59bd1b8b3a9ab60001119adb","04/26/2022, 14:06:12",0.539504524867914,"29","Female","right",1,1,0,0,FALSE,"P_F_hillary_clinton.jpg P_M_george_Wbush.jpg"
5961,"P_F_hillary_clinton.jpg","P_M_bill_clinton.jpg","TRUE","pictures/stimuli/P","pictures/stimuli/P","F","M","4","59bd1b8b3a9ab60001119adb","04/26/2022, 14:06:12",-0.242982953948145,"29","Female","right",1,1,0,0,FALSE,"P_F_hillary_clinton.jpg P_M_bill_clinton.jpg"
8312,"E_M_robert_de_niro.jpg","P_M_boris_johnson.jpg","FALSE","pictures/stimuli/E","pictures/stimuli/P","M","M","4","59bd1b8b3a9ab60001119adb","04/26/2022, 14:06:12",-0.242982953948145,"29","Female","right",1,1,0,0,FALSE,"E_M_robert_de_niro.jpg P_M_boris_johnson.jpg"
8197,"E_F_Judi_Dench.jpg","P_F_hillary_clinton.jpg","FALSE","pictures/stimuli/E","pictures/stimuli/P","F","F","4","59bd1b8b3a9ab60001119adb","04/26/2022, 14:06:12",-0.242982953948145,"29","Female","right",1,1,0,0,FALSE,"E_F_Judi_Dench.jpg P_F_hillary_clinton.jpg"
7775,"P_M_bill_clinton.jpg","P_M_boris_johnson.jpg","TRUE","pictures/stimuli/P","pictures/stimuli/P","M","M","3","59bd1b8b3a9ab60001119adb","04/26/2022, 14:06:12",-1.0254704327642,"29","Female","right",1,1,0,0,FALSE,"P_M_bill_clinton.jpg P_M_boris_johnson.jpg"
5296,"E_M_tom_hankes.jpg","P_M_boris_johnson.jpg","FALSE","pictures/stimuli/E","pictures/stimuli/P","M","M","5","59bd1b8b3a9ab60001119adb","04/26/2022, 14:06:12",0.539504524867914,"29","Female","right",1,1,0,0,FALSE,"E_M_tom_hankes.jpg P_M_boris_johnson.jpg"
5402,"E_F_jennifer_aniston.jpg","P_M_bill_clinton.jpg","FALSE","pictures/stimuli/E","pictures/stimuli/P","F","M","6","5b1a88970ada0a0001e0f483","04/26/2022, 13:50:52",1.47999723321199,"29","Female","right",1,1,0,0,FALSE,"E_F_jennifer_aniston.jpg P_M_bill_clinton.jpg"
