"RT","img_1","img_2","isSameProffesion","img1proffesion","img2proffesion","img1Gender","img2Gender","keyPressed","participant","time","pair","normlised_keyPress","age","gender","handedness","isFamiliar_img1","isFamiliar_img2","reject_trial"
32077,"E_M_nicolas_cage.jpg","E_M_tom_hankes.jpg","TRUE","pictures/stimuli/E","pictures/stimuli/E","M","M","4","1","12345","E_M_nicolas_cage.jpg E_M_tom_hankes.jpg",-1.78622559405316,"33","Female","right",1,1,TRUE
3417,"P_F_hillary_clinton.jpg","P_F_tehresy_may.jpg","TRUE","pictures/stimuli/P","pictures/stimuli/P","F","F","3","1","12345","P_F_hillary_clinton.jpg P_F_tehresy_may.jpg",-2.92892883604003,"33","Female","right",1,1,FALSE
6223,"P_F_nicola_sturgeon.jpg","P_M_boris_johnson.jpg","TRUE","pictures/stimuli/P","pictures/stimuli/P","F","M","6","1","12345","P_F_nicola_sturgeon.jpg P_M_boris_johnson.jpg",0.499180889920579,"33","Female","right",1,1,FALSE
3462,"E_M_michael_caine.jpg","P_F_hillary_clinton.jpg","FALSE","pictures/stimuli/E","pictures/stimuli/P","M","F","5","1","12345","E_M_michael_caine.jpg P_F_hillary_clinton.jpg",-0.643522352066289,"33","Female","right",1,1,FALSE
4079,"P_F_tehresy_may.jpg","P_M_bill_clinton.jpg","TRUE","pictures/stimuli/P","pictures/stimuli/P","F","M","3","1","12345","P_F_tehresy_may.jpg P_M_bill_clinton.jpg",-2.92892883604003,"33","Female","right",1,1,FALSE
2606,"E_F_Judi_Dench.jpg","E_F_sandra_bullock.jpg","TRUE","pictures/stimuli/E","pictures/stimuli/E","F","F","6","1","12345","E_F_Judi_Dench.jpg E_F_sandra_bullock.jpg",0.499180889920579,"33","Female","right",1,1,FALSE
18791,"E_F_keira_knightley.jpg","E_M_tom_hankes.jpg","TRUE","pictures/stimuli/E","pictures/stimuli/E","F","M","6","1","12345","E_F_keira_knightley.jpg E_M_tom_hankes.jpg",0.499180889920579,"33","Female","right",1,1,FALSE
3119,"P_F_tehresy_may.jpg","P_M_george_Wbush.jpg","TRUE","pictures/stimuli/P","pictures/stimuli/P","F","M","3","1","12345","P_F_tehresy_may.jpg P_M_george_Wbush.jpg",-2.92892883604003,"33","Female","right",1,1,FALSE
5242,"E_M_michael_caine.jpg","P_M_boris_johnson.jpg","FALSE","pictures/stimuli/E","pictures/stimuli/P","M","M","5","1","12345","E_M_michael_caine.jpg P_M_boris_johnson.jpg",-0.643522352066289,"33","Female","right",1,1,FALSE
1762,"E_F_keira_knightley.jpg","P_F_tehresy_may.jpg","FALSE","pictures/stimuli/E","pictures/stimuli/P","F","F","6","1","12345","E_F_keira_knightley.jpg P_F_tehresy_may.jpg",0.499180889920579,"33","Female","right",1,1,FALSE
2305,"E_F_jennifer_aniston.jpg","P_M_Tony_Blair.jpg","FALSE","pictures/stimuli/E","pictures/stimuli/P","F","M","6","1","12345","E_F_jennifer_aniston.jpg P_M_Tony_Blair.jpg",0.499180889920579,"33","Female","right",1,1,FALSE
6137,"E_M_michael_caine.jpg","P_M_george_Wbush.jpg","FALSE","pictures/stimuli/E","pictures/stimuli/P","M","M","4","1","12345","E_M_michael_caine.jpg P_M_george_Wbush.jpg",-1.78622559405316,"33","Female","right",1,1,FALSE
2368,"E_F_angelina_jolie.jpg","E_F_Judi_Dench.jpg","TRUE","pictures/stimuli/E","pictures/stimuli/E","F","F","6","1","12345","E_F_angelina_jolie.jpg E_F_Judi_Dench.jpg",0.499180889920579,"33","Female","right",1,1,FALSE
2991,"E_M_tom_hankes.jpg","P_M_george_Wbush.jpg","FALSE","pictures/stimuli/E","pictures/stimuli/P","M","M","3","1","12345","E_M_tom_hankes.jpg P_M_george_Wbush.jpg",-2.92892883604003,"33","Female","right",1,1,FALSE
2031,"P_F_tehresy_may.jpg","P_M_david_cameron.jpg","TRUE","pictures/stimuli/P","pictures/stimuli/P","F","M","5","1","12345","P_F_tehresy_may.jpg P_M_david_cameron.jpg",-0.643522352066289,"33","Female","right",1,1,FALSE
4159,"E_F_angelina_jolie.jpg","E_M_nicolas_cage.jpg","TRUE","pictures/stimuli/E","pictures/stimuli/E","F","M","6","1","12345","E_F_angelina_jolie.jpg E_M_nicolas_cage.jpg",0.499180889920579,"33","Female","right",1,1,FALSE
3111,"E_M_Hugh_Grant.jpg","E_M_nicolas_cage.jpg","TRUE","pictures/stimuli/E","pictures/stimuli/E","M","M","5","1","12345","E_M_Hugh_Grant.jpg E_M_nicolas_cage.jpg",-0.643522352066289,"33","Female","right",1,1,FALSE
8247,"E_F_sandra_bullock.jpg","P_F_tehresy_may.jpg","FALSE","pictures/stimuli/E","pictures/stimuli/P","F","F","6","1","12345","E_F_sandra_bullock.jpg P_F_tehresy_may.jpg",0.499180889920579,"33","Female","right",1,1,FALSE
5126,"P_F_hillary_clinton.jpg","P_M_donald_trump.jpg","TRUE","pictures/stimuli/P","pictures/stimuli/P","F","M","6","1","12345","P_F_hillary_clinton.jpg P_M_donald_trump.jpg",0.499180889920579,"33","Female","right",1,1,FALSE
1649,"E_F_keira_knightley.jpg","E_M_michael_caine.jpg","TRUE","pictures/stimuli/E","pictures/stimuli/E","F","M","6","1","12345","E_F_keira_knightley.jpg E_M_michael_caine.jpg",0.499180889920579,"33","Female","right",1,1,FALSE
2431,"E_F_keira_knightley.jpg","P_F_nicola_sturgeon.jpg","FALSE","pictures/stimuli/E","pictures/stimuli/P","F","F","3","1","12345","E_F_keira_knightley.jpg P_F_nicola_sturgeon.jpg",-2.92892883604003,"33","Female","right",1,1,FALSE
2247,"E_F_sandra_bullock.jpg","E_M_Hugh_Grant.jpg","TRUE","pictures/stimuli/E","pictures/stimuli/E","F","M","6","1","12345","E_F_sandra_bullock.jpg E_M_Hugh_Grant.jpg",0.499180889920579,"33","Female","right",1,1,FALSE
2903,"E_F_keira_knightley.jpg","P_M_david_cameron.jpg","FALSE","pictures/stimuli/E","pictures/stimuli/P","F","M","6","1","12345","E_F_keira_knightley.jpg P_M_david_cameron.jpg",0.499180889920579,"33","Female","right",1,1,FALSE
1652,"E_F_Kate_Winslet.jpg","E_M_robert_de_niro.jpg","TRUE","pictures/stimuli/E","pictures/stimuli/E","F","M","6","1","12345","E_F_Kate_Winslet.jpg E_M_robert_de_niro.jpg",0.499180889920579,"33","Female","right",1,1,FALSE
13008,"P_F_tehresy_may.jpg","P_M_donald_trump.jpg","TRUE","pictures/stimuli/P","pictures/stimuli/P","F","M","4","1","12345","P_F_tehresy_may.jpg P_M_donald_trump.jpg",-1.78622559405316,"33","Female","right",1,1,FALSE
1565,"E_M_robert_de_niro.jpg","P_M_donald_trump.jpg","FALSE","pictures/stimuli/E","pictures/stimuli/P","M","M","6","1","12345","E_M_robert_de_niro.jpg P_M_donald_trump.jpg",0.499180889920579,"33","Female","right",1,1,FALSE
12376,"E_F_Kate_Winslet.jpg","E_M_nicolas_cage.jpg","TRUE","pictures/stimuli/E","pictures/stimuli/E","F","M","5","1","12345","E_F_Kate_Winslet.jpg E_M_nicolas_cage.jpg",-0.643522352066289,"33","Female","right",1,1,FALSE
3190,"E_M_robert_de_niro.jpg","P_M_bill_clinton.jpg","FALSE","pictures/stimuli/E","pictures/stimuli/P","M","M","6","1","12345","E_M_robert_de_niro.jpg P_M_bill_clinton.jpg",0.499180889920579,"33","Female","right",1,1,FALSE
5928,"P_M_boris_johnson.jpg","P_M_david_cameron.jpg","TRUE","pictures/stimuli/P","pictures/stimuli/P","M","M","6","1","12345","P_M_boris_johnson.jpg P_M_david_cameron.jpg",0.499180889920579,"33","Female","right",1,1,FALSE
14578,"E_F_keira_knightley.jpg","P_M_boris_johnson.jpg","FALSE","pictures/stimuli/E","pictures/stimuli/P","F","M","6","1","12345","E_F_keira_knightley.jpg P_M_boris_johnson.jpg",0.499180889920579,"33","Female","right",1,1,FALSE
5049,"E_F_Kate_Winslet.jpg","P_F_nicola_sturgeon.jpg","FALSE","pictures/stimuli/E","pictures/stimuli/P","F","F","5","1","12345","E_F_Kate_Winslet.jpg P_F_nicola_sturgeon.jpg",-0.643522352066289,"33","Female","right",1,1,FALSE
16047,"P_M_boris_johnson.jpg","P_M_donald_trump.jpg","TRUE","pictures/stimuli/P","pictures/stimuli/P","M","M","4","1","12345","P_M_boris_johnson.jpg P_M_donald_trump.jpg",-1.78622559405316,"33","Female","right",1,1,FALSE
1999,"E_F_keira_knightley.jpg","P_M_donald_trump.jpg","FALSE","pictures/stimuli/E","pictures/stimuli/P","F","M","6","1","12345","E_F_keira_knightley.jpg P_M_donald_trump.jpg",0.499180889920579,"33","Female","right",1,1,FALSE
3966,"E_M_robert_de_niro.jpg","P_M_Tony_Blair.jpg","FALSE","pictures/stimuli/E","pictures/stimuli/P","M","M","6","1","12345","E_M_robert_de_niro.jpg P_M_Tony_Blair.jpg",0.499180889920579,"33","Female","right",1,1,FALSE
3561,"E_F_Judi_Dench.jpg","P_M_donald_trump.jpg","FALSE","pictures/stimuli/E","pictures/stimuli/P","F","M","6","1","12345","E_F_Judi_Dench.jpg P_M_donald_trump.jpg",0.499180889920579,"33","Female","right",1,1,FALSE
4077,"E_F_angelina_jolie.jpg","P_M_bill_clinton.jpg","FALSE","pictures/stimuli/E","pictures/stimuli/P","F","M","6","1","12345","E_F_angelina_jolie.jpg P_M_bill_clinton.jpg",0.499180889920579,"33","Female","right",1,1,FALSE
2422,"E_M_robert_de_niro.jpg","P_M_david_cameron.jpg","FALSE","pictures/stimuli/E","pictures/stimuli/P","M","M","6","1","12345","E_M_robert_de_niro.jpg P_M_david_cameron.jpg",0.499180889920579,"33","Female","right",1,1,FALSE
2247,"P_F_nicola_sturgeon.jpg","P_F_tehresy_may.jpg","TRUE","pictures/stimuli/P","pictures/stimuli/P","F","F","6","1","12345","P_F_nicola_sturgeon.jpg P_F_tehresy_may.jpg",0.499180889920579,"33","Female","right",1,1,FALSE
2143,"E_M_tom_hankes.jpg","P_F_nicola_sturgeon.jpg","FALSE","pictures/stimuli/E","pictures/stimuli/P","M","F","6","1","12345","E_M_tom_hankes.jpg P_F_nicola_sturgeon.jpg",0.499180889920579,"33","Female","right",1,1,FALSE
2559,"E_M_nicolas_cage.jpg","P_F_hillary_clinton.jpg","FALSE","pictures/stimuli/E","pictures/stimuli/P","M","F","6","1","12345","E_M_nicolas_cage.jpg P_F_hillary_clinton.jpg",0.499180889920579,"33","Female","right",1,1,FALSE
3541,"P_F_hillary_clinton.jpg","P_M_Tony_Blair.jpg","TRUE","pictures/stimuli/P","pictures/stimuli/P","F","M","6","1","12345","P_F_hillary_clinton.jpg P_M_Tony_Blair.jpg",0.499180889920579,"33","Female","right",1,1,FALSE
3167,"E_F_angelina_jolie.jpg","P_M_boris_johnson.jpg","FALSE","pictures/stimuli/E","pictures/stimuli/P","F","M","6","1","12345","E_F_angelina_jolie.jpg P_M_boris_johnson.jpg",0.499180889920579,"33","Female","right",1,1,FALSE
3327,"P_M_donald_trump.jpg","P_M_Tony_Blair.jpg","TRUE","pictures/stimuli/P","pictures/stimuli/P","M","M","6","1","12345","P_M_donald_trump.jpg P_M_Tony_Blair.jpg",0.499180889920579,"33","Female","right",1,1,FALSE
1551,"E_F_Kate_Winslet.jpg","P_M_donald_trump.jpg","FALSE","pictures/stimuli/E","pictures/stimuli/P","F","M","6","1","12345","E_F_Kate_Winslet.jpg P_M_donald_trump.jpg",0.499180889920579,"33","Female","right",1,1,FALSE
3187,"E_M_robert_de_niro.jpg","E_M_tom_hankes.jpg","TRUE","pictures/stimuli/E","pictures/stimuli/E","M","M","6","1","12345","E_M_robert_de_niro.jpg E_M_tom_hankes.jpg",0.499180889920579,"33","Female","right",1,1,FALSE
2031,"E_M_michael_caine.jpg","E_M_nicolas_cage.jpg","TRUE","pictures/stimuli/E","pictures/stimuli/E","M","M","6","1","12345","E_M_michael_caine.jpg E_M_nicolas_cage.jpg",0.499180889920579,"33","Female","right",1,1,FALSE
4671,"P_M_bill_clinton.jpg","P_M_donald_trump.jpg","TRUE","pictures/stimuli/P","pictures/stimuli/P","M","M","6","1","12345","P_M_bill_clinton.jpg P_M_donald_trump.jpg",0.499180889920579,"33","Female","right",1,1,FALSE
2679,"E_M_michael_caine.jpg","P_M_donald_trump.jpg","FALSE","pictures/stimuli/E","pictures/stimuli/P","M","M","4","1","12345","E_M_michael_caine.jpg P_M_donald_trump.jpg",-1.78622559405316,"33","Female","right",1,1,FALSE
1655,"P_F_nicola_sturgeon.jpg","P_M_david_cameron.jpg","TRUE","pictures/stimuli/P","pictures/stimuli/P","F","M","6","1","12345","P_F_nicola_sturgeon.jpg P_M_david_cameron.jpg",0.499180889920579,"33","Female","right",1,1,FALSE
1671,"E_F_Judi_Dench.jpg","P_F_nicola_sturgeon.jpg","FALSE","pictures/stimuli/E","pictures/stimuli/P","F","F","6","1","12345","E_F_Judi_Dench.jpg P_F_nicola_sturgeon.jpg",0.499180889920579,"33","Female","right",1,1,FALSE
1482,"E_F_Judi_Dench.jpg","E_M_robert_de_niro.jpg","TRUE","pictures/stimuli/E","pictures/stimuli/E","F","M","6","1","12345","E_F_Judi_Dench.jpg E_M_robert_de_niro.jpg",0.499180889920579,"33","Female","right",1,1,FALSE
3489,"E_M_robert_de_niro.jpg","P_F_nicola_sturgeon.jpg","FALSE","pictures/stimuli/E","pictures/stimuli/P","M","F","3","1","12345","E_M_robert_de_niro.jpg P_F_nicola_sturgeon.jpg",-2.92892883604003,"33","Female","right",1,1,FALSE
1901,"E_F_sandra_bullock.jpg","P_M_boris_johnson.jpg","FALSE","pictures/stimuli/E","pictures/stimuli/P","F","M","6","1","12345","E_F_sandra_bullock.jpg P_M_boris_johnson.jpg",0.499180889920579,"33","Female","right",1,1,FALSE
1726,"E_F_Judi_Dench.jpg","P_M_boris_johnson.jpg","FALSE","pictures/stimuli/E","pictures/stimuli/P","F","M","6","1","12345","E_F_Judi_Dench.jpg P_M_boris_johnson.jpg",0.499180889920579,"33","Female","right",1,1,FALSE
1790,"E_F_jennifer_aniston.jpg","E_M_robert_de_niro.jpg","TRUE","pictures/stimuli/E","pictures/stimuli/E","F","M","6","1","12345","E_F_jennifer_aniston.jpg E_M_robert_de_niro.jpg",0.499180889920579,"33","Female","right",1,1,FALSE
1864,"E_F_Kate_Winslet.jpg","E_F_sandra_bullock.jpg","TRUE","pictures/stimuli/E","pictures/stimuli/E","F","F","6","1","12345","E_F_Kate_Winslet.jpg E_F_sandra_bullock.jpg",0.499180889920579,"33","Female","right",1,1,FALSE
1519,"E_F_sandra_bullock.jpg","P_M_Tony_Blair.jpg","FALSE","pictures/stimuli/E","pictures/stimuli/P","F","M","6","1","12345","E_F_sandra_bullock.jpg P_M_Tony_Blair.jpg",0.499180889920579,"33","Female","right",1,1,FALSE
2311,"E_F_keira_knightley.jpg","E_M_nicolas_cage.jpg","TRUE","pictures/stimuli/E","pictures/stimuli/E","F","M","6","1","12345","E_F_keira_knightley.jpg E_M_nicolas_cage.jpg",0.499180889920579,"33","Female","right",1,1,FALSE
1526,"E_F_sandra_bullock.jpg","P_F_hillary_clinton.jpg","FALSE","pictures/stimuli/E","pictures/stimuli/P","F","F","6","1","12345","E_F_sandra_bullock.jpg P_F_hillary_clinton.jpg",0.499180889920579,"33","Female","right",1,1,FALSE
1407,"E_F_jennifer_aniston.jpg","P_M_donald_trump.jpg","FALSE","pictures/stimuli/E","pictures/stimuli/P","F","M","6","1","12345","E_F_jennifer_aniston.jpg P_M_donald_trump.jpg",0.499180889920579,"33","Female","right",1,1,FALSE
1336,"P_M_david_cameron.jpg","P_M_Tony_Blair.jpg","TRUE","pictures/stimuli/P","pictures/stimuli/P","M","M","6","1","12345","P_M_david_cameron.jpg P_M_Tony_Blair.jpg",0.499180889920579,"33","Female","right",1,1,FALSE
3142,"E_M_tom_hankes.jpg","P_M_bill_clinton.jpg","FALSE","pictures/stimuli/E","pictures/stimuli/P","M","M","5","1","12345","E_M_tom_hankes.jpg P_M_bill_clinton.jpg",-0.643522352066289,"33","Female","right",1,1,FALSE
2335,"E_M_michael_caine.jpg","P_M_bill_clinton.jpg","FALSE","pictures/stimuli/E","pictures/stimuli/P","M","M","5","1","12345","E_M_michael_caine.jpg P_M_bill_clinton.jpg",-0.643522352066289,"33","Female","right",1,1,FALSE
2527,"E_F_jennifer_aniston.jpg","E_M_michael_caine.jpg","TRUE","pictures/stimuli/E","pictures/stimuli/E","F","M","6","1","12345","E_F_jennifer_aniston.jpg E_M_michael_caine.jpg",0.499180889920579,"33","Female","right",1,1,FALSE
3191,"P_F_hillary_clinton.jpg","P_M_boris_johnson.jpg","TRUE","pictures/stimuli/P","pictures/stimuli/P","F","M","5","1","12345","P_F_hillary_clinton.jpg P_M_boris_johnson.jpg",-0.643522352066289,"33","Female","right",1,1,FALSE
3855,"E_M_nicolas_cage.jpg","P_M_bill_clinton.jpg","FALSE","pictures/stimuli/E","pictures/stimuli/P","M","M","6","1","12345","E_M_nicolas_cage.jpg P_M_bill_clinton.jpg",0.499180889920579,"33","Female","right",1,1,FALSE
4374,"E_F_Kate_Winslet.jpg","P_M_david_cameron.jpg","FALSE","pictures/stimuli/E","pictures/stimuli/P","F","M","5","1","12345","E_F_Kate_Winslet.jpg P_M_david_cameron.jpg",-0.643522352066289,"33","Female","right",1,1,FALSE
1647,"E_F_Kate_Winslet.jpg","E_M_michael_caine.jpg","TRUE","pictures/stimuli/E","pictures/stimuli/E","F","M","6","1","12345","E_F_Kate_Winslet.jpg E_M_michael_caine.jpg",0.499180889920579,"33","Female","right",1,1,FALSE
2319,"E_F_jennifer_aniston.jpg","E_F_keira_knightley.jpg","TRUE","pictures/stimuli/E","pictures/stimuli/E","F","F","6","1","12345","E_F_jennifer_aniston.jpg E_F_keira_knightley.jpg",0.499180889920579,"33","Female","right",1,1,FALSE
2623,"E_M_tom_hankes.jpg","P_M_donald_trump.jpg","FALSE","pictures/stimuli/E","pictures/stimuli/P","M","M","4","1","12345","E_M_tom_hankes.jpg P_M_donald_trump.jpg",-1.78622559405316,"33","Female","right",1,1,FALSE
2174,"E_F_keira_knightley.jpg","P_M_bill_clinton.jpg","FALSE","pictures/stimuli/E","pictures/stimuli/P","F","M","6","1","12345","E_F_keira_knightley.jpg P_M_bill_clinton.jpg",0.499180889920579,"33","Female","right",1,1,FALSE
4796,"E_F_sandra_bullock.jpg","E_M_tom_hankes.jpg","TRUE","pictures/stimuli/E","pictures/stimuli/E","F","M","6","1","12345","E_F_sandra_bullock.jpg E_M_tom_hankes.jpg",0.499180889920579,"33","Female","right",1,1,FALSE
3065,"E_F_sandra_bullock.jpg","P_F_nicola_sturgeon.jpg","FALSE","pictures/stimuli/E","pictures/stimuli/P","F","F","3","1","12345","E_F_sandra_bullock.jpg P_F_nicola_sturgeon.jpg",-2.92892883604003,"33","Female","right",1,1,FALSE
2073,"E_F_jennifer_aniston.jpg","P_M_david_cameron.jpg","FALSE","pictures/stimuli/E","pictures/stimuli/P","F","M","5","1","12345","E_F_jennifer_aniston.jpg P_M_david_cameron.jpg",-0.643522352066289,"33","Female","right",1,1,FALSE
2308,"E_F_jennifer_aniston.jpg","E_M_nicolas_cage.jpg","TRUE","pictures/stimuli/E","pictures/stimuli/E","F","M","6","1","12345","E_F_jennifer_aniston.jpg E_M_nicolas_cage.jpg",0.499180889920579,"33","Female","right",1,1,FALSE
2311,"E_M_tom_hankes.jpg","P_M_david_cameron.jpg","FALSE","pictures/stimuli/E","pictures/stimuli/P","M","M","4","1","12345","E_M_tom_hankes.jpg P_M_david_cameron.jpg",-1.78622559405316,"33","Female","right",1,1,FALSE
1689,"E_F_sandra_bullock.jpg","P_M_david_cameron.jpg","FALSE","pictures/stimuli/E","pictures/stimuli/P","F","M","6","1","12345","E_F_sandra_bullock.jpg P_M_david_cameron.jpg",0.499180889920579,"33","Female","right",1,1,FALSE
2389,"E_F_angelina_jolie.jpg","P_F_hillary_clinton.jpg","FALSE","pictures/stimuli/E","pictures/stimuli/P","F","F","6","1","12345","E_F_angelina_jolie.jpg P_F_hillary_clinton.jpg",0.499180889920579,"33","Female","right",1,1,FALSE
1479,"E_M_Hugh_Grant.jpg","P_M_donald_trump.jpg","FALSE","pictures/stimuli/E","pictures/stimuli/P","M","M","6","1","12345","E_M_Hugh_Grant.jpg P_M_donald_trump.jpg",0.499180889920579,"33","Female","right",1,1,FALSE
2503,"E_F_jennifer_aniston.jpg","E_F_Judi_Dench.jpg","TRUE","pictures/stimuli/E","pictures/stimuli/E","F","F","6","1","12345","E_F_jennifer_aniston.jpg E_F_Judi_Dench.jpg",0.499180889920579,"33","Female","right",1,1,FALSE
2887,"P_F_hillary_clinton.jpg","P_M_bill_clinton.jpg","TRUE","pictures/stimuli/P","pictures/stimuli/P","F","M","4","1","12345","P_F_hillary_clinton.jpg P_M_bill_clinton.jpg",-1.78622559405316,"33","Female","right",1,1,FALSE
5126,"P_F_nicola_sturgeon.jpg","P_M_george_Wbush.jpg","TRUE","pictures/stimuli/P","pictures/stimuli/P","F","M","5","1","12345","P_F_nicola_sturgeon.jpg P_M_george_Wbush.jpg",-0.643522352066289,"33","Female","right",1,1,FALSE
1544,"E_M_nicolas_cage.jpg","P_F_nicola_sturgeon.jpg","FALSE","pictures/stimuli/E","pictures/stimuli/P","M","F","6","1","12345","E_M_nicolas_cage.jpg P_F_nicola_sturgeon.jpg",0.499180889920579,"33","Female","right",1,1,FALSE
1714,"E_M_Hugh_Grant.jpg","P_M_george_Wbush.jpg","FALSE","pictures/stimuli/E","pictures/stimuli/P","M","M","6","1","12345","E_M_Hugh_Grant.jpg P_M_george_Wbush.jpg",0.499180889920579,"33","Female","right",1,1,FALSE
1512,"E_F_jennifer_aniston.jpg","P_M_bill_clinton.jpg","FALSE","pictures/stimuli/E","pictures/stimuli/P","F","M","6","1","12345","E_F_jennifer_aniston.jpg P_M_bill_clinton.jpg",0.499180889920579,"33","Female","right",1,1,FALSE
1474,"P_M_david_cameron.jpg","P_M_donald_trump.jpg","TRUE","pictures/stimuli/P","pictures/stimuli/P","M","M","6","1","12345","P_M_david_cameron.jpg P_M_donald_trump.jpg",0.499180889920579,"33","Female","right",1,1,FALSE
1359,"E_F_angelina_jolie.jpg","P_M_donald_trump.jpg","FALSE","pictures/stimuli/E","pictures/stimuli/P","F","M","6","1","12345","E_F_angelina_jolie.jpg P_M_donald_trump.jpg",0.499180889920579,"33","Female","right",1,1,FALSE
3647,"E_F_angelina_jolie.jpg","E_F_Kate_Winslet.jpg","TRUE","pictures/stimuli/E","pictures/stimuli/E","F","F","5","1","12345","E_F_angelina_jolie.jpg E_F_Kate_Winslet.jpg",-0.643522352066289,"33","Female","right",1,1,FALSE
3447,"E_F_Judi_Dench.jpg","P_M_george_Wbush.jpg","FALSE","pictures/stimuli/E","pictures/stimuli/P","F","M","6","1","12345","E_F_Judi_Dench.jpg P_M_george_Wbush.jpg",0.499180889920579,"33","Female","right",1,1,FALSE
1551,"E_F_angelina_jolie.jpg","E_M_michael_caine.jpg","TRUE","pictures/stimuli/E","pictures/stimuli/E","F","M","6","1","12345","E_F_angelina_jolie.jpg E_M_michael_caine.jpg",0.499180889920579,"33","Female","right",1,1,FALSE
1831,"P_F_nicola_sturgeon.jpg","P_M_donald_trump.jpg","TRUE","pictures/stimuli/P","pictures/stimuli/P","F","M","6","1","12345","P_F_nicola_sturgeon.jpg P_M_donald_trump.jpg",0.499180889920579,"33","Female","right",1,1,FALSE
2063,"E_F_Judi_Dench.jpg","P_M_Tony_Blair.jpg","FALSE","pictures/stimuli/E","pictures/stimuli/P","F","M","4","1","12345","E_F_Judi_Dench.jpg P_M_Tony_Blair.jpg",-1.78622559405316,"33","Female","right",1,1,FALSE
1807,"E_F_angelina_jolie.jpg","P_F_nicola_sturgeon.jpg","FALSE","pictures/stimuli/E","pictures/stimuli/P","F","F","6","1","12345","E_F_angelina_jolie.jpg P_F_nicola_sturgeon.jpg",0.499180889920579,"33","Female","right",1,1,FALSE
2278,"E_M_Hugh_Grant.jpg","P_M_david_cameron.jpg","FALSE","pictures/stimuli/E","pictures/stimuli/P","M","M","6","1","12345","E_M_Hugh_Grant.jpg P_M_david_cameron.jpg",0.499180889920579,"33","Female","right",1,1,FALSE
2498,"E_F_keira_knightley.jpg","P_F_hillary_clinton.jpg","FALSE","pictures/stimuli/E","pictures/stimuli/P","F","F","6","1","12345","E_F_keira_knightley.jpg P_F_hillary_clinton.jpg",0.499180889920579,"33","Female","right",1,1,FALSE
2382,"E_F_Judi_Dench.jpg","E_F_keira_knightley.jpg","TRUE","pictures/stimuli/E","pictures/stimuli/E","F","F","6","1","12345","E_F_Judi_Dench.jpg E_F_keira_knightley.jpg",0.499180889920579,"33","Female","right",1,1,FALSE
1768,"E_F_angelina_jolie.jpg","E_M_tom_hankes.jpg","TRUE","pictures/stimuli/E","pictures/stimuli/E","F","M","6","1","12345","E_F_angelina_jolie.jpg E_M_tom_hankes.jpg",0.499180889920579,"33","Female","right",1,1,FALSE
1559,"E_F_jennifer_aniston.jpg","P_M_boris_johnson.jpg","FALSE","pictures/stimuli/E","pictures/stimuli/P","F","M","6","1","12345","E_F_jennifer_aniston.jpg P_M_boris_johnson.jpg",0.499180889920579,"33","Female","right",1,1,FALSE
2032,"E_M_tom_hankes.jpg","P_M_boris_johnson.jpg","FALSE","pictures/stimuli/E","pictures/stimuli/P","M","M","6","1","12345","E_M_tom_hankes.jpg P_M_boris_johnson.jpg",0.499180889920579,"33","Female","right",1,1,FALSE
2789,"E_M_michael_caine.jpg","P_M_david_cameron.jpg","FALSE","pictures/stimuli/E","pictures/stimuli/P","M","M","6","1","12345","E_M_michael_caine.jpg P_M_david_cameron.jpg",0.499180889920579,"33","Female","right",1,1,FALSE
2535,"E_M_Hugh_Grant.jpg","E_M_michael_caine.jpg","TRUE","pictures/stimuli/E","pictures/stimuli/E","M","M","6","1","12345","E_M_Hugh_Grant.jpg E_M_michael_caine.jpg",0.499180889920579,"33","Female","right",1,1,FALSE
2919,"E_F_Judi_Dench.jpg","E_M_michael_caine.jpg","TRUE","pictures/stimuli/E","pictures/stimuli/E","F","M","6","1","12345","E_F_Judi_Dench.jpg E_M_michael_caine.jpg",0.499180889920579,"33","Female","right",1,1,FALSE
2819,"P_M_david_cameron.jpg","P_M_george_Wbush.jpg","TRUE","pictures/stimuli/P","pictures/stimuli/P","M","M","5","1","12345","P_M_david_cameron.jpg P_M_george_Wbush.jpg",-0.643522352066289,"33","Female","right",1,1,FALSE
1831,"P_F_nicola_sturgeon.jpg","P_M_Tony_Blair.jpg","TRUE","pictures/stimuli/P","pictures/stimuli/P","F","M","6","1","12345","P_F_nicola_sturgeon.jpg P_M_Tony_Blair.jpg",0.499180889920579,"33","Female","right",1,1,FALSE
6215,"E_M_nicolas_cage.jpg","E_M_robert_de_niro.jpg","TRUE","pictures/stimuli/E","pictures/stimuli/E","M","M","4","1","12345","E_M_nicolas_cage.jpg E_M_robert_de_niro.jpg",-1.78622559405316,"33","Female","right",1,1,FALSE
1958,"E_F_sandra_bullock.jpg","E_M_nicolas_cage.jpg","TRUE","pictures/stimuli/E","pictures/stimuli/E","F","M","6","1","12345","E_F_sandra_bullock.jpg E_M_nicolas_cage.jpg",0.499180889920579,"33","Female","right",1,1,FALSE
3263,"P_M_bill_clinton.jpg","P_M_Tony_Blair.jpg","TRUE","pictures/stimuli/P","pictures/stimuli/P","M","M","5","1","12345","P_M_bill_clinton.jpg P_M_Tony_Blair.jpg",-0.643522352066289,"33","Female","right",1,1,FALSE
1815,"E_F_Kate_Winslet.jpg","P_M_george_Wbush.jpg","FALSE","pictures/stimuli/E","pictures/stimuli/P","F","M","6","1","12345","E_F_Kate_Winslet.jpg P_M_george_Wbush.jpg",0.499180889920579,"33","Female","right",1,1,FALSE
1471,"E_F_angelina_jolie.jpg","E_F_keira_knightley.jpg","TRUE","pictures/stimuli/E","pictures/stimuli/E","F","F","6","1","12345","E_F_angelina_jolie.jpg E_F_keira_knightley.jpg",0.499180889920579,"33","Female","right",1,1,FALSE
2271,"E_F_jennifer_aniston.jpg","P_M_george_Wbush.jpg","FALSE","pictures/stimuli/E","pictures/stimuli/P","F","M","6","1","12345","E_F_jennifer_aniston.jpg P_M_george_Wbush.jpg",0.499180889920579,"33","Female","right",1,1,FALSE
2606,"P_F_hillary_clinton.jpg","P_M_george_Wbush.jpg","TRUE","pictures/stimuli/P","pictures/stimuli/P","F","M","6","1","12345","P_F_hillary_clinton.jpg P_M_george_Wbush.jpg",0.499180889920579,"33","Female","right",1,1,FALSE
1318,"E_F_keira_knightley.jpg","E_M_Hugh_Grant.jpg","TRUE","pictures/stimuli/E","pictures/stimuli/E","F","M","6","1","12345","E_F_keira_knightley.jpg E_M_Hugh_Grant.jpg",0.499180889920579,"33","Female","right",1,1,FALSE
2567,"E_M_robert_de_niro.jpg","P_M_george_Wbush.jpg","FALSE","pictures/stimuli/E","pictures/stimuli/P","M","M","5","1","12345","E_M_robert_de_niro.jpg P_M_george_Wbush.jpg",-0.643522352066289,"33","Female","right",1,1,FALSE
1381,"P_M_boris_johnson.jpg","P_M_george_Wbush.jpg","TRUE","pictures/stimuli/P","pictures/stimuli/P","M","M","6","1","12345","P_M_boris_johnson.jpg P_M_george_Wbush.jpg",0.499180889920579,"33","Female","right",1,1,FALSE
1407,"E_F_angelina_jolie.jpg","P_M_george_Wbush.jpg","FALSE","pictures/stimuli/E","pictures/stimuli/P","F","M","6","1","12345","E_F_angelina_jolie.jpg P_M_george_Wbush.jpg",0.499180889920579,"33","Female","right",1,1,FALSE
1847,"E_F_angelina_jolie.jpg","E_F_sandra_bullock.jpg","TRUE","pictures/stimuli/E","pictures/stimuli/E","F","F","6","1","12345","E_F_angelina_jolie.jpg E_F_sandra_bullock.jpg",0.499180889920579,"33","Female","right",1,1,FALSE
1480,"E_M_nicolas_cage.jpg","P_M_donald_trump.jpg","FALSE","pictures/stimuli/E","pictures/stimuli/P","M","M","6","1","12345","E_M_nicolas_cage.jpg P_M_donald_trump.jpg",0.499180889920579,"33","Female","right",1,1,FALSE
3831,"E_M_michael_caine.jpg","E_M_tom_hankes.jpg","TRUE","pictures/stimuli/E","pictures/stimuli/E","M","M","5","1","12345","E_M_michael_caine.jpg E_M_tom_hankes.jpg",-0.643522352066289,"33","Female","right",1,1,FALSE
2166,"P_F_nicola_sturgeon.jpg","P_M_bill_clinton.jpg","TRUE","pictures/stimuli/P","pictures/stimuli/P","F","M","6","1","12345","P_F_nicola_sturgeon.jpg P_M_bill_clinton.jpg",0.499180889920579,"33","Female","right",1,1,FALSE
2726,"E_M_tom_hankes.jpg","P_F_tehresy_may.jpg","FALSE","pictures/stimuli/E","pictures/stimuli/P","M","F","6","1","12345","E_M_tom_hankes.jpg P_F_tehresy_may.jpg",0.499180889920579,"33","Female","right",1,1,FALSE
1511,"E_F_keira_knightley.jpg","P_M_Tony_Blair.jpg","FALSE","pictures/stimuli/E","pictures/stimuli/P","F","M","6","1","12345","E_F_keira_knightley.jpg P_M_Tony_Blair.jpg",0.499180889920579,"33","Female","right",1,1,FALSE
1983,"E_F_Judi_Dench.jpg","P_M_david_cameron.jpg","FALSE","pictures/stimuli/E","pictures/stimuli/P","F","M","6","1","12345","E_F_Judi_Dench.jpg P_M_david_cameron.jpg",0.499180889920579,"33","Female","right",1,1,FALSE
1892,"E_F_angelina_jolie.jpg","E_M_robert_de_niro.jpg","TRUE","pictures/stimuli/E","pictures/stimuli/E","F","M","6","1","12345","E_F_angelina_jolie.jpg E_M_robert_de_niro.jpg",0.499180889920579,"33","Female","right",1,1,FALSE
2511,"E_M_michael_caine.jpg","P_F_tehresy_may.jpg","FALSE","pictures/stimuli/E","pictures/stimuli/P","M","F","6","1","12345","E_M_michael_caine.jpg P_F_tehresy_may.jpg",0.499180889920579,"33","Female","right",1,1,FALSE
3383,"E_F_Kate_Winslet.jpg","E_M_tom_hankes.jpg","TRUE","pictures/stimuli/E","pictures/stimuli/E","F","M","6","1","12345","E_F_Kate_Winslet.jpg E_M_tom_hankes.jpg",0.499180889920579,"33","Female","right",1,1,FALSE
2853,"E_F_angelina_jolie.jpg","E_F_jennifer_aniston.jpg","TRUE","pictures/stimuli/E","pictures/stimuli/E","F","F","6","1","12345","E_F_angelina_jolie.jpg E_F_jennifer_aniston.jpg",0.499180889920579,"33","Female","right",1,1,FALSE
1421,"E_M_Hugh_Grant.jpg","P_M_bill_clinton.jpg","FALSE","pictures/stimuli/E","pictures/stimuli/P","M","M","6","1","12345","E_M_Hugh_Grant.jpg P_M_bill_clinton.jpg",0.499180889920579,"33","Female","right",1,1,FALSE
3606,"E_F_Kate_Winslet.jpg","P_F_hillary_clinton.jpg","FALSE","pictures/stimuli/E","pictures/stimuli/P","F","F","4","1","12345","E_F_Kate_Winslet.jpg P_F_hillary_clinton.jpg",-1.78622559405316,"33","Female","right",1,1,FALSE
2623,"E_M_tom_hankes.jpg","P_F_hillary_clinton.jpg","FALSE","pictures/stimuli/E","pictures/stimuli/P","M","F","5","1","12345","E_M_tom_hankes.jpg P_F_hillary_clinton.jpg",-0.643522352066289,"33","Female","right",1,1,FALSE
1607,"P_M_boris_johnson.jpg","P_M_Tony_Blair.jpg","TRUE","pictures/stimuli/P","pictures/stimuli/P","M","M","6","1","12345","P_M_boris_johnson.jpg P_M_Tony_Blair.jpg",0.499180889920579,"33","Female","right",1,1,FALSE
1335,"E_F_Kate_Winslet.jpg","P_F_tehresy_may.jpg","FALSE","pictures/stimuli/E","pictures/stimuli/P","F","F","6","1","12345","E_F_Kate_Winslet.jpg P_F_tehresy_may.jpg",0.499180889920579,"33","Female","right",1,1,FALSE
1551,"E_F_jennifer_aniston.jpg","E_M_Hugh_Grant.jpg","TRUE","pictures/stimuli/E","pictures/stimuli/E","F","M","6","1","12345","E_F_jennifer_aniston.jpg E_M_Hugh_Grant.jpg",0.499180889920579,"33","Female","right",1,1,FALSE
3135,"E_F_Kate_Winslet.jpg","P_M_bill_clinton.jpg","FALSE","pictures/stimuli/E","pictures/stimuli/P","F","M","6","1","12345","E_F_Kate_Winslet.jpg P_M_bill_clinton.jpg",0.499180889920579,"33","Female","right",1,1,FALSE
2584,"E_F_Judi_Dench.jpg","P_F_tehresy_may.jpg","FALSE","pictures/stimuli/E","pictures/stimuli/P","F","F","3","1","12345","E_F_Judi_Dench.jpg P_F_tehresy_may.jpg",-2.92892883604003,"33","Female","right",1,1,FALSE
1943,"E_M_nicolas_cage.jpg","P_M_Tony_Blair.jpg","FALSE","pictures/stimuli/E","pictures/stimuli/P","M","M","6","1","12345","E_M_nicolas_cage.jpg P_M_Tony_Blair.jpg",0.499180889920579,"33","Female","right",1,1,FALSE
1262,"P_F_tehresy_may.jpg","P_M_boris_johnson.jpg","TRUE","pictures/stimuli/P","pictures/stimuli/P","F","M","6","1","12345","P_F_tehresy_may.jpg P_M_boris_johnson.jpg",0.499180889920579,"33","Female","right",1,1,FALSE
1423,"E_F_angelina_jolie.jpg","E_M_Hugh_Grant.jpg","TRUE","pictures/stimuli/E","pictures/stimuli/E","F","M","6","1","12345","E_F_angelina_jolie.jpg E_M_Hugh_Grant.jpg",0.499180889920579,"33","Female","right",1,1,FALSE
1184,"E_F_angelina_jolie.jpg","P_M_Tony_Blair.jpg","FALSE","pictures/stimuli/E","pictures/stimuli/P","F","M","6","1","12345","E_F_angelina_jolie.jpg P_M_Tony_Blair.jpg",0.499180889920579,"33","Female","right",1,1,FALSE
1396,"E_M_robert_de_niro.jpg","P_F_tehresy_may.jpg","FALSE","pictures/stimuli/E","pictures/stimuli/P","M","F","6","1","12345","E_M_robert_de_niro.jpg P_F_tehresy_may.jpg",0.499180889920579,"33","Female","right",1,1,FALSE
4367,"E_F_Judi_Dench.jpg","P_M_bill_clinton.jpg","FALSE","pictures/stimuli/E","pictures/stimuli/P","F","M","5","1","12345","E_F_Judi_Dench.jpg P_M_bill_clinton.jpg",-0.643522352066289,"33","Female","right",1,1,FALSE
1375,"E_F_jennifer_aniston.jpg","E_F_sandra_bullock.jpg","TRUE","pictures/stimuli/E","pictures/stimuli/E","F","F","6","1","12345","E_F_jennifer_aniston.jpg E_F_sandra_bullock.jpg",0.499180889920579,"33","Female","right",1,1,FALSE
2569,"E_M_Hugh_Grant.jpg","P_F_nicola_sturgeon.jpg","FALSE","pictures/stimuli/E","pictures/stimuli/P","M","F","6","1","12345","E_M_Hugh_Grant.jpg P_F_nicola_sturgeon.jpg",0.499180889920579,"33","Female","right",1,1,FALSE
1531,"E_M_Hugh_Grant.jpg","E_M_tom_hankes.jpg","TRUE","pictures/stimuli/E","pictures/stimuli/E","M","M","6","1","12345","E_M_Hugh_Grant.jpg E_M_tom_hankes.jpg",0.499180889920579,"33","Female","right",1,1,FALSE
3308,"E_M_tom_hankes.jpg","P_M_Tony_Blair.jpg","FALSE","pictures/stimuli/E","pictures/stimuli/P","M","M","5","1","12345","E_M_tom_hankes.jpg P_M_Tony_Blair.jpg",-0.643522352066289,"33","Female","right",1,1,FALSE
3247,"P_M_bill_clinton.jpg","P_M_david_cameron.jpg","TRUE","pictures/stimuli/P","pictures/stimuli/P","M","M","6","1","12345","P_M_bill_clinton.jpg P_M_david_cameron.jpg",0.499180889920579,"33","Female","right",1,1,FALSE
4962,"E_F_jennifer_aniston.jpg","P_F_nicola_sturgeon.jpg","FALSE","pictures/stimuli/E","pictures/stimuli/P","F","F","6","1","12345","E_F_jennifer_aniston.jpg P_F_nicola_sturgeon.jpg",0.499180889920579,"33","Female","right",1,1,FALSE
3513,"E_F_Judi_Dench.jpg","E_M_Hugh_Grant.jpg","TRUE","pictures/stimuli/E","pictures/stimuli/E","F","M","6","1","12345","E_F_Judi_Dench.jpg E_M_Hugh_Grant.jpg",0.499180889920579,"33","Female","right",1,1,FALSE
1495,"P_M_bill_clinton.jpg","P_M_boris_johnson.jpg","TRUE","pictures/stimuli/P","pictures/stimuli/P","M","M","6","1","12345","P_M_bill_clinton.jpg P_M_boris_johnson.jpg",0.499180889920579,"33","Female","right",1,1,FALSE
1312,"E_M_Hugh_Grant.jpg","P_M_boris_johnson.jpg","FALSE","pictures/stimuli/E","pictures/stimuli/P","M","M","6","1","12345","E_M_Hugh_Grant.jpg P_M_boris_johnson.jpg",0.499180889920579,"33","Female","right",1,1,FALSE
3022,"E_F_sandra_bullock.jpg","P_M_bill_clinton.jpg","FALSE","pictures/stimuli/E","pictures/stimuli/P","F","M","6","1","12345","E_F_sandra_bullock.jpg P_M_bill_clinton.jpg",0.499180889920579,"33","Female","right",1,1,FALSE
2699,"E_F_sandra_bullock.jpg","E_M_robert_de_niro.jpg","TRUE","pictures/stimuli/E","pictures/stimuli/E","F","M","6","1","12345","E_F_sandra_bullock.jpg E_M_robert_de_niro.jpg",0.499180889920579,"33","Female","right",1,1,FALSE
5895,"E_F_Judi_Dench.jpg","E_M_nicolas_cage.jpg","TRUE","pictures/stimuli/E","pictures/stimuli/E","F","M","6","1","12345","E_F_Judi_Dench.jpg E_M_nicolas_cage.jpg",0.499180889920579,"33","Female","right",1,1,FALSE
1766,"P_F_hillary_clinton.jpg","P_F_nicola_sturgeon.jpg","TRUE","pictures/stimuli/P","pictures/stimuli/P","F","F","6","1","12345","P_F_hillary_clinton.jpg P_F_nicola_sturgeon.jpg",0.499180889920579,"33","Female","right",1,1,FALSE
3032,"E_M_Hugh_Grant.jpg","P_F_tehresy_may.jpg","FALSE","pictures/stimuli/E","pictures/stimuli/P","M","F","6","1","12345","E_M_Hugh_Grant.jpg P_F_tehresy_may.jpg",0.499180889920579,"33","Female","right",1,1,FALSE
1319,"E_M_robert_de_niro.jpg","P_F_hillary_clinton.jpg","FALSE","pictures/stimuli/E","pictures/stimuli/P","M","F","6","1","12345","E_M_robert_de_niro.jpg P_F_hillary_clinton.jpg",0.499180889920579,"33","Female","right",1,1,FALSE
2299,"E_F_keira_knightley.jpg","E_M_robert_de_niro.jpg","TRUE","pictures/stimuli/E","pictures/stimuli/E","F","M","5","1","12345","E_F_keira_knightley.jpg E_M_robert_de_niro.jpg",-0.643522352066289,"33","Female","right",1,1,FALSE
2143,"E_F_sandra_bullock.jpg","P_M_donald_trump.jpg","FALSE","pictures/stimuli/E","pictures/stimuli/P","F","M","6","1","12345","E_F_sandra_bullock.jpg P_M_donald_trump.jpg",0.499180889920579,"33","Female","right",1,1,FALSE
2740,"E_M_Hugh_Grant.jpg","P_F_hillary_clinton.jpg","FALSE","pictures/stimuli/E","pictures/stimuli/P","M","F","6","1","12345","E_M_Hugh_Grant.jpg P_F_hillary_clinton.jpg",0.499180889920579,"33","Female","right",1,1,FALSE
2607,"E_F_sandra_bullock.jpg","P_M_george_Wbush.jpg","FALSE","pictures/stimuli/E","pictures/stimuli/P","F","M","6","1","12345","E_F_sandra_bullock.jpg P_M_george_Wbush.jpg",0.499180889920579,"33","Female","right",1,1,FALSE
6108,"E_M_nicolas_cage.jpg","P_M_david_cameron.jpg","FALSE","pictures/stimuli/E","pictures/stimuli/P","M","M","4","1","12345","E_M_nicolas_cage.jpg P_M_david_cameron.jpg",-1.78622559405316,"33","Female","right",1,1,FALSE
2855,"E_F_jennifer_aniston.jpg","E_M_tom_hankes.jpg","TRUE","pictures/stimuli/E","pictures/stimuli/E","F","M","5","1","12345","E_F_jennifer_aniston.jpg E_M_tom_hankes.jpg",-0.643522352066289,"33","Female","right",1,1,FALSE
2008,"E_M_nicolas_cage.jpg","P_M_boris_johnson.jpg","FALSE","pictures/stimuli/E","pictures/stimuli/P","M","M","6","1","12345","E_M_nicolas_cage.jpg P_M_boris_johnson.jpg",0.499180889920579,"33","Female","right",1,1,FALSE
2112,"P_F_tehresy_may.jpg","P_M_Tony_Blair.jpg","TRUE","pictures/stimuli/P","pictures/stimuli/P","F","M","4","1","12345","P_F_tehresy_may.jpg P_M_Tony_Blair.jpg",-1.78622559405316,"33","Female","right",1,1,FALSE
2483,"E_M_Hugh_Grant.jpg","P_M_Tony_Blair.jpg","FALSE","pictures/stimuli/E","pictures/stimuli/P","M","M","6","1","12345","E_M_Hugh_Grant.jpg P_M_Tony_Blair.jpg",0.499180889920579,"33","Female","right",1,1,FALSE
1135,"E_F_Kate_Winslet.jpg","P_M_Tony_Blair.jpg","FALSE","pictures/stimuli/E","pictures/stimuli/P","F","M","6","1","12345","E_F_Kate_Winslet.jpg P_M_Tony_Blair.jpg",0.499180889920579,"33","Female","right",1,1,FALSE
1825,"E_F_Kate_Winslet.jpg","E_M_Hugh_Grant.jpg","TRUE","pictures/stimuli/E","pictures/stimuli/E","F","M","6","1","12345","E_F_Kate_Winslet.jpg E_M_Hugh_Grant.jpg",0.499180889920579,"33","Female","right",1,1,FALSE
2414,"E_M_michael_caine.jpg","P_M_Tony_Blair.jpg","FALSE","pictures/stimuli/E","pictures/stimuli/P","M","M","6","1","12345","E_M_michael_caine.jpg P_M_Tony_Blair.jpg",0.499180889920579,"33","Female","right",1,1,FALSE
1975,"P_M_george_Wbush.jpg","P_M_Tony_Blair.jpg","TRUE","pictures/stimuli/P","pictures/stimuli/P","M","M","4","1","12345","P_M_george_Wbush.jpg P_M_Tony_Blair.jpg",-1.78622559405316,"33","Female","right",1,1,FALSE
3711,"E_F_angelina_jolie.jpg","P_F_tehresy_may.jpg","FALSE","pictures/stimuli/E","pictures/stimuli/P","F","F","6","1","12345","E_F_angelina_jolie.jpg P_F_tehresy_may.jpg",0.499180889920579,"33","Female","right",1,1,FALSE
13062,"E_F_sandra_bullock.jpg","E_M_michael_caine.jpg","TRUE","pictures/stimuli/E","pictures/stimuli/E","F","M","6","1","12345","E_F_sandra_bullock.jpg E_M_michael_caine.jpg",0.499180889920579,"33","Female","right",1,1,FALSE
3199,"E_F_Kate_Winslet.jpg","P_M_boris_johnson.jpg","FALSE","pictures/stimuli/E","pictures/stimuli/P","F","M","6","1","12345","E_F_Kate_Winslet.jpg P_M_boris_johnson.jpg",0.499180889920579,"33","Female","right",1,1,FALSE
4539,"P_F_hillary_clinton.jpg","P_M_david_cameron.jpg","TRUE","pictures/stimuli/P","pictures/stimuli/P","F","M","5","1","12345","P_F_hillary_clinton.jpg P_M_david_cameron.jpg",-0.643522352066289,"33","Female","right",1,1,FALSE
3550,"E_M_nicolas_cage.jpg","P_F_tehresy_may.jpg","FALSE","pictures/stimuli/E","pictures/stimuli/P","M","F","6","1","12345","E_M_nicolas_cage.jpg P_F_tehresy_may.jpg",0.499180889920579,"33","Female","right",1,1,FALSE
2284,"E_F_Judi_Dench.jpg","E_M_tom_hankes.jpg","TRUE","pictures/stimuli/E","pictures/stimuli/E","F","M","6","1","12345","E_F_Judi_Dench.jpg E_M_tom_hankes.jpg",0.499180889920579,"33","Female","right",1,1,FALSE
2886,"E_F_Judi_Dench.jpg","P_F_hillary_clinton.jpg","FALSE","pictures/stimuli/E","pictures/stimuli/P","F","F","6","1","12345","E_F_Judi_Dench.jpg P_F_hillary_clinton.jpg",0.499180889920579,"33","Female","right",1,1,FALSE
2719,"E_F_jennifer_aniston.jpg","E_F_Kate_Winslet.jpg","TRUE","pictures/stimuli/E","pictures/stimuli/E","F","F","4","1","12345","E_F_jennifer_aniston.jpg E_F_Kate_Winslet.jpg",-1.78622559405316,"33","Female","right",1,1,FALSE
2255,"E_M_Hugh_Grant.jpg","E_M_robert_de_niro.jpg","TRUE","pictures/stimuli/E","pictures/stimuli/E","M","M","6","1","12345","E_M_Hugh_Grant.jpg E_M_robert_de_niro.jpg",0.499180889920579,"33","Female","right",1,1,FALSE
5207,"E_F_keira_knightley.jpg","E_F_sandra_bullock.jpg","TRUE","pictures/stimuli/E","pictures/stimuli/E","F","F","1","1","12345","E_F_keira_knightley.jpg E_F_sandra_bullock.jpg",-5.21433532001376,"33","Female","right",1,1,FALSE
1929,"E_F_keira_knightley.jpg","P_M_george_Wbush.jpg","FALSE","pictures/stimuli/E","pictures/stimuli/P","F","M","6","1","12345","E_F_keira_knightley.jpg P_M_george_Wbush.jpg",0.499180889920579,"33","Female","right",1,1,FALSE
2296,"E_M_robert_de_niro.jpg","P_M_boris_johnson.jpg","FALSE","pictures/stimuli/E","pictures/stimuli/P","M","M","6","1","12345","E_M_robert_de_niro.jpg P_M_boris_johnson.jpg",0.499180889920579,"33","Female","right",1,1,FALSE
1936,"E_M_michael_caine.jpg","P_F_nicola_sturgeon.jpg","FALSE","pictures/stimuli/E","pictures/stimuli/P","M","F","6","1","12345","E_M_michael_caine.jpg P_F_nicola_sturgeon.jpg",0.499180889920579,"33","Female","right",1,1,FALSE
1759,"E_F_Kate_Winslet.jpg","E_F_keira_knightley.jpg","TRUE","pictures/stimuli/E","pictures/stimuli/E","F","F","6","1","12345","E_F_Kate_Winslet.jpg E_F_keira_knightley.jpg",0.499180889920579,"33","Female","right",1,1,FALSE
1824,"E_F_Judi_Dench.jpg","E_F_Kate_Winslet.jpg","TRUE","pictures/stimuli/E","pictures/stimuli/E","F","F","6","1","12345","E_F_Judi_Dench.jpg E_F_Kate_Winslet.jpg",0.499180889920579,"33","Female","right",1,1,FALSE
1527,"P_M_bill_clinton.jpg","P_M_george_Wbush.jpg","TRUE","pictures/stimuli/P","pictures/stimuli/P","M","M","6","1","12345","P_M_bill_clinton.jpg P_M_george_Wbush.jpg",0.499180889920579,"33","Female","right",1,1,FALSE
1714,"E_M_michael_caine.jpg","E_M_robert_de_niro.jpg","TRUE","pictures/stimuli/E","pictures/stimuli/E","M","M","6","1","12345","E_M_michael_caine.jpg E_M_robert_de_niro.jpg",0.499180889920579,"33","Female","right",1,1,FALSE
2190,"E_F_jennifer_aniston.jpg","P_F_hillary_clinton.jpg","FALSE","pictures/stimuli/E","pictures/stimuli/P","F","F","5","1","12345","E_F_jennifer_aniston.jpg P_F_hillary_clinton.jpg",-0.643522352066289,"33","Female","right",1,1,FALSE
1150,"E_F_jennifer_aniston.jpg","P_F_tehresy_may.jpg","FALSE","pictures/stimuli/E","pictures/stimuli/P","F","F","6","1","12345","E_F_jennifer_aniston.jpg P_F_tehresy_may.jpg",0.499180889920579,"33","Female","right",1,1,FALSE
1775,"P_M_donald_trump.jpg","P_M_george_Wbush.jpg","TRUE","pictures/stimuli/P","pictures/stimuli/P","M","M","6","1","12345","P_M_donald_trump.jpg P_M_george_Wbush.jpg",0.499180889920579,"33","Female","right",1,1,FALSE
2159,"E_F_angelina_jolie.jpg","P_M_david_cameron.jpg","FALSE","pictures/stimuli/E","pictures/stimuli/P","F","M","6","1","12345","E_F_angelina_jolie.jpg P_M_david_cameron.jpg",0.499180889920579,"33","Female","right",1,1,FALSE
1463,"E_M_nicolas_cage.jpg","P_M_george_Wbush.jpg","FALSE","pictures/stimuli/E","pictures/stimuli/P","M","M","6","1","12345","E_M_nicolas_cage.jpg P_M_george_Wbush.jpg",0.499180889920579,"33","Female","right",1,1,FALSE
3380,"E_M_Hugh_Grant.jpg","P_F_tehresy_may.jpg","FALSE","pictures/stimuli/E","pictures/stimuli/P","M","F","6","2","12345","E_M_Hugh_Grant.jpg P_F_tehresy_may.jpg",0.803113498477221,"29","Female","right",1,1,FALSE
2869,"E_M_nicolas_cage.jpg","E_M_robert_de_niro.jpg","TRUE","pictures/stimuli/E","pictures/stimuli/E","M","M","2","2","12345","E_M_nicolas_cage.jpg E_M_robert_de_niro.jpg",-1.06917563907704,"29","Female","right",1,0,TRUE
3584,"P_F_hillary_clinton.jpg","P_M_Tony_Blair.jpg","TRUE","pictures/stimuli/P","pictures/stimuli/P","F","M","4","2","12345","P_F_hillary_clinton.jpg P_M_Tony_Blair.jpg",-0.133031070299908,"29","Female","right",1,1,FALSE
2226,"E_F_jennifer_aniston.jpg","P_M_david_cameron.jpg","FALSE","pictures/stimuli/E","pictures/stimuli/P","F","M","6","2","12345","E_F_jennifer_aniston.jpg P_M_david_cameron.jpg",0.803113498477221,"29","Female","right",1,1,FALSE
2264,"E_F_angelina_jolie.jpg","P_F_tehresy_may.jpg","FALSE","pictures/stimuli/E","pictures/stimuli/P","F","F","6","2","12345","E_F_angelina_jolie.jpg P_F_tehresy_may.jpg",0.803113498477221,"29","Female","right",1,1,FALSE
2620,"E_M_michael_caine.jpg","E_M_nicolas_cage.jpg","TRUE","pictures/stimuli/E","pictures/stimuli/E","M","M","5","2","12345","E_M_michael_caine.jpg E_M_nicolas_cage.jpg",0.335041214088657,"29","Female","right",0,1,TRUE
3022,"P_F_tehresy_may.jpg","P_M_bill_clinton.jpg","TRUE","pictures/stimuli/P","pictures/stimuli/P","F","M","2","2","12345","P_F_tehresy_may.jpg P_M_bill_clinton.jpg",-1.06917563907704,"29","Female","right",1,0,TRUE
2382,"E_M_nicolas_cage.jpg","E_M_tom_hankes.jpg","TRUE","pictures/stimuli/E","pictures/stimuli/E","M","M","5","2","12345","E_M_nicolas_cage.jpg E_M_tom_hankes.jpg",0.335041214088657,"29","Female","right",1,1,FALSE
2530,"E_M_nicolas_cage.jpg","P_F_hillary_clinton.jpg","FALSE","pictures/stimuli/E","pictures/stimuli/P","M","F","6","2","12345","E_M_nicolas_cage.jpg P_F_hillary_clinton.jpg",0.803113498477221,"29","Female","right",1,1,FALSE
2076,"E_F_Kate_Winslet.jpg","P_M_Tony_Blair.jpg","FALSE","pictures/stimuli/E","pictures/stimuli/P","F","M","4","2","12345","E_F_Kate_Winslet.jpg P_M_Tony_Blair.jpg",-0.133031070299908,"29","Female","right",1,1,FALSE
4502,"E_F_angelina_jolie.jpg","P_F_hillary_clinton.jpg","FALSE","pictures/stimuli/E","pictures/stimuli/P","F","F","3","2","12345","E_F_angelina_jolie.jpg P_F_hillary_clinton.jpg",-0.601103354688473,"29","Female","right",1,1,FALSE
2551,"E_M_Hugh_Grant.jpg","E_M_nicolas_cage.jpg","TRUE","pictures/stimuli/E","pictures/stimuli/E","M","M","5","2","12345","E_M_Hugh_Grant.jpg E_M_nicolas_cage.jpg",0.335041214088657,"29","Female","right",1,1,FALSE
3605,"E_F_Kate_Winslet.jpg","E_M_nicolas_cage.jpg","TRUE","pictures/stimuli/E","pictures/stimuli/E","F","M","6","2","12345","E_F_Kate_Winslet.jpg E_M_nicolas_cage.jpg",0.803113498477221,"29","Female","right",1,1,FALSE
2267,"E_F_keira_knightley.jpg","P_F_tehresy_may.jpg","FALSE","pictures/stimuli/E","pictures/stimuli/P","F","F","6","2","12345","E_F_keira_knightley.jpg P_F_tehresy_may.jpg",0.803113498477221,"29","Female","right",1,1,FALSE
2130,"E_F_Judi_Dench.jpg","P_M_david_cameron.jpg","FALSE","pictures/stimuli/E","pictures/stimuli/P","F","M","4","2","12345","E_F_Judi_Dench.jpg P_M_david_cameron.jpg",-0.133031070299908,"29","Female","right",1,1,FALSE
3851,"E_F_keira_knightley.jpg","P_M_boris_johnson.jpg","FALSE","pictures/stimuli/E","pictures/stimuli/P","F","M","6","2","12345","E_F_keira_knightley.jpg P_M_boris_johnson.jpg",0.803113498477221,"29","Female","right",1,1,FALSE
1866,"E_F_keira_knightley.jpg","E_M_nicolas_cage.jpg","TRUE","pictures/stimuli/E","pictures/stimuli/E","F","M","6","2","12345","E_F_keira_knightley.jpg E_M_nicolas_cage.jpg",0.803113498477221,"29","Female","right",1,1,FALSE
1948,"E_M_tom_hankes.jpg","P_M_bill_clinton.jpg","FALSE","pictures/stimuli/E","pictures/stimuli/P","M","M","4","2","12345","E_M_tom_hankes.jpg P_M_bill_clinton.jpg",-0.133031070299908,"29","Female","right",1,0,TRUE
1599,"E_M_Hugh_Grant.jpg","P_M_Tony_Blair.jpg","FALSE","pictures/stimuli/E","pictures/stimuli/P","M","M","6","2","12345","E_M_Hugh_Grant.jpg P_M_Tony_Blair.jpg",0.803113498477221,"29","Female","right",1,1,FALSE
1671,"E_M_tom_hankes.jpg","P_F_tehresy_may.jpg","FALSE","pictures/stimuli/E","pictures/stimuli/P","M","F","6","2","12345","E_M_tom_hankes.jpg P_F_tehresy_may.jpg",0.803113498477221,"29","Female","right",1,1,FALSE
2432,"E_F_Judi_Dench.jpg","P_F_tehresy_may.jpg","FALSE","pictures/stimuli/E","pictures/stimuli/P","F","F","3","2","12345","E_F_Judi_Dench.jpg P_F_tehresy_may.jpg",-0.601103354688473,"29","Female","right",1,1,FALSE
1712,"E_F_keira_knightley.jpg","E_M_robert_de_niro.jpg","TRUE","pictures/stimuli/E","pictures/stimuli/E","F","M","6","2","12345","E_F_keira_knightley.jpg E_M_robert_de_niro.jpg",0.803113498477221,"29","Female","right",1,0,TRUE
1267,"E_M_michael_caine.jpg","P_M_bill_clinton.jpg","FALSE","pictures/stimuli/E","pictures/stimuli/P","M","M","6","2","12345","E_M_michael_caine.jpg P_M_bill_clinton.jpg",0.803113498477221,"29","Female","right",0,0,TRUE
2018,"E_M_Hugh_Grant.jpg","E_M_michael_caine.jpg","TRUE","pictures/stimuli/E","pictures/stimuli/E","M","M","6","2","12345","E_M_Hugh_Grant.jpg E_M_michael_caine.jpg",0.803113498477221,"29","Female","right",1,0,TRUE
3481,"E_F_Judi_Dench.jpg","E_M_robert_de_niro.jpg","TRUE","pictures/stimuli/E","pictures/stimuli/E","F","M","6","2","12345","E_F_Judi_Dench.jpg E_M_robert_de_niro.jpg",0.803113498477221,"29","Female","right",1,0,TRUE
1849,"P_M_george_Wbush.jpg","P_M_Tony_Blair.jpg","TRUE","pictures/stimuli/P","pictures/stimuli/P","M","M","2","2","12345","P_M_george_Wbush.jpg P_M_Tony_Blair.jpg",-1.06917563907704,"29","Female","right",1,1,FALSE
1834,"E_M_Hugh_Grant.jpg","P_F_nicola_sturgeon.jpg","FALSE","pictures/stimuli/E","pictures/stimuli/P","M","F","5","2","12345","E_M_Hugh_Grant.jpg P_F_nicola_sturgeon.jpg",0.335041214088657,"29","Female","right",1,1,FALSE
2250,"P_F_nicola_sturgeon.jpg","P_M_bill_clinton.jpg","TRUE","pictures/stimuli/P","pictures/stimuli/P","F","M","3","2","12345","P_F_nicola_sturgeon.jpg P_M_bill_clinton.jpg",-0.601103354688473,"29","Female","right",1,0,TRUE
2302,"E_F_Kate_Winslet.jpg","E_M_tom_hankes.jpg","TRUE","pictures/stimuli/E","pictures/stimuli/E","F","M","6","2","12345","E_F_Kate_Winslet.jpg E_M_tom_hankes.jpg",0.803113498477221,"29","Female","right",1,1,FALSE
1929,"E_F_jennifer_aniston.jpg","P_M_boris_johnson.jpg","FALSE","pictures/stimuli/E","pictures/stimuli/P","F","M","6","2","12345","E_F_jennifer_aniston.jpg P_M_boris_johnson.jpg",0.803113498477221,"29","Female","right",1,1,FALSE
2044,"P_F_hillary_clinton.jpg","P_M_bill_clinton.jpg","TRUE","pictures/stimuli/P","pictures/stimuli/P","F","M","2","2","12345","P_F_hillary_clinton.jpg P_M_bill_clinton.jpg",-1.06917563907704,"29","Female","right",1,0,TRUE
1907,"E_F_Kate_Winslet.jpg","E_F_keira_knightley.jpg","TRUE","pictures/stimuli/E","pictures/stimuli/E","F","F","2","2","12345","E_F_Kate_Winslet.jpg E_F_keira_knightley.jpg",-1.06917563907704,"29","Female","right",1,1,FALSE
1349,"E_M_Hugh_Grant.jpg","P_M_donald_trump.jpg","FALSE","pictures/stimuli/E","pictures/stimuli/P","M","M","6","2","12345","E_M_Hugh_Grant.jpg P_M_donald_trump.jpg",0.803113498477221,"29","Female","right",1,1,FALSE
1289,"E_F_sandra_bullock.jpg","E_M_nicolas_cage.jpg","TRUE","pictures/stimuli/E","pictures/stimuli/E","F","M","6","2","12345","E_F_sandra_bullock.jpg E_M_nicolas_cage.jpg",0.803113498477221,"29","Female","right",1,1,FALSE
2240,"E_M_michael_caine.jpg","P_M_Tony_Blair.jpg","FALSE","pictures/stimuli/E","pictures/stimuli/P","M","M","2","2","12345","E_M_michael_caine.jpg P_M_Tony_Blair.jpg",-1.06917563907704,"29","Female","right",0,1,TRUE
3326,"E_M_robert_de_niro.jpg","P_M_donald_trump.jpg","FALSE","pictures/stimuli/E","pictures/stimuli/P","M","M","6","2","12345","E_M_robert_de_niro.jpg P_M_donald_trump.jpg",0.803113498477221,"29","Female","right",0,1,TRUE
1321,"E_F_keira_knightley.jpg","P_M_david_cameron.jpg","FALSE","pictures/stimuli/E","pictures/stimuli/P","F","M","6","2","12345","E_F_keira_knightley.jpg P_M_david_cameron.jpg",0.803113498477221,"29","Female","right",1,1,FALSE
5995,"E_F_Kate_Winslet.jpg","P_F_tehresy_may.jpg","FALSE","pictures/stimuli/E","pictures/stimuli/P","F","F","6","2","12345","E_F_Kate_Winslet.jpg P_F_tehresy_may.jpg",0.803113498477221,"29","Female","right",1,1,FALSE
2017,"E_M_tom_hankes.jpg","P_M_george_Wbush.jpg","FALSE","pictures/stimuli/E","pictures/stimuli/P","M","M","2","2","12345","E_M_tom_hankes.jpg P_M_george_Wbush.jpg",-1.06917563907704,"29","Female","right",1,1,FALSE
5223,"E_F_Judi_Dench.jpg","E_M_michael_caine.jpg","TRUE","pictures/stimuli/E","pictures/stimuli/E","F","M","6","2","12345","E_F_Judi_Dench.jpg E_M_michael_caine.jpg",0.803113498477221,"29","Female","right",1,0,TRUE
11566,"E_F_jennifer_aniston.jpg","E_F_Judi_Dench.jpg","TRUE","pictures/stimuli/E","pictures/stimuli/E","F","F","5","2","12345","E_F_jennifer_aniston.jpg E_F_Judi_Dench.jpg",0.335041214088657,"29","Female","right",1,1,FALSE
2651,"E_M_michael_caine.jpg","P_M_george_Wbush.jpg","FALSE","pictures/stimuli/E","pictures/stimuli/P","M","M","3","2","12345","E_M_michael_caine.jpg P_M_george_Wbush.jpg",-0.601103354688473,"29","Female","right",0,1,TRUE
2024,"E_F_angelina_jolie.jpg","E_F_keira_knightley.jpg","TRUE","pictures/stimuli/E","pictures/stimuli/E","F","F","2","2","12345","E_F_angelina_jolie.jpg E_F_keira_knightley.jpg",-1.06917563907704,"29","Female","right",1,1,FALSE
1838,"E_M_michael_caine.jpg","P_M_boris_johnson.jpg","FALSE","pictures/stimuli/E","pictures/stimuli/P","M","M","2","2","12345","E_M_michael_caine.jpg P_M_boris_johnson.jpg",-1.06917563907704,"29","Female","right",0,1,TRUE
2276,"P_M_david_cameron.jpg","P_M_Tony_Blair.jpg","TRUE","pictures/stimuli/P","pictures/stimuli/P","M","M","1","2","12345","P_M_david_cameron.jpg P_M_Tony_Blair.jpg",-1.5372479234656,"29","Female","right",1,1,FALSE
2045,"P_F_hillary_clinton.jpg","P_M_donald_trump.jpg","TRUE","pictures/stimuli/P","pictures/stimuli/P","F","M","6","2","12345","P_F_hillary_clinton.jpg P_M_donald_trump.jpg",0.803113498477221,"29","Female","right",1,1,FALSE
2015,"E_M_robert_de_niro.jpg","P_F_hillary_clinton.jpg","FALSE","pictures/stimuli/E","pictures/stimuli/P","M","F","6","2","12345","E_M_robert_de_niro.jpg P_F_hillary_clinton.jpg",0.803113498477221,"29","Female","right",0,1,TRUE
1276,"E_F_keira_knightley.jpg","E_M_tom_hankes.jpg","TRUE","pictures/stimuli/E","pictures/stimuli/E","F","M","6","2","12345","E_F_keira_knightley.jpg E_M_tom_hankes.jpg",0.803113498477221,"29","Female","right",1,1,FALSE
1359,"E_F_Kate_Winslet.jpg","P_M_david_cameron.jpg","FALSE","pictures/stimuli/E","pictures/stimuli/P","F","M","6","2","12345","E_F_Kate_Winslet.jpg P_M_david_cameron.jpg",0.803113498477221,"29","Female","right",1,1,FALSE
1490,"P_F_tehresy_may.jpg","P_M_donald_trump.jpg","TRUE","pictures/stimuli/P","pictures/stimuli/P","F","M","6","2","12345","P_F_tehresy_may.jpg P_M_donald_trump.jpg",0.803113498477221,"29","Female","right",1,1,FALSE
1427,"E_F_Kate_Winslet.jpg","E_F_sandra_bullock.jpg","TRUE","pictures/stimuli/E","pictures/stimuli/E","F","F","1","2","12345","E_F_Kate_Winslet.jpg E_F_sandra_bullock.jpg",-1.5372479234656,"29","Female","right",1,1,FALSE
2135,"E_M_Hugh_Grant.jpg","P_M_george_Wbush.jpg","FALSE","pictures/stimuli/E","pictures/stimuli/P","M","M","6","2","12345","E_M_Hugh_Grant.jpg P_M_george_Wbush.jpg",0.803113498477221,"29","Female","right",1,1,FALSE
1425,"P_F_hillary_clinton.jpg","P_F_nicola_sturgeon.jpg","TRUE","pictures/stimuli/P","pictures/stimuli/P","F","F","1","2","12345","P_F_hillary_clinton.jpg P_F_nicola_sturgeon.jpg",-1.5372479234656,"29","Female","right",1,1,FALSE
1876,"P_F_tehresy_may.jpg","P_M_david_cameron.jpg","TRUE","pictures/stimuli/P","pictures/stimuli/P","F","M","6","2","12345","P_F_tehresy_may.jpg P_M_david_cameron.jpg",0.803113498477221,"29","Female","right",1,1,FALSE
1594,"E_M_robert_de_niro.jpg","P_M_Tony_Blair.jpg","FALSE","pictures/stimuli/E","pictures/stimuli/P","M","M","1","2","12345","E_M_robert_de_niro.jpg P_M_Tony_Blair.jpg",-1.5372479234656,"29","Female","right",0,1,TRUE
1797,"E_F_Kate_Winslet.jpg","E_M_Hugh_Grant.jpg","TRUE","pictures/stimuli/E","pictures/stimuli/E","F","M","6","2","12345","E_F_Kate_Winslet.jpg E_M_Hugh_Grant.jpg",0.803113498477221,"29","Female","right",1,1,FALSE
1074,"E_F_jennifer_aniston.jpg","P_M_george_Wbush.jpg","FALSE","pictures/stimuli/E","pictures/stimuli/P","F","M","6","2","12345","E_F_jennifer_aniston.jpg P_M_george_Wbush.jpg",0.803113498477221,"29","Female","right",1,1,FALSE
1195,"E_F_keira_knightley.jpg","P_M_donald_trump.jpg","FALSE","pictures/stimuli/E","pictures/stimuli/P","F","M","6","2","12345","E_F_keira_knightley.jpg P_M_donald_trump.jpg",0.803113498477221,"29","Female","right",1,1,FALSE
1845,"E_F_Judi_Dench.jpg","P_M_boris_johnson.jpg","FALSE","pictures/stimuli/E","pictures/stimuli/P","F","M","6","2","12345","E_F_Judi_Dench.jpg P_M_boris_johnson.jpg",0.803113498477221,"29","Female","right",1,1,FALSE
1665,"E_M_Hugh_Grant.jpg","P_M_david_cameron.jpg","FALSE","pictures/stimuli/E","pictures/stimuli/P","M","M","3","2","12345","E_M_Hugh_Grant.jpg P_M_david_cameron.jpg",-0.601103354688473,"29","Female","right",1,1,FALSE
1205,"E_M_Hugh_Grant.jpg","E_M_robert_de_niro.jpg","TRUE","pictures/stimuli/E","pictures/stimuli/E","M","M","6","2","12345","E_M_Hugh_Grant.jpg E_M_robert_de_niro.jpg",0.803113498477221,"29","Female","right",1,0,TRUE
1340,"P_F_nicola_sturgeon.jpg","P_M_david_cameron.jpg","TRUE","pictures/stimuli/P","pictures/stimuli/P","F","M","6","2","12345","P_F_nicola_sturgeon.jpg P_M_david_cameron.jpg",0.803113498477221,"29","Female","right",1,1,FALSE
981,"E_F_Kate_Winslet.jpg","P_M_donald_trump.jpg","FALSE","pictures/stimuli/E","pictures/stimuli/P","F","M","6","2","12345","E_F_Kate_Winslet.jpg P_M_donald_trump.jpg",0.803113498477221,"29","Female","right",1,1,FALSE
1805,"P_M_boris_johnson.jpg","P_M_donald_trump.jpg","TRUE","pictures/stimuli/P","pictures/stimuli/P","M","M","1","2","12345","P_M_boris_johnson.jpg P_M_donald_trump.jpg",-1.5372479234656,"29","Female","right",1,1,FALSE
1429,"E_F_sandra_bullock.jpg","P_M_boris_johnson.jpg","FALSE","pictures/stimuli/E","pictures/stimuli/P","F","M","6","2","12345","E_F_sandra_bullock.jpg P_M_boris_johnson.jpg",0.803113498477221,"29","Female","right",1,1,FALSE
923,"E_M_michael_caine.jpg","P_F_nicola_sturgeon.jpg","FALSE","pictures/stimuli/E","pictures/stimuli/P","M","F","6","2","12345","E_M_michael_caine.jpg P_F_nicola_sturgeon.jpg",0.803113498477221,"29","Female","right",0,1,TRUE
1442,"P_F_tehresy_may.jpg","P_M_Tony_Blair.jpg","TRUE","pictures/stimuli/P","pictures/stimuli/P","F","M","6","2","12345","P_F_tehresy_may.jpg P_M_Tony_Blair.jpg",0.803113498477221,"29","Female","right",1,1,FALSE
3545,"P_F_nicola_sturgeon.jpg","P_M_boris_johnson.jpg","TRUE","pictures/stimuli/P","pictures/stimuli/P","F","M","2","2","12345","P_F_nicola_sturgeon.jpg P_M_boris_johnson.jpg",-1.06917563907704,"29","Female","right",1,1,FALSE
2702,"E_M_Hugh_Grant.jpg","P_M_boris_johnson.jpg","FALSE","pictures/stimuli/E","pictures/stimuli/P","M","M","6","2","12345","E_M_Hugh_Grant.jpg P_M_boris_johnson.jpg",0.803113498477221,"29","Female","right",1,1,FALSE
1851,"E_F_Judi_Dench.jpg","E_F_keira_knightley.jpg","TRUE","pictures/stimuli/E","pictures/stimuli/E","F","F","4","2","12345","E_F_Judi_Dench.jpg E_F_keira_knightley.jpg",-0.133031070299908,"29","Female","right",1,1,FALSE
1211,"E_F_angelina_jolie.jpg","P_M_bill_clinton.jpg","FALSE","pictures/stimuli/E","pictures/stimuli/P","F","M","6","2","12345","E_F_angelina_jolie.jpg P_M_bill_clinton.jpg",0.803113498477221,"29","Female","right",1,0,TRUE
2827,"P_M_bill_clinton.jpg","P_M_boris_johnson.jpg","TRUE","pictures/stimuli/P","pictures/stimuli/P","M","M","2","2","12345","P_M_bill_clinton.jpg P_M_boris_johnson.jpg",-1.06917563907704,"29","Female","right",0,1,TRUE
1630,"E_F_Judi_Dench.jpg","P_F_nicola_sturgeon.jpg","FALSE","pictures/stimuli/E","pictures/stimuli/P","F","F","1","2","12345","E_F_Judi_Dench.jpg P_F_nicola_sturgeon.jpg",-1.5372479234656,"29","Female","right",1,1,FALSE
1446,"E_F_Judi_Dench.jpg","P_M_Tony_Blair.jpg","FALSE","pictures/stimuli/E","pictures/stimuli/P","F","M","6","2","12345","E_F_Judi_Dench.jpg P_M_Tony_Blair.jpg",0.803113498477221,"29","Female","right",1,1,FALSE
661,"E_F_sandra_bullock.jpg","P_M_Tony_Blair.jpg","FALSE","pictures/stimuli/E","pictures/stimuli/P","F","M","6","2","12345","E_F_sandra_bullock.jpg P_M_Tony_Blair.jpg",0.803113498477221,"29","Female","right",1,1,FALSE
1870,"P_M_bill_clinton.jpg","P_M_david_cameron.jpg","TRUE","pictures/stimuli/P","pictures/stimuli/P","M","M","2","2","12345","P_M_bill_clinton.jpg P_M_david_cameron.jpg",-1.06917563907704,"29","Female","right",0,1,TRUE
1820,"E_F_jennifer_aniston.jpg","P_F_hillary_clinton.jpg","FALSE","pictures/stimuli/E","pictures/stimuli/P","F","F","6","2","12345","E_F_jennifer_aniston.jpg P_F_hillary_clinton.jpg",0.803113498477221,"29","Female","right",1,1,FALSE
1638,"P_F_tehresy_may.jpg","P_M_george_Wbush.jpg","TRUE","pictures/stimuli/P","pictures/stimuli/P","F","M","6","2","12345","P_F_tehresy_may.jpg P_M_george_Wbush.jpg",0.803113498477221,"29","Female","right",1,1,FALSE
789,"P_F_nicola_sturgeon.jpg","P_M_donald_trump.jpg","TRUE","pictures/stimuli/P","pictures/stimuli/P","F","M","6","2","12345","P_F_nicola_sturgeon.jpg P_M_donald_trump.jpg",0.803113498477221,"29","Female","right",1,1,FALSE
1571,"E_M_robert_de_niro.jpg","P_M_george_Wbush.jpg","FALSE","pictures/stimuli/E","pictures/stimuli/P","M","M","1","2","12345","E_M_robert_de_niro.jpg P_M_george_Wbush.jpg",-1.5372479234656,"29","Female","right",0,1,TRUE
1497,"E_F_sandra_bullock.jpg","P_M_george_Wbush.jpg","FALSE","pictures/stimuli/E","pictures/stimuli/P","F","M","6","2","12345","E_F_sandra_bullock.jpg P_M_george_Wbush.jpg",0.803113498477221,"29","Female","right",1,1,FALSE
1762,"E_F_sandra_bullock.jpg","P_M_david_cameron.jpg","FALSE","pictures/stimuli/E","pictures/stimuli/P","F","M","6","2","12345","E_F_sandra_bullock.jpg P_M_david_cameron.jpg",0.803113498477221,"29","Female","right",1,1,FALSE
2588,"E_M_nicolas_cage.jpg","P_M_donald_trump.jpg","FALSE","pictures/stimuli/E","pictures/stimuli/P","M","M","4","2","12345","E_M_nicolas_cage.jpg P_M_donald_trump.jpg",-0.133031070299908,"29","Female","right",1,1,FALSE
1811,"E_F_Judi_Dench.jpg","E_M_tom_hankes.jpg","TRUE","pictures/stimuli/E","pictures/stimuli/E","F","M","6","2","12345","E_F_Judi_Dench.jpg E_M_tom_hankes.jpg",0.803113498477221,"29","Female","right",1,1,FALSE
788,"E_F_Kate_Winslet.jpg","P_M_boris_johnson.jpg","FALSE","pictures/stimuli/E","pictures/stimuli/P","F","M","6","2","12345","E_F_Kate_Winslet.jpg P_M_boris_johnson.jpg",0.803113498477221,"29","Female","right",1,1,FALSE
712,"E_M_tom_hankes.jpg","P_F_hillary_clinton.jpg","FALSE","pictures/stimuli/E","pictures/stimuli/P","M","F","6","2","12345","E_M_tom_hankes.jpg P_F_hillary_clinton.jpg",0.803113498477221,"29","Female","right",1,1,FALSE
711,"E_M_Hugh_Grant.jpg","E_M_tom_hankes.jpg","TRUE","pictures/stimuli/E","pictures/stimuli/E","M","M","6","2","12345","E_M_Hugh_Grant.jpg E_M_tom_hankes.jpg",0.803113498477221,"29","Female","right",1,1,FALSE
626,"E_M_nicolas_cage.jpg","P_M_bill_clinton.jpg","FALSE","pictures/stimuli/E","pictures/stimuli/P","M","M","6","2","12345","E_M_nicolas_cage.jpg P_M_bill_clinton.jpg",0.803113498477221,"29","Female","right",1,0,TRUE
1490,"E_F_sandra_bullock.jpg","E_M_michael_caine.jpg","TRUE","pictures/stimuli/E","pictures/stimuli/E","F","M","6","2","12345","E_F_sandra_bullock.jpg E_M_michael_caine.jpg",0.803113498477221,"29","Female","right",1,0,TRUE
1553,"E_F_angelina_jolie.jpg","P_M_donald_trump.jpg","FALSE","pictures/stimuli/E","pictures/stimuli/P","F","M","6","2","12345","E_F_angelina_jolie.jpg P_M_donald_trump.jpg",0.803113498477221,"29","Female","right",1,1,FALSE
2110,"P_M_bill_clinton.jpg","P_M_donald_trump.jpg","TRUE","pictures/stimuli/P","pictures/stimuli/P","M","M","2","2","12345","P_M_bill_clinton.jpg P_M_donald_trump.jpg",-1.06917563907704,"29","Female","right",0,1,TRUE
1499,"P_F_nicola_sturgeon.jpg","P_M_Tony_Blair.jpg","TRUE","pictures/stimuli/P","pictures/stimuli/P","F","M","6","2","12345","P_F_nicola_sturgeon.jpg P_M_Tony_Blair.jpg",0.803113498477221,"29","Female","right",1,1,FALSE
1588,"E_M_nicolas_cage.jpg","P_F_nicola_sturgeon.jpg","FALSE","pictures/stimuli/E","pictures/stimuli/P","M","F","6","2","12345","E_M_nicolas_cage.jpg P_F_nicola_sturgeon.jpg",0.803113498477221,"29","Female","right",1,1,FALSE
1949,"E_M_nicolas_cage.jpg","P_M_Tony_Blair.jpg","FALSE","pictures/stimuli/E","pictures/stimuli/P","M","M","3","2","12345","E_M_nicolas_cage.jpg P_M_Tony_Blair.jpg",-0.601103354688473,"29","Female","right",1,1,FALSE
1940,"P_M_boris_johnson.jpg","P_M_david_cameron.jpg","TRUE","pictures/stimuli/P","pictures/stimuli/P","M","M","1","2","12345","P_M_boris_johnson.jpg P_M_david_cameron.jpg",-1.5372479234656,"29","Female","right",1,1,FALSE
2644,"E_F_Judi_Dench.jpg","E_F_sandra_bullock.jpg","TRUE","pictures/stimuli/E","pictures/stimuli/E","F","F","2","2","12345","E_F_Judi_Dench.jpg E_F_sandra_bullock.jpg",-1.06917563907704,"29","Female","right",1,1,FALSE
813,"E_F_jennifer_aniston.jpg","P_M_Tony_Blair.jpg","FALSE","pictures/stimuli/E","pictures/stimuli/P","F","M","6","2","12345","E_F_jennifer_aniston.jpg P_M_Tony_Blair.jpg",0.803113498477221,"29","Female","right",1,1,FALSE
2104,"E_M_michael_caine.jpg","P_M_donald_trump.jpg","FALSE","pictures/stimuli/E","pictures/stimuli/P","M","M","2","2","12345","E_M_michael_caine.jpg P_M_donald_trump.jpg",-1.06917563907704,"29","Female","right",0,1,TRUE
2392,"P_M_david_cameron.jpg","P_M_george_Wbush.jpg","TRUE","pictures/stimuli/P","pictures/stimuli/P","M","M","1","2","12345","P_M_david_cameron.jpg P_M_george_Wbush.jpg",-1.5372479234656,"29","Female","right",1,1,FALSE
2346,"E_F_sandra_bullock.jpg","E_M_Hugh_Grant.jpg","TRUE","pictures/stimuli/E","pictures/stimuli/E","F","M","6","2","12345","E_F_sandra_bullock.jpg E_M_Hugh_Grant.jpg",0.803113498477221,"29","Female","right",1,1,FALSE
2067,"E_F_angelina_jolie.jpg","E_F_Kate_Winslet.jpg","TRUE","pictures/stimuli/E","pictures/stimuli/E","F","F","1","2","12345","E_F_angelina_jolie.jpg E_F_Kate_Winslet.jpg",-1.5372479234656,"29","Female","right",1,1,FALSE
1360,"E_F_keira_knightley.jpg","E_F_sandra_bullock.jpg","TRUE","pictures/stimuli/E","pictures/stimuli/E","F","F","1","2","12345","E_F_keira_knightley.jpg E_F_sandra_bullock.jpg",-1.5372479234656,"29","Female","right",1,1,FALSE
1501,"E_M_michael_caine.jpg","P_F_hillary_clinton.jpg","FALSE","pictures/stimuli/E","pictures/stimuli/P","M","F","6","2","12345","E_M_michael_caine.jpg P_F_hillary_clinton.jpg",0.803113498477221,"29","Female","right",0,1,TRUE
666,"E_F_sandra_bullock.jpg","E_M_tom_hankes.jpg","TRUE","pictures/stimuli/E","pictures/stimuli/E","F","M","6","2","12345","E_F_sandra_bullock.jpg E_M_tom_hankes.jpg",0.803113498477221,"29","Female","right",1,1,FALSE
1628,"P_M_david_cameron.jpg","P_M_donald_trump.jpg","TRUE","pictures/stimuli/P","pictures/stimuli/P","M","M","1","2","12345","P_M_david_cameron.jpg P_M_donald_trump.jpg",-1.5372479234656,"29","Female","right",1,1,FALSE
1473,"P_M_boris_johnson.jpg","P_M_Tony_Blair.jpg","TRUE","pictures/stimuli/P","pictures/stimuli/P","M","M","3","2","12345","P_M_boris_johnson.jpg P_M_Tony_Blair.jpg",-0.601103354688473,"29","Female","right",1,1,FALSE
714,"E_F_Kate_Winslet.jpg","E_M_michael_caine.jpg","TRUE","pictures/stimuli/E","pictures/stimuli/E","F","M","6","2","12345","E_F_Kate_Winslet.jpg E_M_michael_caine.jpg",0.803113498477221,"29","Female","right",1,0,TRUE
2023,"E_F_angelina_jolie.jpg","E_M_Hugh_Grant.jpg","TRUE","pictures/stimuli/E","pictures/stimuli/E","F","M","6","2","12345","E_F_angelina_jolie.jpg E_M_Hugh_Grant.jpg",0.803113498477221,"29","Female","right",1,1,FALSE
1261,"E_F_jennifer_aniston.jpg","E_F_keira_knightley.jpg","TRUE","pictures/stimuli/E","pictures/stimuli/E","F","F","1","2","12345","E_F_jennifer_aniston.jpg E_F_keira_knightley.jpg",-1.5372479234656,"29","Female","right",1,1,FALSE
1219,"E_F_angelina_jolie.jpg","P_M_boris_johnson.jpg","FALSE","pictures/stimuli/E","pictures/stimuli/P","F","M","6","2","12345","E_F_angelina_jolie.jpg P_M_boris_johnson.jpg",0.803113498477221,"29","Female","right",1,1,FALSE
1317,"E_F_jennifer_aniston.jpg","P_F_nicola_sturgeon.jpg","FALSE","pictures/stimuli/E","pictures/stimuli/P","F","F","6","2","12345","E_F_jennifer_aniston.jpg P_F_nicola_sturgeon.jpg",0.803113498477221,"29","Female","right",1,1,FALSE
2187,"E_M_Hugh_Grant.jpg","P_M_bill_clinton.jpg","FALSE","pictures/stimuli/E","pictures/stimuli/P","M","M","2","2","12345","E_M_Hugh_Grant.jpg P_M_bill_clinton.jpg",-1.06917563907704,"29","Female","right",1,0,TRUE
3317,"E_F_sandra_bullock.jpg","P_F_hillary_clinton.jpg","FALSE","pictures/stimuli/E","pictures/stimuli/P","F","F","3","2","12345","E_F_sandra_bullock.jpg P_F_hillary_clinton.jpg",-0.601103354688473,"29","Female","right",1,1,FALSE
2469,"E_F_jennifer_aniston.jpg","E_M_Hugh_Grant.jpg","TRUE","pictures/stimuli/E","pictures/stimuli/E","F","M","6","2","12345","E_F_jennifer_aniston.jpg E_M_Hugh_Grant.jpg",0.803113498477221,"29","Female","right",1,1,FALSE
2491,"E_M_michael_caine.jpg","P_M_david_cameron.jpg","FALSE","pictures/stimuli/E","pictures/stimuli/P","M","M","2","2","12345","E_M_michael_caine.jpg P_M_david_cameron.jpg",-1.06917563907704,"29","Female","right",0,1,TRUE
1291,"E_F_keira_knightley.jpg","P_M_Tony_Blair.jpg","FALSE","pictures/stimuli/E","pictures/stimuli/P","F","M","6","2","12345","E_F_keira_knightley.jpg P_M_Tony_Blair.jpg",0.803113498477221,"29","Female","right",1,1,FALSE
1315,"E_M_robert_de_niro.jpg","P_M_bill_clinton.jpg","FALSE","pictures/stimuli/E","pictures/stimuli/P","M","M","6","2","12345","E_M_robert_de_niro.jpg P_M_bill_clinton.jpg",0.803113498477221,"29","Female","right",0,0,TRUE
2550,"E_F_angelina_jolie.jpg","P_M_david_cameron.jpg","FALSE","pictures/stimuli/E","pictures/stimuli/P","F","M","6","2","12345","E_F_angelina_jolie.jpg P_M_david_cameron.jpg",0.803113498477221,"29","Female","right",1,1,FALSE
2583,"E_F_angelina_jolie.jpg","P_M_Tony_Blair.jpg","FALSE","pictures/stimuli/E","pictures/stimuli/P","F","M","6","2","12345","E_F_angelina_jolie.jpg P_M_Tony_Blair.jpg",0.803113498477221,"29","Female","right",1,1,FALSE
4243,"E_M_tom_hankes.jpg","P_M_boris_johnson.jpg","FALSE","pictures/stimuli/E","pictures/stimuli/P","M","M","6","2","12345","E_M_tom_hankes.jpg P_M_boris_johnson.jpg",0.803113498477221,"29","Female","right",1,1,FALSE
2515,"E_F_Judi_Dench.jpg","E_M_Hugh_Grant.jpg","TRUE","pictures/stimuli/E","pictures/stimuli/E","F","M","6","2","12345","E_F_Judi_Dench.jpg E_M_Hugh_Grant.jpg",0.803113498477221,"29","Female","right",1,1,FALSE
2215,"P_F_hillary_clinton.jpg","P_M_david_cameron.jpg","TRUE","pictures/stimuli/P","pictures/stimuli/P","F","M","6","2","12345","P_F_hillary_clinton.jpg P_M_david_cameron.jpg",0.803113498477221,"29","Female","right",1,1,FALSE
2102,"E_F_angelina_jolie.jpg","E_M_nicolas_cage.jpg","TRUE","pictures/stimuli/E","pictures/stimuli/E","F","M","4","2","12345","E_F_angelina_jolie.jpg E_M_nicolas_cage.jpg",-0.133031070299908,"29","Female","right",1,1,FALSE
1848,"E_F_sandra_bullock.jpg","P_F_nicola_sturgeon.jpg","FALSE","pictures/stimuli/E","pictures/stimuli/P","F","F","6","2","12345","E_F_sandra_bullock.jpg P_F_nicola_sturgeon.jpg",0.803113498477221,"29","Female","right",1,1,FALSE
2268,"E_F_Judi_Dench.jpg","P_M_bill_clinton.jpg","FALSE","pictures/stimuli/E","pictures/stimuli/P","F","M","4","2","12345","E_F_Judi_Dench.jpg P_M_bill_clinton.jpg",-0.133031070299908,"29","Female","right",1,0,TRUE
1998,"E_F_angelina_jolie.jpg","E_F_sandra_bullock.jpg","TRUE","pictures/stimuli/E","pictures/stimuli/E","F","F","1","2","12345","E_F_angelina_jolie.jpg E_F_sandra_bullock.jpg",-1.5372479234656,"29","Female","right",1,1,FALSE
1451,"E_F_jennifer_aniston.jpg","E_F_Kate_Winslet.jpg","TRUE","pictures/stimuli/E","pictures/stimuli/E","F","F","1","2","12345","E_F_jennifer_aniston.jpg E_F_Kate_Winslet.jpg",-1.5372479234656,"29","Female","right",1,1,FALSE
1576,"E_F_jennifer_aniston.jpg","E_F_sandra_bullock.jpg","TRUE","pictures/stimuli/E","pictures/stimuli/E","F","F","1","2","12345","E_F_jennifer_aniston.jpg E_F_sandra_bullock.jpg",-1.5372479234656,"29","Female","right",1,1,FALSE
1785,"E_F_angelina_jolie.jpg","E_M_tom_hankes.jpg","TRUE","pictures/stimuli/E","pictures/stimuli/E","F","M","4","2","12345","E_F_angelina_jolie.jpg E_M_tom_hankes.jpg",-0.133031070299908,"29","Female","right",1,1,FALSE
1639,"E_F_Judi_Dench.jpg","E_F_Kate_Winslet.jpg","TRUE","pictures/stimuli/E","pictures/stimuli/E","F","F","1","2","12345","E_F_Judi_Dench.jpg E_F_Kate_Winslet.jpg",-1.5372479234656,"29","Female","right",1,1,FALSE
3794,"E_M_tom_hankes.jpg","P_M_david_cameron.jpg","FALSE","pictures/stimuli/E","pictures/stimuli/P","M","M","1","2","12345","E_M_tom_hankes.jpg P_M_david_cameron.jpg",-1.5372479234656,"29","Female","right",1,1,FALSE
2883,"E_F_keira_knightley.jpg","P_F_nicola_sturgeon.jpg","FALSE","pictures/stimuli/E","pictures/stimuli/P","F","F","5","2","12345","E_F_keira_knightley.jpg P_F_nicola_sturgeon.jpg",0.335041214088657,"29","Female","right",1,1,FALSE
1282,"E_F_sandra_bullock.jpg","P_M_donald_trump.jpg","FALSE","pictures/stimuli/E","pictures/stimuli/P","F","M","6","2","12345","E_F_sandra_bullock.jpg P_M_donald_trump.jpg",0.803113498477221,"29","Female","right",1,1,FALSE
1393,"E_F_sandra_bullock.jpg","P_M_bill_clinton.jpg","FALSE","pictures/stimuli/E","pictures/stimuli/P","F","M","6","2","12345","E_F_sandra_bullock.jpg P_M_bill_clinton.jpg",0.803113498477221,"29","Female","right",1,0,TRUE
2013,"E_F_keira_knightley.jpg","P_F_hillary_clinton.jpg","FALSE","pictures/stimuli/E","pictures/stimuli/P","F","F","3","2","12345","E_F_keira_knightley.jpg P_F_hillary_clinton.jpg",-0.601103354688473,"29","Female","right",1,1,FALSE
1585,"E_F_jennifer_aniston.jpg","E_M_tom_hankes.jpg","TRUE","pictures/stimuli/E","pictures/stimuli/E","F","M","5","2","12345","E_F_jennifer_aniston.jpg E_M_tom_hankes.jpg",0.335041214088657,"29","Female","right",1,1,FALSE
1495,"E_M_nicolas_cage.jpg","P_M_david_cameron.jpg","FALSE","pictures/stimuli/E","pictures/stimuli/P","M","M","1","2","12345","E_M_nicolas_cage.jpg P_M_david_cameron.jpg",-1.5372479234656,"29","Female","right",1,1,FALSE
2013,"E_M_michael_caine.jpg","P_F_tehresy_may.jpg","FALSE","pictures/stimuli/E","pictures/stimuli/P","M","F","1","2","12345","E_M_michael_caine.jpg P_F_tehresy_may.jpg",-1.5372479234656,"29","Female","right",0,1,TRUE
1965,"P_M_donald_trump.jpg","P_M_Tony_Blair.jpg","TRUE","pictures/stimuli/P","pictures/stimuli/P","M","M","1","2","12345","P_M_donald_trump.jpg P_M_Tony_Blair.jpg",-1.5372479234656,"29","Female","right",1,1,FALSE
1620,"E_F_Judi_Dench.jpg","P_M_donald_trump.jpg","FALSE","pictures/stimuli/E","pictures/stimuli/P","F","M","6","2","12345","E_F_Judi_Dench.jpg P_M_donald_trump.jpg",0.803113498477221,"29","Female","right",1,1,FALSE
1978,"E_F_jennifer_aniston.jpg","P_F_tehresy_may.jpg","FALSE","pictures/stimuli/E","pictures/stimuli/P","F","F","6","2","12345","E_F_jennifer_aniston.jpg P_F_tehresy_may.jpg",0.803113498477221,"29","Female","right",1,1,FALSE
1513,"P_M_bill_clinton.jpg","P_M_Tony_Blair.jpg","TRUE","pictures/stimuli/P","pictures/stimuli/P","M","M","1","2","12345","P_M_bill_clinton.jpg P_M_Tony_Blair.jpg",-1.5372479234656,"29","Female","right",0,1,TRUE
4036,"E_M_robert_de_niro.jpg","P_F_nicola_sturgeon.jpg","FALSE","pictures/stimuli/E","pictures/stimuli/P","M","F","1","2","12345","E_M_robert_de_niro.jpg P_F_nicola_sturgeon.jpg",-1.5372479234656,"29","Female","right",0,1,TRUE
3333,"E_F_angelina_jolie.jpg","E_F_jennifer_aniston.jpg","TRUE","pictures/stimuli/E","pictures/stimuli/E","F","F","1","2","12345","E_F_angelina_jolie.jpg E_F_jennifer_aniston.jpg",-1.5372479234656,"29","Female","right",1,1,FALSE
1551,"E_F_Judi_Dench.jpg","P_F_hillary_clinton.jpg","FALSE","pictures/stimuli/E","pictures/stimuli/P","F","F","1","2","12345","E_F_Judi_Dench.jpg P_F_hillary_clinton.jpg",-1.5372479234656,"29","Female","right",1,1,FALSE
3450,"E_F_keira_knightley.jpg","E_M_michael_caine.jpg","TRUE","pictures/stimuli/E","pictures/stimuli/E","F","M","6","2","12345","E_F_keira_knightley.jpg E_M_michael_caine.jpg",0.803113498477221,"29","Female","right",1,0,TRUE
2574,"E_F_jennifer_aniston.jpg","P_M_donald_trump.jpg","FALSE","pictures/stimuli/E","pictures/stimuli/P","F","M","6","2","12345","E_F_jennifer_aniston.jpg P_M_donald_trump.jpg",0.803113498477221,"29","Female","right",1,1,FALSE
1710,"E_F_sandra_bullock.jpg","P_F_tehresy_may.jpg","FALSE","pictures/stimuli/E","pictures/stimuli/P","F","F","6","2","12345","E_F_sandra_bullock.jpg P_F_tehresy_may.jpg",0.803113498477221,"29","Female","right",1,1,FALSE
1176,"E_M_tom_hankes.jpg","P_F_nicola_sturgeon.jpg","FALSE","pictures/stimuli/E","pictures/stimuli/P","M","F","6","2","12345","E_M_tom_hankes.jpg P_F_nicola_sturgeon.jpg",0.803113498477221,"29","Female","right",1,1,FALSE
5989,"E_M_robert_de_niro.jpg","E_M_tom_hankes.jpg","TRUE","pictures/stimuli/E","pictures/stimuli/E","M","M","1","2","12345","E_M_robert_de_niro.jpg E_M_tom_hankes.jpg",-1.5372479234656,"29","Female","right",0,1,TRUE
2012,"E_F_sandra_bullock.jpg","E_M_robert_de_niro.jpg","TRUE","pictures/stimuli/E","pictures/stimuli/E","F","M","6","2","12345","E_F_sandra_bullock.jpg E_M_robert_de_niro.jpg",0.803113498477221,"29","Female","right",1,0,TRUE
1655,"P_F_nicola_sturgeon.jpg","P_F_tehresy_may.jpg","TRUE","pictures/stimuli/P","pictures/stimuli/P","F","F","1","2","12345","P_F_nicola_sturgeon.jpg P_F_tehresy_may.jpg",-1.5372479234656,"29","Female","right",1,1,FALSE
1960,"E_F_angelina_jolie.jpg","P_F_nicola_sturgeon.jpg","FALSE","pictures/stimuli/E","pictures/stimuli/P","F","F","6","2","12345","E_F_angelina_jolie.jpg P_F_nicola_sturgeon.jpg",0.803113498477221,"29","Female","right",1,1,FALSE
32133,"E_M_Hugh_Grant.jpg","P_F_hillary_clinton.jpg","FALSE","pictures/stimuli/E","pictures/stimuli/P","M","F","6","2","12345","E_M_Hugh_Grant.jpg P_F_hillary_clinton.jpg",0.803113498477221,"29","Female","right",1,1,TRUE
979,"E_F_angelina_jolie.jpg","E_M_michael_caine.jpg","TRUE","pictures/stimuli/E","pictures/stimuli/E","F","M","6","2","12345","E_F_angelina_jolie.jpg E_M_michael_caine.jpg",0.803113498477221,"29","Female","right",1,0,TRUE
1266,"E_F_keira_knightley.jpg","P_M_george_Wbush.jpg","FALSE","pictures/stimuli/E","pictures/stimuli/P","F","M","6","2","12345","E_F_keira_knightley.jpg P_M_george_Wbush.jpg",0.803113498477221,"29","Female","right",1,1,FALSE
1787,"E_M_robert_de_niro.jpg","P_M_boris_johnson.jpg","FALSE","pictures/stimuli/E","pictures/stimuli/P","M","M","1","2","12345","E_M_robert_de_niro.jpg P_M_boris_johnson.jpg",-1.5372479234656,"29","Female","right",0,1,TRUE
2654,"E_M_robert_de_niro.jpg","P_M_david_cameron.jpg","FALSE","pictures/stimuli/E","pictures/stimuli/P","M","M","1","2","12345","E_M_robert_de_niro.jpg P_M_david_cameron.jpg",-1.5372479234656,"29","Female","right",0,1,TRUE
1651,"E_F_Judi_Dench.jpg","P_M_george_Wbush.jpg","FALSE","pictures/stimuli/E","pictures/stimuli/P","F","M","6","2","12345","E_F_Judi_Dench.jpg P_M_george_Wbush.jpg",0.803113498477221,"29","Female","right",1,1,FALSE
1000,"E_F_jennifer_aniston.jpg","E_M_robert_de_niro.jpg","TRUE","pictures/stimuli/E","pictures/stimuli/E","F","M","6","2","12345","E_F_jennifer_aniston.jpg E_M_robert_de_niro.jpg",0.803113498477221,"29","Female","right",1,0,TRUE
2108,"E_F_jennifer_aniston.jpg","E_M_nicolas_cage.jpg","TRUE","pictures/stimuli/E","pictures/stimuli/E","F","M","6","2","12345","E_F_jennifer_aniston.jpg E_M_nicolas_cage.jpg",0.803113498477221,"29","Female","right",1,1,FALSE
1398,"E_M_nicolas_cage.jpg","P_M_boris_johnson.jpg","FALSE","pictures/stimuli/E","pictures/stimuli/P","M","M","6","2","12345","E_M_nicolas_cage.jpg P_M_boris_johnson.jpg",0.803113498477221,"29","Female","right",1,1,FALSE
1382,"E_M_tom_hankes.jpg","P_M_Tony_Blair.jpg","FALSE","pictures/stimuli/E","pictures/stimuli/P","M","M","1","2","12345","E_M_tom_hankes.jpg P_M_Tony_Blair.jpg",-1.5372479234656,"29","Female","right",1,1,FALSE
2014,"E_F_Kate_Winslet.jpg","P_F_nicola_sturgeon.jpg","FALSE","pictures/stimuli/E","pictures/stimuli/P","F","F","5","2","12345","E_F_Kate_Winslet.jpg P_F_nicola_sturgeon.jpg",0.335041214088657,"29","Female","right",1,1,FALSE
2105,"P_M_donald_trump.jpg","P_M_george_Wbush.jpg","TRUE","pictures/stimuli/P","pictures/stimuli/P","M","M","1","2","12345","P_M_donald_trump.jpg P_M_george_Wbush.jpg",-1.5372479234656,"29","Female","right",1,1,FALSE
1909,"P_F_tehresy_may.jpg","P_M_boris_johnson.jpg","TRUE","pictures/stimuli/P","pictures/stimuli/P","F","M","1","2","12345","P_F_tehresy_may.jpg P_M_boris_johnson.jpg",-1.5372479234656,"29","Female","right",1,1,FALSE
1621,"E_F_keira_knightley.jpg","P_M_bill_clinton.jpg","FALSE","pictures/stimuli/E","pictures/stimuli/P","F","M","6","2","12345","E_F_keira_knightley.jpg P_M_bill_clinton.jpg",0.803113498477221,"29","Female","right",1,0,TRUE
1325,"E_F_keira_knightley.jpg","E_M_Hugh_Grant.jpg","TRUE","pictures/stimuli/E","pictures/stimuli/E","F","M","6","2","12345","E_F_keira_knightley.jpg E_M_Hugh_Grant.jpg",0.803113498477221,"29","Female","right",1,1,FALSE
710,"E_M_robert_de_niro.jpg","P_F_tehresy_may.jpg","FALSE","pictures/stimuli/E","pictures/stimuli/P","M","F","6","2","12345","E_M_robert_de_niro.jpg P_F_tehresy_may.jpg",0.803113498477221,"29","Female","right",0,1,TRUE
932,"E_F_jennifer_aniston.jpg","E_M_michael_caine.jpg","TRUE","pictures/stimuli/E","pictures/stimuli/E","F","M","6","2","12345","E_F_jennifer_aniston.jpg E_M_michael_caine.jpg",0.803113498477221,"29","Female","right",1,0,TRUE
2828,"E_F_Kate_Winslet.jpg","E_M_robert_de_niro.jpg","TRUE","pictures/stimuli/E","pictures/stimuli/E","F","M","6","2","12345","E_F_Kate_Winslet.jpg E_M_robert_de_niro.jpg",0.803113498477221,"29","Female","right",1,0,TRUE
3246,"E_M_michael_caine.jpg","E_M_robert_de_niro.jpg","TRUE","pictures/stimuli/E","pictures/stimuli/E","M","M","1","2","12345","E_M_michael_caine.jpg E_M_robert_de_niro.jpg",-1.5372479234656,"29","Female","right",0,0,TRUE
1081,"E_F_angelina_jolie.jpg","E_F_Judi_Dench.jpg","TRUE","pictures/stimuli/E","pictures/stimuli/E","F","F","6","2","12345","E_F_angelina_jolie.jpg E_F_Judi_Dench.jpg",0.803113498477221,"29","Female","right",1,1,FALSE
1961,"P_M_bill_clinton.jpg","P_M_george_Wbush.jpg","TRUE","pictures/stimuli/P","pictures/stimuli/P","M","M","1","2","12345","P_M_bill_clinton.jpg P_M_george_Wbush.jpg",-1.5372479234656,"29","Female","right",0,1,TRUE
2170,"P_F_hillary_clinton.jpg","P_F_tehresy_may.jpg","TRUE","pictures/stimuli/P","pictures/stimuli/P","F","F","1","2","12345","P_F_hillary_clinton.jpg P_F_tehresy_may.jpg",-1.5372479234656,"29","Female","right",1,1,FALSE
2996,"P_F_nicola_sturgeon.jpg","P_M_george_Wbush.jpg","TRUE","pictures/stimuli/P","pictures/stimuli/P","F","M","1","2","12345","P_F_nicola_sturgeon.jpg P_M_george_Wbush.jpg",-1.5372479234656,"29","Female","right",1,1,FALSE
1604,"E_F_Judi_Dench.jpg","E_M_nicolas_cage.jpg","TRUE","pictures/stimuli/E","pictures/stimuli/E","F","M","6","2","12345","E_F_Judi_Dench.jpg E_M_nicolas_cage.jpg",0.803113498477221,"29","Female","right",1,1,FALSE
1654,"E_F_Kate_Winslet.jpg","P_F_hillary_clinton.jpg","FALSE","pictures/stimuli/E","pictures/stimuli/P","F","F","1","2","12345","E_F_Kate_Winslet.jpg P_F_hillary_clinton.jpg",-1.5372479234656,"29","Female","right",1,1,FALSE
2060,"P_M_boris_johnson.jpg","P_M_george_Wbush.jpg","TRUE","pictures/stimuli/P","pictures/stimuli/P","M","M","1","2","12345","P_M_boris_johnson.jpg P_M_george_Wbush.jpg",-1.5372479234656,"29","Female","right",1,1,FALSE
2768,"P_F_hillary_clinton.jpg","P_M_george_Wbush.jpg","TRUE","pictures/stimuli/P","pictures/stimuli/P","F","M","1","2","12345","P_F_hillary_clinton.jpg P_M_george_Wbush.jpg",-1.5372479234656,"29","Female","right",1,1,FALSE
1008,"E_F_Kate_Winslet.jpg","P_M_bill_clinton.jpg","FALSE","pictures/stimuli/E","pictures/stimuli/P","F","M","6","2","12345","E_F_Kate_Winslet.jpg P_M_bill_clinton.jpg",0.803113498477221,"29","Female","right",1,0,TRUE
1017,"E_F_jennifer_aniston.jpg","P_M_bill_clinton.jpg","FALSE","pictures/stimuli/E","pictures/stimuli/P","F","M","6","2","12345","E_F_jennifer_aniston.jpg P_M_bill_clinton.jpg",0.803113498477221,"29","Female","right",1,0,TRUE
741,"E_F_angelina_jolie.jpg","P_M_george_Wbush.jpg","FALSE","pictures/stimuli/E","pictures/stimuli/P","F","M","6","2","12345","E_F_angelina_jolie.jpg P_M_george_Wbush.jpg",0.803113498477221,"29","Female","right",1,1,FALSE
1974,"E_M_nicolas_cage.jpg","P_M_george_Wbush.jpg","FALSE","pictures/stimuli/E","pictures/stimuli/P","M","M","1","2","12345","E_M_nicolas_cage.jpg P_M_george_Wbush.jpg",-1.5372479234656,"29","Female","right",1,1,FALSE
1761,"E_M_tom_hankes.jpg","P_M_donald_trump.jpg","FALSE","pictures/stimuli/E","pictures/stimuli/P","M","M","6","2","12345","E_M_tom_hankes.jpg P_M_donald_trump.jpg",0.803113498477221,"29","Female","right",1,1,FALSE
2172,"E_M_nicolas_cage.jpg","P_F_tehresy_may.jpg","FALSE","pictures/stimuli/E","pictures/stimuli/P","M","F","6","2","12345","E_M_nicolas_cage.jpg P_F_tehresy_may.jpg",0.803113498477221,"29","Female","right",1,1,FALSE
1020,"E_M_michael_caine.jpg","E_M_tom_hankes.jpg","TRUE","pictures/stimuli/E","pictures/stimuli/E","M","M","6","2","12345","E_M_michael_caine.jpg E_M_tom_hankes.jpg",0.803113498477221,"29","Female","right",0,1,TRUE
3131,"E_F_Kate_Winslet.jpg","P_M_george_Wbush.jpg","FALSE","pictures/stimuli/E","pictures/stimuli/P","F","M","6","2","12345","E_F_Kate_Winslet.jpg P_M_george_Wbush.jpg",0.803113498477221,"29","Female","right",1,1,FALSE
2256,"P_F_hillary_clinton.jpg","P_M_boris_johnson.jpg","TRUE","pictures/stimuli/P","pictures/stimuli/P","F","M","1","2","12345","P_F_hillary_clinton.jpg P_M_boris_johnson.jpg",-1.5372479234656,"29","Female","right",1,1,FALSE
1446,"E_F_angelina_jolie.jpg","E_M_robert_de_niro.jpg","TRUE","pictures/stimuli/E","pictures/stimuli/E","F","M","6","2","12345","E_F_angelina_jolie.jpg E_M_robert_de_niro.jpg",0.803113498477221,"29","Female","right",1,0,TRUE
2457,"E_F_keira_knightley.jpg","P_M_Tony_Blair.jpg","FALSE","pictures/stimuli/E","pictures/stimuli/P","F","M","6","3","12345","E_F_keira_knightley.jpg P_M_Tony_Blair.jpg",1.1095824539594,"26","Female","right",1,1,FALSE
2304,"E_F_angelina_jolie.jpg","P_M_boris_johnson.jpg","FALSE","pictures/stimuli/E","pictures/stimuli/P","F","M","6","3","12345","E_F_angelina_jolie.jpg P_M_boris_johnson.jpg",1.1095824539594,"26","Female","right",1,1,FALSE
3223,"P_F_tehresy_may.jpg","P_M_Tony_Blair.jpg","TRUE","pictures/stimuli/P","pictures/stimuli/P","F","M","4","3","12345","P_F_tehresy_may.jpg P_M_Tony_Blair.jpg",-0.957286823023797,"26","Female","right",1,1,FALSE
3716,"E_M_Hugh_Grant.jpg","P_M_bill_clinton.jpg","FALSE","pictures/stimuli/E","pictures/stimuli/P","M","M","3","3","12345","E_M_Hugh_Grant.jpg P_M_bill_clinton.jpg",-1.9907214615154,"26","Female","right",1,1,FALSE
3333,"E_M_Hugh_Grant.jpg","P_M_boris_johnson.jpg","FALSE","pictures/stimuli/E","pictures/stimuli/P","M","M","3","3","12345","E_M_Hugh_Grant.jpg P_M_boris_johnson.jpg",-1.9907214615154,"26","Female","right",1,1,FALSE
2130,"E_F_keira_knightley.jpg","P_M_boris_johnson.jpg","FALSE","pictures/stimuli/E","pictures/stimuli/P","F","M","6","3","12345","E_F_keira_knightley.jpg P_M_boris_johnson.jpg",1.1095824539594,"26","Female","right",1,1,FALSE
1798,"E_M_tom_hankes.jpg","P_M_david_cameron.jpg","FALSE","pictures/stimuli/E","pictures/stimuli/P","M","M","3","3","12345","E_M_tom_hankes.jpg P_M_david_cameron.jpg",-1.9907214615154,"26","Female","right",1,1,FALSE
2362,"P_F_tehresy_may.jpg","P_M_bill_clinton.jpg","TRUE","pictures/stimuli/P","pictures/stimuli/P","F","M","4","3","12345","P_F_tehresy_may.jpg P_M_bill_clinton.jpg",-0.957286823023797,"26","Female","right",1,1,FALSE
3098,"E_F_jennifer_aniston.jpg","P_M_donald_trump.jpg","FALSE","pictures/stimuli/E","pictures/stimuli/P","F","M","6","3","12345","E_F_jennifer_aniston.jpg P_M_donald_trump.jpg",1.1095824539594,"26","Female","right",1,1,FALSE
2324,"E_M_robert_de_niro.jpg","P_M_Tony_Blair.jpg","FALSE","pictures/stimuli/E","pictures/stimuli/P","M","M","4","3","12345","E_M_robert_de_niro.jpg P_M_Tony_Blair.jpg",-0.957286823023797,"26","Female","right",1,1,FALSE
2822,"E_F_sandra_bullock.jpg","E_M_Hugh_Grant.jpg","TRUE","pictures/stimuli/E","pictures/stimuli/E","F","M","5","3","12345","E_F_sandra_bullock.jpg E_M_Hugh_Grant.jpg",0.0761478154678018,"26","Female","right",1,1,FALSE
2484,"E_F_Judi_Dench.jpg","E_M_robert_de_niro.jpg","TRUE","pictures/stimuli/E","pictures/stimuli/E","F","M","4","3","12345","E_F_Judi_Dench.jpg E_M_robert_de_niro.jpg",-0.957286823023797,"26","Female","right",1,1,FALSE
2339,"P_M_david_cameron.jpg","P_M_george_Wbush.jpg","TRUE","pictures/stimuli/P","pictures/stimuli/P","M","M","4","3","12345","P_M_david_cameron.jpg P_M_george_Wbush.jpg",-0.957286823023797,"26","Female","right",1,1,FALSE
2923,"E_F_Judi_Dench.jpg","P_F_tehresy_may.jpg","FALSE","pictures/stimuli/E","pictures/stimuli/P","F","F","3","3","12345","E_F_Judi_Dench.jpg P_F_tehresy_may.jpg",-1.9907214615154,"26","Female","right",1,1,FALSE
2014,"E_M_nicolas_cage.jpg","E_M_tom_hankes.jpg","TRUE","pictures/stimuli/E","pictures/stimuli/E","M","M","4","3","12345","E_M_nicolas_cage.jpg E_M_tom_hankes.jpg",-0.957286823023797,"26","Female","right",1,1,FALSE
2047,"E_F_Judi_Dench.jpg","E_M_michael_caine.jpg","TRUE","pictures/stimuli/E","pictures/stimuli/E","F","M","5","3","12345","E_F_Judi_Dench.jpg E_M_michael_caine.jpg",0.0761478154678018,"26","Female","right",1,1,FALSE
2258,"E_M_nicolas_cage.jpg","P_M_george_Wbush.jpg","FALSE","pictures/stimuli/E","pictures/stimuli/P","M","M","3","3","12345","E_M_nicolas_cage.jpg P_M_george_Wbush.jpg",-1.9907214615154,"26","Female","right",1,1,FALSE
1846,"E_F_sandra_bullock.jpg","P_M_donald_trump.jpg","FALSE","pictures/stimuli/E","pictures/stimuli/P","F","M","6","3","12345","E_F_sandra_bullock.jpg P_M_donald_trump.jpg",1.1095824539594,"26","Female","right",1,1,FALSE
2104,"E_F_jennifer_aniston.jpg","E_M_nicolas_cage.jpg","TRUE","pictures/stimuli/E","pictures/stimuli/E","F","M","5","3","12345","E_F_jennifer_aniston.jpg E_M_nicolas_cage.jpg",0.0761478154678018,"26","Female","right",1,1,FALSE
1998,"P_F_nicola_sturgeon.jpg","P_M_boris_johnson.jpg","TRUE","pictures/stimuli/P","pictures/stimuli/P","F","M","4","3","12345","P_F_nicola_sturgeon.jpg P_M_boris_johnson.jpg",-0.957286823023797,"26","Female","right",1,1,FALSE
2049,"E_F_keira_knightley.jpg","P_F_nicola_sturgeon.jpg","FALSE","pictures/stimuli/E","pictures/stimuli/P","F","F","4","3","12345","E_F_keira_knightley.jpg P_F_nicola_sturgeon.jpg",-0.957286823023797,"26","Female","right",1,1,FALSE
3893,"E_M_nicolas_cage.jpg","P_M_boris_johnson.jpg","FALSE","pictures/stimuli/E","pictures/stimuli/P","M","M","4","3","12345","E_M_nicolas_cage.jpg P_M_boris_johnson.jpg",-0.957286823023797,"26","Female","right",1,1,FALSE
2209,"E_M_michael_caine.jpg","P_M_bill_clinton.jpg","FALSE","pictures/stimuli/E","pictures/stimuli/P","M","M","4","3","12345","E_M_michael_caine.jpg P_M_bill_clinton.jpg",-0.957286823023797,"26","Female","right",1,1,FALSE
2005,"P_F_tehresy_may.jpg","P_M_boris_johnson.jpg","TRUE","pictures/stimuli/P","pictures/stimuli/P","F","M","5","3","12345","P_F_tehresy_may.jpg P_M_boris_johnson.jpg",0.0761478154678018,"26","Female","right",1,1,FALSE
3208,"E_F_Kate_Winslet.jpg","P_F_hillary_clinton.jpg","FALSE","pictures/stimuli/E","pictures/stimuli/P","F","F","3","3","12345","E_F_Kate_Winslet.jpg P_F_hillary_clinton.jpg",-1.9907214615154,"26","Female","right",1,1,FALSE
2711,"E_M_michael_caine.jpg","P_M_boris_johnson.jpg","FALSE","pictures/stimuli/E","pictures/stimuli/P","M","M","3","3","12345","E_M_michael_caine.jpg P_M_boris_johnson.jpg",-1.9907214615154,"26","Female","right",1,1,FALSE
2744,"E_F_keira_knightley.jpg","E_M_robert_de_niro.jpg","TRUE","pictures/stimuli/E","pictures/stimuli/E","F","M","6","3","12345","E_F_keira_knightley.jpg E_M_robert_de_niro.jpg",1.1095824539594,"26","Female","right",1,1,FALSE
2015,"E_F_angelina_jolie.jpg","E_M_michael_caine.jpg","TRUE","pictures/stimuli/E","pictures/stimuli/E","F","M","6","3","12345","E_F_angelina_jolie.jpg E_M_michael_caine.jpg",1.1095824539594,"26","Female","right",1,1,FALSE
3246,"P_M_bill_clinton.jpg","P_M_boris_johnson.jpg","TRUE","pictures/stimuli/P","pictures/stimuli/P","M","M","4","3","12345","P_M_bill_clinton.jpg P_M_boris_johnson.jpg",-0.957286823023797,"26","Female","right",1,1,FALSE
2322,"E_F_jennifer_aniston.jpg","E_M_tom_hankes.jpg","TRUE","pictures/stimuli/E","pictures/stimuli/E","F","M","6","3","12345","E_F_jennifer_aniston.jpg E_M_tom_hankes.jpg",1.1095824539594,"26","Female","right",1,1,FALSE
2355,"E_F_Kate_Winslet.jpg","P_F_tehresy_may.jpg","FALSE","pictures/stimuli/E","pictures/stimuli/P","F","F","5","3","12345","E_F_Kate_Winslet.jpg P_F_tehresy_may.jpg",0.0761478154678018,"26","Female","right",1,1,FALSE
2704,"E_F_Kate_Winslet.jpg","P_M_bill_clinton.jpg","FALSE","pictures/stimuli/E","pictures/stimuli/P","F","M","5","3","12345","E_F_Kate_Winslet.jpg P_M_bill_clinton.jpg",0.0761478154678018,"26","Female","right",1,1,FALSE
1886,"E_M_michael_caine.jpg","E_M_nicolas_cage.jpg","TRUE","pictures/stimuli/E","pictures/stimuli/E","M","M","4","3","12345","E_M_michael_caine.jpg E_M_nicolas_cage.jpg",-0.957286823023797,"26","Female","right",1,1,FALSE
2270,"E_F_keira_knightley.jpg","E_M_Hugh_Grant.jpg","TRUE","pictures/stimuli/E","pictures/stimuli/E","F","M","5","3","12345","E_F_keira_knightley.jpg E_M_Hugh_Grant.jpg",0.0761478154678018,"26","Female","right",1,1,FALSE
2067,"P_M_bill_clinton.jpg","P_M_Tony_Blair.jpg","TRUE","pictures/stimuli/P","pictures/stimuli/P","M","M","4","3","12345","P_M_bill_clinton.jpg P_M_Tony_Blair.jpg",-0.957286823023797,"26","Female","right",1,1,FALSE
2016,"E_F_angelina_jolie.jpg","P_F_hillary_clinton.jpg","FALSE","pictures/stimuli/E","pictures/stimuli/P","F","F","5","3","12345","E_F_angelina_jolie.jpg P_F_hillary_clinton.jpg",0.0761478154678018,"26","Female","right",1,1,FALSE
2378,"E_F_jennifer_aniston.jpg","P_M_george_Wbush.jpg","FALSE","pictures/stimuli/E","pictures/stimuli/P","F","M","6","3","12345","E_F_jennifer_aniston.jpg P_M_george_Wbush.jpg",1.1095824539594,"26","Female","right",1,1,FALSE
2263,"E_F_sandra_bullock.jpg","P_M_boris_johnson.jpg","FALSE","pictures/stimuli/E","pictures/stimuli/P","F","M","6","3","12345","E_F_sandra_bullock.jpg P_M_boris_johnson.jpg",1.1095824539594,"26","Female","right",1,1,FALSE
2544,"E_F_sandra_bullock.jpg","E_M_tom_hankes.jpg","TRUE","pictures/stimuli/E","pictures/stimuli/E","F","M","6","3","12345","E_F_sandra_bullock.jpg E_M_tom_hankes.jpg",1.1095824539594,"26","Female","right",1,1,FALSE
2647,"P_M_boris_johnson.jpg","P_M_george_Wbush.jpg","TRUE","pictures/stimuli/P","pictures/stimuli/P","M","M","4","3","12345","P_M_boris_johnson.jpg P_M_george_Wbush.jpg",-0.957286823023797,"26","Female","right",1,1,FALSE
1815,"E_F_keira_knightley.jpg","E_M_nicolas_cage.jpg","TRUE","pictures/stimuli/E","pictures/stimuli/E","F","M","6","3","12345","E_F_keira_knightley.jpg E_M_nicolas_cage.jpg",1.1095824539594,"26","Female","right",1,1,FALSE
2047,"E_M_Hugh_Grant.jpg","P_F_nicola_sturgeon.jpg","FALSE","pictures/stimuli/E","pictures/stimuli/P","M","F","6","3","12345","E_M_Hugh_Grant.jpg P_F_nicola_sturgeon.jpg",1.1095824539594,"26","Female","right",1,1,FALSE
2152,"E_M_Hugh_Grant.jpg","E_M_robert_de_niro.jpg","TRUE","pictures/stimuli/E","pictures/stimuli/E","M","M","4","3","12345","E_M_Hugh_Grant.jpg E_M_robert_de_niro.jpg",-0.957286823023797,"26","Female","right",1,1,FALSE
1978,"E_M_michael_caine.jpg","P_M_george_Wbush.jpg","FALSE","pictures/stimuli/E","pictures/stimuli/P","M","M","4","3","12345","E_M_michael_caine.jpg P_M_george_Wbush.jpg",-0.957286823023797,"26","Female","right",1,1,FALSE
2437,"P_F_hillary_clinton.jpg","P_M_george_Wbush.jpg","TRUE","pictures/stimuli/P","pictures/stimuli/P","F","M","5","3","12345","P_F_hillary_clinton.jpg P_M_george_Wbush.jpg",0.0761478154678018,"26","Female","right",1,1,FALSE
1692,"E_M_robert_de_niro.jpg","P_M_boris_johnson.jpg","FALSE","pictures/stimuli/E","pictures/stimuli/P","M","M","5","3","12345","E_M_robert_de_niro.jpg P_M_boris_johnson.jpg",0.0761478154678018,"26","Female","right",1,1,FALSE
1490,"E_F_sandra_bullock.jpg","P_M_Tony_Blair.jpg","FALSE","pictures/stimuli/E","pictures/stimuli/P","F","M","6","3","12345","E_F_sandra_bullock.jpg P_M_Tony_Blair.jpg",1.1095824539594,"26","Female","right",1,1,FALSE
1918,"E_F_keira_knightley.jpg","E_M_michael_caine.jpg","TRUE","pictures/stimuli/E","pictures/stimuli/E","F","M","6","3","12345","E_F_keira_knightley.jpg E_M_michael_caine.jpg",1.1095824539594,"26","Female","right",1,1,FALSE
1709,"E_F_jennifer_aniston.jpg","P_F_hillary_clinton.jpg","FALSE","pictures/stimuli/E","pictures/stimuli/P","F","F","4","3","12345","E_F_jennifer_aniston.jpg P_F_hillary_clinton.jpg",-0.957286823023797,"26","Female","right",1,1,FALSE
1732,"E_F_keira_knightley.jpg","P_M_donald_trump.jpg","FALSE","pictures/stimuli/E","pictures/stimuli/P","F","M","6","3","12345","E_F_keira_knightley.jpg P_M_donald_trump.jpg",1.1095824539594,"26","Female","right",1,1,FALSE
3431,"E_F_Kate_Winslet.jpg","E_M_Hugh_Grant.jpg","TRUE","pictures/stimuli/E","pictures/stimuli/E","F","M","6","3","12345","E_F_Kate_Winslet.jpg E_M_Hugh_Grant.jpg",1.1095824539594,"26","Female","right",1,1,FALSE
2906,"E_F_angelina_jolie.jpg","E_M_Hugh_Grant.jpg","TRUE","pictures/stimuli/E","pictures/stimuli/E","F","M","6","3","12345","E_F_angelina_jolie.jpg E_M_Hugh_Grant.jpg",1.1095824539594,"26","Female","right",1,1,FALSE
1805,"P_F_nicola_sturgeon.jpg","P_M_donald_trump.jpg","TRUE","pictures/stimuli/P","pictures/stimuli/P","F","M","6","3","12345","P_F_nicola_sturgeon.jpg P_M_donald_trump.jpg",1.1095824539594,"26","Female","right",1,1,FALSE
1725,"E_F_sandra_bullock.jpg","P_M_george_Wbush.jpg","FALSE","pictures/stimuli/E","pictures/stimuli/P","F","M","6","3","12345","E_F_sandra_bullock.jpg P_M_george_Wbush.jpg",1.1095824539594,"26","Female","right",1,1,FALSE
2315,"E_M_nicolas_cage.jpg","P_F_nicola_sturgeon.jpg","FALSE","pictures/stimuli/E","pictures/stimuli/P","M","F","5","3","12345","E_M_nicolas_cage.jpg P_F_nicola_sturgeon.jpg",0.0761478154678018,"26","Female","right",1,1,FALSE
2421,"P_F_tehresy_may.jpg","P_M_donald_trump.jpg","TRUE","pictures/stimuli/P","pictures/stimuli/P","F","M","5","3","12345","P_F_tehresy_may.jpg P_M_donald_trump.jpg",0.0761478154678018,"26","Female","right",1,1,FALSE
1483,"E_F_sandra_bullock.jpg","E_M_robert_de_niro.jpg","TRUE","pictures/stimuli/E","pictures/stimuli/E","F","M","6","3","12345","E_F_sandra_bullock.jpg E_M_robert_de_niro.jpg",1.1095824539594,"26","Female","right",1,1,FALSE
2971,"E_F_keira_knightley.jpg","E_F_sandra_bullock.jpg","TRUE","pictures/stimuli/E","pictures/stimuli/E","F","F","2","3","12345","E_F_keira_knightley.jpg E_F_sandra_bullock.jpg",-3.02415610000699,"26","Female","right",1,1,FALSE
3568,"E_F_Kate_Winslet.jpg","P_M_david_cameron.jpg","FALSE","pictures/stimuli/E","pictures/stimuli/P","F","M","5","3","12345","E_F_Kate_Winslet.jpg P_M_david_cameron.jpg",0.0761478154678018,"26","Female","right",1,1,FALSE
2043,"E_F_Judi_Dench.jpg","E_M_nicolas_cage.jpg","TRUE","pictures/stimuli/E","pictures/stimuli/E","F","M","5","3","12345","E_F_Judi_Dench.jpg E_M_nicolas_cage.jpg",0.0761478154678018,"26","Female","right",1,1,FALSE
1504,"E_M_nicolas_cage.jpg","P_M_bill_clinton.jpg","FALSE","pictures/stimuli/E","pictures/stimuli/P","M","M","4","3","12345","E_M_nicolas_cage.jpg P_M_bill_clinton.jpg",-0.957286823023797,"26","Female","right",1,1,FALSE
1586,"E_M_Hugh_Grant.jpg","E_M_tom_hankes.jpg","TRUE","pictures/stimuli/E","pictures/stimuli/E","M","M","5","3","12345","E_M_Hugh_Grant.jpg E_M_tom_hankes.jpg",0.0761478154678018,"26","Female","right",1,1,FALSE
2243,"P_F_nicola_sturgeon.jpg","P_M_Tony_Blair.jpg","TRUE","pictures/stimuli/P","pictures/stimuli/P","F","M","6","3","12345","P_F_nicola_sturgeon.jpg P_M_Tony_Blair.jpg",1.1095824539594,"26","Female","right",1,1,FALSE
1505,"E_M_tom_hankes.jpg","P_M_george_Wbush.jpg","FALSE","pictures/stimuli/E","pictures/stimuli/P","M","M","4","3","12345","E_M_tom_hankes.jpg P_M_george_Wbush.jpg",-0.957286823023797,"26","Female","right",1,1,FALSE
1758,"P_M_david_cameron.jpg","P_M_Tony_Blair.jpg","TRUE","pictures/stimuli/P","pictures/stimuli/P","M","M","4","3","12345","P_M_david_cameron.jpg P_M_Tony_Blair.jpg",-0.957286823023797,"26","Female","right",1,1,FALSE
1665,"E_M_michael_caine.jpg","P_F_hillary_clinton.jpg","FALSE","pictures/stimuli/E","pictures/stimuli/P","M","F","5","3","12345","E_M_michael_caine.jpg P_F_hillary_clinton.jpg",0.0761478154678018,"26","Female","right",1,1,FALSE
2515,"E_F_angelina_jolie.jpg","P_F_nicola_sturgeon.jpg","FALSE","pictures/stimuli/E","pictures/stimuli/P","F","F","6","3","12345","E_F_angelina_jolie.jpg P_F_nicola_sturgeon.jpg",1.1095824539594,"26","Female","right",1,1,FALSE
1876,"E_F_Kate_Winslet.jpg","P_M_boris_johnson.jpg","FALSE","pictures/stimuli/E","pictures/stimuli/P","F","M","5","3","12345","E_F_Kate_Winslet.jpg P_M_boris_johnson.jpg",0.0761478154678018,"26","Female","right",1,1,FALSE
1717,"E_F_jennifer_aniston.jpg","P_M_david_cameron.jpg","FALSE","pictures/stimuli/E","pictures/stimuli/P","F","M","5","3","12345","E_F_jennifer_aniston.jpg P_M_david_cameron.jpg",0.0761478154678018,"26","Female","right",1,1,FALSE
2647,"E_F_jennifer_aniston.jpg","P_M_Tony_Blair.jpg","FALSE","pictures/stimuli/E","pictures/stimuli/P","F","M","6","3","12345","E_F_jennifer_aniston.jpg P_M_Tony_Blair.jpg",1.1095824539594,"26","Female","right",1,1,FALSE
2186,"E_F_Kate_Winslet.jpg","E_M_michael_caine.jpg","TRUE","pictures/stimuli/E","pictures/stimuli/E","F","M","6","3","12345","E_F_Kate_Winslet.jpg E_M_michael_caine.jpg",1.1095824539594,"26","Female","right",1,1,FALSE
